onset	duration	trial_type	response_time	stim_file	accuracy
31.532	1.0	go	0.505	Go_X	1.0
34.056	1.0	go	0.361	Go_O	1.0
36.58	1.0	go	0.307	Go_X	1.0
39.104	1.0	go	0.259	Go_O	1.0
41.628	1.0	go	0.451	Go_O	1.0
44.153	1.0	go	0.394	Go_X	1.0
46.694	0.25	stopfail	0.342	Go_O	0.0
49.235	1.0	go	0.498	Go_O	1.0
51.759	0.2	stopsuccess	0.0	Go_X	1.0
54.3	1.0	go	0.373	Go_X	1.0
56.824	1.0	go	0.66	Go_O	1.0
59.348	1.0	go	0.67	Go_X	1.0
61.889	0.25	stopsuccess	0.0	Go_O	1.0
64.43	1.0	go	0.489	Go_O	1.0
66.954	1.0	go	0.687	Go_X	1.0
69.478	0.3	stopsuccess	0.0	Go_X	1.0
72.002	0.35	stopsuccess	0.0	Go_O	1.0
74.527	1.0	go	0.345	Go_O	1.0
77.051	1.0	go	0.722	Go_X	1.0
79.575	0.4	stopsuccess	0.0	Go_X	1.0
82.116	1.0	go	0.474	Go_O	1.0
84.64	1.0	go	0.734	Go_X	1.0
87.164	0.45	stopsuccess	0.0	Go_O	1.0
89.689	1.0	go	0.621	Go_X	1.0
92.213	1.0	go	0.829	Go_O	1.0
94.754	0.5	stopsuccess	0.0	Go_X	1.0
97.295	1.0	go	0.472	Go_O	1.0
99.819	1.0	go	0.818	Go_X	1.0
102.343	0.55	stopfail	0.668	Go_O	0.0
104.867	1.0	go	0.799	Go_X	1.0
107.391	1.0	go	0.724	Go_O	1.0
109.916	1.0	go	0.643	Go_X	1.0
112.44	1.0	go	0.706	Go_O	1.0
114.981	1.0	go	0.827	Go_O	1.0
117.505	0.5	stopsuccess	0.0	Go_X	1.0
120.029	1.0	go	0.512	Go_X	1.0
122.553	1.0	go	0.714	Go_X	1.0
125.078	1.0	go	0.976	Go_O	1.0
127.619	1.0	go	0.596	Go_O	1.0
130.143	1.0	go	0.644	Go_X	1.0
132.684	0.55	stopsuccess	0.0	Go_O	1.0
135.225	1.0	go	0.385	Go_O	1.0
137.749	1.0	go	0.573	Go_X	1.0
140.273	1.0	go	0.553	Go_X	1.0
142.797	1.0	go	0.79	Go_O	1.0
145.338	1.0	go	0.608	Go_O	1.0
147.879	1.0	go	0.723	Go_X	1.0
150.403	0.6	stopfail	0.414	Go_X	0.0
152.927	1.0	go	0.566	Go_O	1.0
155.452	1.0	go	0.609	Go_X	1.0
157.976	0.55	stopfail	0.488	Go_O	0.0
160.5	1.0	go	0.55	Go_O	1.0
163.024	0.5	stopfail	0.608	Go_X	0.0
165.548	0.45	stopsuccess	0.0	Go_O	1.0
168.073	1.0	go	0.456	Go_X	1.0
170.597	1.0	go	0.584	Go_X	1.0
173.121	1.0	go	0.649	Go_O	1.0
175.645	1.0	go	0.719	Go_O	1.0
178.186	0.5	stopfail	0.597	Go_X	0.0
180.71	1.0	go	0.601	Go_X	1.0
183.235	0.45	stopfail	0.498	Go_O	0.0
185.776	1.0	go	0.753	Go_O	1.0
188.3	1.0	go	0.65	Go_X	1.0
190.824	1.0	go	0.721	Go_O	1.0
193.348	1.0	go	0.0	Go_X	0.0
195.872	1.0	go	0.719	Go_X	1.0
198.397	1.0	go	0.73	Go_O	1.0
200.921	1.0	go	0.88	Go_X	1.0
203.445	1.0	go	0.777	Go_O	1.0
205.986	1.0	go	0.658	Go_X	1.0
208.51	0.4	stopsuccess	0.0	Go_X	1.0
211.051	1.0	go	0.491	Go_O	1.0
213.575	1.0	go	0.485	Go_O	1.0
216.099	1.0	go	0.803	Go_X	1.0
218.624	0.45	stopsuccess	0.0	Go_O	1.0
221.164	1.0	go	0.756	Go_O	1.0
223.689	1.0	go	0.435	Go_X	1.0
226.23	1.0	go	0.785	Go_O	0.0
228.754	1.0	go	0.535	Go_X	1.0
231.3	1.0	go	0.425	Go_O	1.0
233.852	1.0	go	0.372	Go_X	1.0
236.377	0.5	stopfail	0.457	Go_X	0.0
238.918	1.0	go	0.493	Go_O	1.0
241.458	1.0	go	0.594	Go_X	1.0
243.983	0.45	stopsuccess	0.0	Go_O	1.0
246.524	1.0	go	0.46	Go_O	1.0
249.064	1.0	go	0.582	Go_X	1.0
251.589	0.5	stopfail	0.63	Go_X	0.0
254.13	1.0	go	0.817	Go_O	1.0
256.671	0.45	stopsuccess	0.0	Go_O	1.0
259.211	1.0	go	0.474	Go_X	1.0
261.736	1.0	go	0.0	Go_O	0.0
264.26	1.0	go	0.788	Go_X	1.0
266.784	1.0	go	0.911	Go_O	1.0
269.308	1.0	go	0.584	Go_X	1.0
271.833	0.5	stopsuccess	0.0	Go_X	1.0
274.357	0.55	stopfail	0.391	Go_O	0.0
276.898	1.0	go	0.564	Go_O	1.0
279.422	1.0	go	0.538	Go_X	1.0
281.946	0.5	stopsuccess	0.0	Go_X	1.0
284.487	1.0	go	0.654	Go_O	1.0
287.011	1.0	go	0.639	Go_X	1.0
289.535	1.0	go	0.543	Go_O	1.0
292.059	1.0	go	0.509	Go_X	1.0
294.584	1.0	go	0.691	Go_O	1.0
297.108	1.0	go	0.486	Go_X	1.0
299.632	0.55	stopfail	0.446	Go_O	0.0
302.173	1.0	go	0.645	Go_X	1.0
304.697	1.0	go	0.0	Go_O	0.0
307.221	1.0	go	0.647	Go_X	1.0
309.746	1.0	go	0.569	Go_O	1.0
312.27	1.0	go	0.74	Go_X	1.0
314.811	0.5	stopsuccess	0.0	Go_X	1.0
317.352	1.0	go	0.381	Go_O	1.0
319.876	1.0	go	0.71	Go_O	1.0
322.4	1.0	go	0.487	Go_X	1.0
324.924	1.0	go	0.728	Go_O	1.0
327.448	0.55	stopfail	0.673	Go_O	0.0
329.989	1.0	go	0.533	Go_X	1.0
332.514	1.0	go	0.546	Go_X	1.0
335.038	0.5	stopfail	0.661	Go_X	0.0
337.562	1.0	go	0.843	Go_O	1.0
340.086	0.45	stopfail	0.593	Go_O	0.0
342.61	1.0	go	0.698	Go_X	1.0
345.135	1.0	go	0.702	Go_O	1.0
347.659	1.0	go	0.663	Go_X	1.0
350.183	1.0	go	0.776	Go_O	1.0
352.707	1.0	go	0.0	Go_O	0.0
355.231	1.0	go	0.0	Go_X	0.0
357.756	1.0	go	0.88	Go_O	1.0
360.297	0.4	stopsuccess	0.0	Go_X	1.0
362.837	1.0	go	0.56	Go_X	1.0
365.362	1.0	go	0.807	Go_X	1.0
367.886	1.0	go	0.661	Go_O	1.0
370.41	0.45	stopsuccess	0.0	Go_O	1.0
372.934	1.0	go	0.658	Go_X	1.0
375.459	1.0	go	0.621	Go_O	1.0
377.983	1.0	go	0.915	Go_X	1.0
380.524	1.0	go	0.71	Go_O	1.0
383.048	0.5	stopsuccess	0.0	Go_X	1.0
385.589	1.0	go	0.501	Go_X	1.0
388.113	1.0	go	0.565	Go_O	1.0
390.637	0.55	stopsuccess	0.0	Go_O	1.0
393.161	1.0	go	0.559	Go_X	1.0
395.686	1.0	go	0.644	Go_O	1.0
398.21	0.6	stopfail	0.612	Go_X	0.0
400.734	1.0	go	0.598	Go_X	1.0
403.258	1.0	go	0.534	Go_O	1.0
405.782	0.55	stopfail	0.574	Go_O	0.0
408.307	1.0	go	0.641	Go_O	1.0
410.831	1.0	go	0.875	Go_X	1.0
413.355	1.0	go	0.749	Go_O	1.0
415.896	1.0	go	0.698	Go_X	1.0
418.42	1.0	go	0.497	Go_O	1.0
420.944	1.0	go	0.398	Go_X	1.0
423.469	0.5	stopfail	0.645	Go_X	0.0
426.009	1.0	go	0.643	Go_O	1.0
428.534	0.45	stopsuccess	0.0	Go_O	1.0
431.075	1.0	go	0.611	Go_X	1.0
433.599	1.0	go	0.528	Go_O	1.0
436.123	1.0	go	0.66	Go_X	1.0
438.664	1.0	go	0.498	Go_O	1.0
441.188	1.0	go	0.633	Go_X	1.0
443.712	0.5	stopsuccess	0.0	Go_X	1.0
446.236	1.0	go	0.475	Go_O	1.0
448.761	1.0	go	0.539	Go_X	1.0
451.302	1.0	go	0.704	Go_O	1.0
453.826	0.55	stopsuccess	0.0	Go_O	1.0
456.367	0.6	stopfail	0.734	Go_X	0.0
458.908	0.55	stopsuccess	0.0	Go_O	1.0
461.449	1.0	go	0.683	Go_X	1.0
463.989	0.6	stopfail	0.704	Go_X	0.0
466.53	1.0	go	0.631	Go_X	1.0
469.055	1.0	go	0.723	Go_O	1.0
471.579	1.0	go	0.0	Go_O	0.0
474.103	1.0	go	0.364	Go_X	1.0
476.627	1.0	go	0.501	Go_O	1.0
479.151	1.0	go	0.598	Go_X	1.0
481.692	1.0	go	0.536	Go_X	1.0
484.217	1.0	go	0.727	Go_O	1.0
486.741	0.55	stopfail	0.509	Go_O	0.0
489.282	1.0	go	0.638	Go_X	1.0
491.806	1.0	go	0.741	Go_O	1.0
494.347	0.5	stopsuccess	0.0	Go_X	1.0
496.888	1.0	go	0.479	Go_O	1.0
499.429	1.0	go	0.737	Go_X	1.0
501.953	1.0	go	0.892	Go_X	1.0
504.477	1.0	go	0.805	Go_O	1.0
507.001	1.0	go	0.746	Go_X	1.0
509.542	0.55	stopsuccess	0.0	Go_O	1.0
512.083	1.0	go	0.687	Go_O	1.0
514.607	1.0	go	0.901	Go_X	1.0
517.131	1.0	go	0.751	Go_O	1.0
519.656	0.6	stopfail	0.804	Go_X	0.0
522.197	1.0	go	0.0	Go_X	0.0
524.721	0.55	stopfail	0.345	Go_O	0.0
527.262	1.0	go	0.461	Go_O	1.0
529.786	1.0	go	0.686	Go_O	1.0
532.327	1.0	go	0.594	Go_X	1.0
534.851	1.0	go	0.851	Go_X	1.0
537.392	1.0	go	0.97	Go_O	1.0
539.916	1.0	go	0.68	Go_O	1.0
542.457	1.0	go	0.0	Go_X	0.0
544.981	0.5	stopfail	0.48	Go_X	0.0
547.522	1.0	go	0.0	Go_O	0.0
550.063	1.0	go	0.605	Go_X	1.0
552.587	1.0	go	0.545	Go_X	0.0
555.112	1.0	go	0.759	Go_O	1.0
557.652	0.45	stopsuccess	0.0	Go_O	1.0
560.193	1.0	go	0.458	Go_X	1.0
562.734	0.5	stopfail	0.535	Go_X	0.0
565.259	1.0	go	0.632	Go_O	1.0
567.783	1.0	go	0.945	Go_O	1.0
570.324	0.45	stopsuccess	0.0	Go_O	1.0
572.865	1.0	go	0.544	Go_X	1.0
575.389	1.0	go	0.546	Go_O	1.0
577.93	1.0	go	0.545	Go_X	1.0
580.454	1.0	go	0.568	Go_O	1.0
582.995	1.0	go	0.483	Go_X	1.0
585.519	1.0	go	0.726	Go_O	1.0
588.043	1.0	go	0.573	Go_X	1.0
590.567	1.0	go	0.871	Go_O	1.0
593.092	1.0	go	0.442	Go_X	1.0
595.616	1.0	go	0.509	Go_O	1.0
598.14	0.5	stopfail	0.68	Go_X	0.0
600.681	1.0	go	0.815	Go_X	1.0
603.205	1.0	go	0.389	Go_X	1.0
605.729	0.45	stopfail	0.501	Go_O	0.0
608.27	1.0	go	0.418	Go_O	1.0
610.794	0.4	stopfail	0.401	Go_X	0.0
613.335	1.0	go	0.771	Go_X	1.0
615.86	1.0	go	0.621	Go_O	1.0
618.4	0.35	stopsuccess	0.0	Go_O	1.0
620.941	1.0	go	0.683	Go_O	1.0
623.466	0.4	stopsuccess	0.0	Go_X	1.0
626.007	1.0	go	0.577	Go_X	1.0
628.531	1.0	go	0.849	Go_X	1.0
631.055	1.0	go	0.716	Go_O	1.0
633.579	0.45	stopsuccess	0.0	Go_O	1.0
636.12	1.0	go	0.433	Go_O	1.0
638.644	1.0	go	0.337	Go_X	1.0
641.169	1.0	go	0.613	Go_O	1.0
643.693	1.0	go	0.671	Go_X	1.0
646.234	0.5	stopsuccess	0.0	Go_X	1.0
648.775	1.0	go	0.633	Go_X	1.0
651.315	1.0	go	0.728	Go_O	1.0
653.84	0.55	stopfail	0.594	Go_O	0.0
656.381	1.0	go	0.0	Go_X	0.0
658.905	1.0	go	0.453	Go_O	1.0
661.429	1.0	go	0.0	Go_X	0.0
663.953	1.0	go	0.781	Go_O	1.0
666.477	0.5	stopsuccess	0.0	Go_X	1.0
669.018	1.0	go	0.927	Go_X	1.0
671.543	0.55	stopfail	0.464	Go_O	0.0
674.083	1.0	go	0.515	Go_O	1.0
676.608	1.0	go	0.704	Go_X	1.0
679.132	0.5	stopfail	0.766	Go_X	0.0
681.673	1.0	go	0.481	Go_O	1.0
684.214	1.0	go	0.632	Go_X	1.0
686.738	1.0	go	0.755	Go_O	1.0
689.279	1.0	go	0.908	Go_O	1.0
691.82	0.45	stopsuccess	0.0	Go_O	1.0
694.361	1.0	go	0.77	Go_X	1.0
696.888	0.5	stopsuccess	0.0	Go_X	1.0
699.442	1.0	go	0.413	Go_O	1.0
701.967	1.0	go	0.68	Go_X	1.0
704.491	1.0	go	0.948	Go_O	1.0
707.015	1.0	go	0.694	Go_X	1.0
709.539	1.0	go	0.397	Go_X	1.0
712.08	1.0	go	0.463	Go_O	1.0
714.621	0.55	stopfail	0.378	Go_O	0.0
717.145	1.0	go	0.609	Go_X	1.0
719.67	1.0	go	0.681	Go_O	1.0
722.194	0.5	stopsuccess	0.0	Go_X	1.0
724.735	1.0	go	0.662	Go_X	1.0
727.259	1.0	go	0.745	Go_O	1.0
729.783	0.55	stopsuccess	0.0	Go_O	1.0
732.324	1.0	go	0.778	Go_X	1.0
734.865	1.0	go	0.789	Go_O	1.0
737.389	1.0	go	0.975	Go_X	1.0
739.913	1.0	go	0.482	Go_O	1.0
742.437	0.6	stopfail	0.521	Go_X	0.0
744.962	1.0	go	0.538	Go_X	1.0
747.503	0.55	stopfail	0.571	Go_O	0.0
750.044	1.0	go	0.658	Go_O	1.0
752.568	1.0	go	0.838	Go_O	1.0
755.092	1.0	go	0.383	Go_X	1.0
757.616	1.0	go	0.539	Go_O	1.0
760.14	1.0	go	0.85	Go_X	1.0
762.665	0.5	stopsuccess	0.0	Go_X	1.0
765.205	1.0	go	0.0	Go_X	0.0
767.746	1.0	go	0.968	Go_O	1.0
770.271	0.55	stopfail	0.559	Go_O	0.0
772.812	0.5	stopsuccess	0.0	Go_X	1.0
775.352	1.0	go	0.737	Go_X	1.0
777.877	1.0	go	0.741	Go_O	1.0
780.418	1.0	go	0.878	Go_X	1.0
782.942	1.0	go	0.538	Go_O	1.0
785.466	0.55	stopsuccess	0.0	Go_O	1.0
788.007	1.0	go	0.791	Go_O	1.0
