onset	duration	trial_type	response_time	stim_file	accuracy
49.738	1.0	go	0.76	Go_X	0.0
52.312	1.0	go	0.548	Go_O	1.0
54.836	1.0	go	0.397	Go_O	1.0
57.36	1.0	go	0.307	Go_X	1.0
59.884	1.0	go	0.511	Go_X	1.0
62.409	1.0	go	0.388	Go_O	1.0
64.933	0.25	stopfail	0.356	Go_O	0.0
67.457	1.0	go	0.362	Go_O	1.0
69.981	0.2	stopfail	0.234	Go_X	0.0
72.539	1.0	go	0.334	Go_X	1.0
75.063	1.0	go	0.391	Go_X	1.0
77.587	1.0	go	0.27	Go_O	1.0
80.111	0.15	stopsuccess	0.0	Go_O	1.0
82.635	1.0	go	0.359	Go_O	1.0
85.16	1.0	go	0.31	Go_X	1.0
87.684	0.2	stopsuccess	0.0	Go_X	1.0
90.208	0.25	stopfail	0.397	Go_O	0.0
92.732	1.0	go	0.442	Go_X	1.0
95.256	1.0	go	0.259	Go_O	1.0
97.781	0.2	stopfail	0.312	Go_X	0.0
100.305	1.0	go	0.65	Go_X	1.0
102.829	1.0	go	0.282	Go_O	1.0
105.353	0.15	stopsuccess	0.0	Go_O	1.0
107.877	1.0	go	0.305	Go_O	1.0
110.401	1.0	go	0.296	Go_X	1.0
112.926	0.2	stopfail	0.347	Go_X	0.0
115.45	1.0	go	0.318	Go_O	1.0
117.974	1.0	go	0.329	Go_X	1.0
120.498	0.15	stopsuccess	0.0	Go_O	1.0
123.022	1.0	go	0.353	Go_O	0.0
125.547	1.0	go	0.548	Go_X	1.0
128.071	1.0	go	0.446	Go_X	1.0
130.595	1.0	go	0.277	Go_O	1.0
133.119	1.0	go	0.381	Go_O	1.0
135.643	0.2	stopsuccess	0.0	Go_X	1.0
138.167	1.0	go	0.371	Go_X	1.0
140.692	1.0	go	0.361	Go_O	1.0
143.216	1.0	go	0.337	Go_X	1.0
145.74	1.0	go	0.291	Go_X	1.0
148.264	1.0	go	0.394	Go_O	1.0
150.788	0.25	stopfail	0.509	Go_O	0.0
153.313	1.0	go	0.334	Go_X	1.0
155.837	1.0	go	0.318	Go_O	1.0
158.361	1.0	go	0.367	Go_O	1.0
160.885	1.0	go	0.341	Go_X	1.0
163.409	1.0	go	0.444	Go_X	1.0
165.933	1.0	go	0.432	Go_O	1.0
168.458	0.2	stopfail	0.314	Go_X	0.0
170.982	1.0	go	0.425	Go_X	1.0
173.506	1.0	go	0.264	Go_O	1.0
176.03	0.15	stopsuccess	0.0	Go_O	1.0
178.554	1.0	go	0.351	Go_O	1.0
181.079	0.2	stopfail	0.34	Go_X	0.0
183.603	0.15	stopsuccess	0.0	Go_O	1.0
186.127	1.0	go	0.324	Go_X	0.0
188.651	1.0	go	0.39	Go_O	1.0
191.175	1.0	go	0.326	Go_X	1.0
193.699	1.0	go	0.34	Go_O	1.0
196.224	0.2	stopsuccess	0.0	Go_X	1.0
198.748	1.0	go	0.635	Go_X	1.0
201.272	0.25	stopsuccess	0.0	Go_O	1.0
203.796	1.0	go	0.394	Go_X	1.0
206.32	1.0	go	0.427	Go_O	1.0
208.845	1.0	go	0.404	Go_O	1.0
211.369	1.0	go	0.416	Go_X	1.0
213.893	1.0	go	0.425	Go_O	1.0
216.417	1.0	go	0.375	Go_X	1.0
218.941	1.0	go	0.365	Go_X	1.0
221.465	1.0	go	0.391	Go_O	1.0
223.99	1.0	go	0.427	Go_O	1.0
226.514	0.3	stopfail	0.374	Go_X	0.0
229.038	1.0	go	0.388	Go_X	1.0
231.562	1.0	go	0.461	Go_X	1.0
234.086	1.0	go	0.373	Go_O	1.0
236.611	0.25	stopfail	0.421	Go_O	0.0
239.135	1.0	go	0.431	Go_O	1.0
241.659	1.0	go	0.599	Go_X	1.0
244.183	1.0	go	0.599	Go_O	1.0
246.707	1.0	go	0.37	Go_X	1.0
249.232	1.0	go	0.46	Go_O	1.0
251.756	1.0	go	0.412	Go_X	1.0
254.28	0.2	stopfail	0.317	Go_X	0.0
256.804	1.0	go	0.286	Go_O	1.0
259.328	1.0	go	0.322	Go_X	1.0
261.852	0.15	stopfail	0.311	Go_O	0.0
264.377	1.0	go	0.39	Go_X	1.0
266.901	1.0	go	0.464	Go_O	1.0
269.425	0.1	stopsuccess	0.0	Go_X	1.0
271.949	1.0	go	0.346	Go_O	1.0
274.473	0.15	stopsuccess	0.0	Go_O	1.0
276.998	1.0	go	0.44	Go_X	1.0
279.522	1.0	go	0.355	Go_X	1.0
282.046	1.0	go	0.33	Go_O	1.0
284.57	1.0	go	0.283	Go_X	1.0
287.094	1.0	go	0.376	Go_O	1.0
289.618	0.2	stopfail	0.31	Go_X	0.0
292.143	0.15	stopfail	0.3	Go_O	0.0
294.667	1.0	go	0.348	Go_O	0.0
297.191	1.0	go	0.596	Go_X	1.0
299.715	0.1	stopsuccess	0.0	Go_X	1.0
302.239	1.0	go	0.417	Go_X	1.0
304.764	1.0	go	0.309	Go_O	1.0
307.288	1.0	go	0.427	Go_O	1.0
309.812	1.0	go	0.362	Go_X	1.0
312.336	1.0	go	0.406	Go_X	1.0
314.86	1.0	go	0.267	Go_O	1.0
317.384	0.15	stopsuccess	0.0	Go_O	1.0
319.909	1.0	go	0.359	Go_O	0.0
322.433	1.0	go	0.43	Go_X	1.0
324.957	1.0	go	0.326	Go_O	1.0
327.481	1.0	go	0.411	Go_X	1.0
330.005	1.0	go	0.346	Go_X	1.0
332.53	0.2	stopsuccess	0.0	Go_X	1.0
335.054	1.0	go	0.34	Go_O	1.0
337.578	1.0	go	0.33	Go_X	1.0
340.102	1.0	go	0.42	Go_O	1.0
342.626	1.0	go	0.502	Go_X	1.0
345.15	0.25	stopfail	0.326	Go_O	0.0
347.675	1.0	go	0.459	Go_O	1.0
350.199	1.0	go	0.443	Go_X	1.0
352.723	0.2	stopsuccess	0.0	Go_X	1.0
355.247	1.0	go	0.376	Go_O	1.0
357.771	0.25	stopfail	0.395	Go_O	0.0
360.296	1.0	go	0.281	Go_O	1.0
362.82	1.0	go	0.331	Go_X	1.0
365.344	1.0	go	0.444	Go_X	1.0
367.868	1.0	go	0.565	Go_O	1.0
370.392	1.0	go	0.279	Go_O	0.0
372.916	1.0	go	0.88	Go_X	1.0
375.441	1.0	go	0.602	Go_X	1.0
377.965	0.2	stopsuccess	0.0	Go_X	1.0
380.489	1.0	go	0.279	Go_O	1.0
383.013	1.0	go	0.436	Go_O	1.0
385.537	1.0	go	0.322	Go_X	1.0
388.062	0.25	stopsuccess	0.0	Go_O	1.0
390.586	1.0	go	0.397	Go_X	1.0
393.11	1.0	go	0.296	Go_O	1.0
395.634	1.0	go	0.419	Go_O	1.0
398.158	1.0	go	0.34	Go_X	1.0
400.682	0.3	stopfail	0.414	Go_X	0.0
403.207	1.0	go	0.397	Go_X	1.0
405.731	1.0	go	0.325	Go_O	1.0
408.255	0.25	stopfail	0.342	Go_O	0.0
410.779	1.0	go	0.513	Go_X	1.0
413.303	1.0	go	0.522	Go_O	1.0
415.828	0.2	stopfail	0.4	Go_X	0.0
418.352	1.0	go	0.451	Go_X	1.0
420.876	1.0	go	0.345	Go_O	1.0
423.4	0.15	stopsuccess	0.0	Go_O	1.0
425.924	1.0	go	0.356	Go_O	1.0
428.448	1.0	go	0.359	Go_X	1.0
430.973	1.0	go	0.314	Go_X	1.0
433.497	1.0	go	0.428	Go_O	1.0
436.021	1.0	go	0.49	Go_X	1.0
438.545	1.0	go	0.694	Go_O	1.0
441.069	0.2	stopsuccess	0.0	Go_X	1.0
443.594	1.0	go	0.466	Go_X	1.0
446.118	0.25	stopsuccess	0.0	Go_O	1.0
448.642	1.0	go	0.621	Go_O	1.0
451.166	1.0	go	0.499	Go_X	1.0
453.69	1.0	go	0.399	Go_O	1.0
456.214	1.0	go	0.343	Go_O	1.0
458.739	1.0	go	0.343	Go_X	1.0
461.263	0.3	stopfail	0.416	Go_X	0.0
463.787	1.0	go	0.368	Go_O	1.0
466.311	1.0	go	0.4	Go_X	1.0
468.835	1.0	go	0.448	Go_X	1.0
471.36	0.25	stopfail	0.34	Go_O	0.0
473.884	0.2	stopsuccess	0.0	Go_X	1.0
476.408	0.25	stopsuccess	0.0	Go_O	1.0
478.932	1.0	go	0.273	Go_O	1.0
481.456	0.3	stopfail	0.277	Go_X	0.0
483.98	1.0	go	0.324	Go_O	1.0
486.505	1.0	go	0.266	Go_X	1.0
489.029	1.0	go	0.57	Go_O	1.0
491.553	1.0	go	0.361	Go_X	1.0
494.077	1.0	go	0.426	Go_X	1.0
496.601	1.0	go	0.416	Go_O	1.0
499.126	1.0	go	0.429	Go_X	1.0
501.65	1.0	go	0.447	Go_O	1.0
504.174	0.25	stopsuccess	0.0	Go_O	1.0
506.698	1.0	go	0.481	Go_O	1.0
509.222	1.0	go	0.412	Go_X	1.0
511.746	0.3	stopfail	0.372	Go_X	0.0
514.271	1.0	go	0.275	Go_O	1.0
516.795	1.0	go	0.484	Go_X	1.0
519.319	1.0	go	0.279	Go_X	1.0
521.843	1.0	go	0.354	Go_O	1.0
524.367	1.0	go	0.446	Go_X	1.0
526.892	0.25	stopfail	0.399	Go_O	0.0
529.416	1.0	go	0.278	Go_O	1.0
531.94	1.0	go	0.262	Go_X	1.0
534.464	1.0	go	0.301	Go_O	1.0
536.988	0.2	stopfail	0.298	Go_X	0.0
539.512	1.0	go	0.321	Go_O	1.0
542.037	0.15	stopfail	0.315	Go_O	0.0
544.561	1.0	go	0.375	Go_X	1.0
547.085	1.0	go	0.302	Go_O	1.0
549.609	1.0	go	0.445	Go_X	1.0
552.133	1.0	go	0.4	Go_O	0.0
554.658	1.0	go	0.423	Go_X	1.0
557.182	1.0	go	0.395	Go_X	1.0
559.706	1.0	go	0.265	Go_O	1.0
562.23	0.1	stopsuccess	0.0	Go_X	1.0
564.754	1.0	go	0.328	Go_O	1.0
567.278	1.0	go	0.428	Go_X	1.0
569.803	1.0	go	0.441	Go_X	1.0
572.327	1.0	go	0.448	Go_O	1.0
574.851	0.15	stopsuccess	0.0	Go_O	1.0
577.375	1.0	go	0.283	Go_O	1.0
579.899	0.2	stopfail	0.236	Go_X	0.0
582.424	1.0	go	0.314	Go_X	1.0
584.948	1.0	go	0.311	Go_O	1.0
587.472	0.15	stopsuccess	0.0	Go_O	1.0
589.996	1.0	go	0.357	Go_X	1.0
592.52	1.0	go	0.496	Go_O	1.0
595.045	1.0	go	0.329	Go_X	1.0
597.569	1.0	go	0.573	Go_X	1.0
600.093	1.0	go	0.358	Go_O	1.0
602.617	1.0	go	0.314	Go_X	1.0
605.141	1.0	go	0.308	Go_O	1.0
607.665	1.0	go	0.194	Go_O	0.0
610.19	1.0	go	0.293	Go_X	1.0
612.714	1.0	go	0.288	Go_O	1.0
615.238	0.2	stopsuccess	0.0	Go_X	1.0
617.762	1.0	go	0.338	Go_X	1.0
620.286	1.0	go	0.247	Go_O	1.0
622.811	0.25	stopfail	0.343	Go_O	0.0
625.335	1.0	go	0.364	Go_X	1.0
627.859	0.2	stopsuccess	0.0	Go_X	1.0
630.383	1.0	go	0.257	Go_O	1.0
632.907	1.0	go	0.379	Go_X	1.0
635.431	0.25	stopfail	0.332	Go_O	0.0
637.956	1.0	go	0.405	Go_O	1.0
640.48	0.2	stopfail	0.27	Go_X	0.0
643.004	1.0	go	0.461	Go_X	1.0
645.528	1.0	go	0.471	Go_X	1.0
648.052	1.0	go	0.359	Go_O	1.0
650.577	0.15	stopsuccess	0.0	Go_O	1.0
653.101	1.0	go	0.452	Go_X	1.0
655.625	1.0	go	0.294	Go_O	1.0
658.149	1.0	go	0.239	Go_X	1.0
660.673	1.0	go	0.248	Go_O	1.0
663.197	0.2	stopsuccess	0.0	Go_X	1.0
665.722	1.0	go	0.421	Go_O	1.0
668.246	1.0	go	0.277	Go_X	1.0
670.77	0.25	stopfail	0.29	Go_O	0.0
673.294	1.0	go	0.375	Go_X	1.0
675.818	1.0	go	0.576	Go_O	1.0
678.343	1.0	go	0.367	Go_X	1.0
680.867	1.0	go	0.478	Go_O	1.0
683.391	0.2	stopsuccess	0.0	Go_X	1.0
685.915	1.0	go	0.542	Go_O	1.0
688.439	0.25	stopfail	0.339	Go_O	0.0
690.963	1.0	go	0.457	Go_X	1.0
693.488	1.0	go	0.307	Go_X	1.0
696.012	0.2	stopsuccess	0.0	Go_X	1.0
698.536	1.0	go	0.338	Go_O	1.0
701.06	1.0	go	0.0	Go_X	0.0
703.584	1.0	go	0.361	Go_O	1.0
706.109	1.0	go	0.418	Go_O	1.0
708.633	0.25	stopsuccess	0.0	Go_O	1.0
711.157	1.0	go	0.683	Go_X	1.0
713.681	0.3	stopsuccess	0.0	Go_X	1.0
716.205	1.0	go	0.48	Go_O	1.0
718.729	1.0	go	0.505	Go_X	1.0
721.254	1.0	go	0.481	Go_X	1.0
723.778	1.0	go	0.38	Go_O	1.0
726.302	1.0	go	0.287	Go_X	1.0
728.826	1.0	go	0.418	Go_O	1.0
731.35	0.35	stopfail	0.385	Go_O	0.0
733.875	1.0	go	0.273	Go_X	1.0
736.399	1.0	go	0.435	Go_O	1.0
738.923	0.3	stopfail	0.369	Go_X	0.0
741.447	1.0	go	0.375	Go_X	1.0
743.971	1.0	go	0.377	Go_O	1.0
746.495	0.25	stopsuccess	0.0	Go_O	1.0
749.02	1.0	go	0.0	Go_O	0.0
751.544	1.0	go	0.571	Go_X	1.0
754.068	1.0	go	0.713	Go_X	1.0
756.592	1.0	go	0.422	Go_O	1.0
759.116	0.3	stopfail	0.324	Go_X	0.0
761.641	1.0	go	0.279	Go_O	1.0
764.165	0.25	stopfail	0.379	Go_O	0.0
766.689	1.0	go	0.301	Go_X	1.0
769.213	1.0	go	0.383	Go_O	1.0
771.737	1.0	go	0.324	Go_X	1.0
774.261	1.0	go	0.366	Go_O	1.0
776.786	1.0	go	0.433	Go_X	0.0
779.31	0.2	stopsuccess	0.0	Go_X	1.0
781.834	1.0	go	0.314	Go_X	1.0
784.358	1.0	go	0.38	Go_O	1.0
786.882	0.25	stopfail	0.39	Go_O	0.0
789.407	0.2	stopsuccess	0.0	Go_X	1.0
791.931	1.0	go	0.686	Go_X	1.0
794.455	1.0	go	0.435	Go_O	1.0
796.979	1.0	go	0.32	Go_X	1.0
799.503	1.0	go	0.321	Go_O	1.0
802.027	0.25	stopsuccess	0.0	Go_O	1.0
804.552	1.0	go	0.307	Go_X	1.0
