onset	duration	trial_type	response_time	stim_file	accuracy
71.206	1.0	go	0.0	Go_O	0.0
73.798	1.0	go	0.412	Go_X	1.0
76.322	1.0	go	0.682	Go_X	1.0
78.846	1.0	go	0.284	Go_O	1.0
81.37	1.0	go	0.645	Go_X	1.0
83.894	1.0	go	0.488	Go_O	1.0
86.419	0.25	stopsuccess	0.0	Go_O	1.0
88.943	1.0	go	0.534	Go_O	1.0
91.467	0.3	stopsuccess	0.0	Go_X	1.0
93.991	1.0	go	0.626	Go_X	1.0
96.515	1.0	go	0.485	Go_O	1.0
99.04	1.0	go	0.566	Go_X	1.0
101.564	0.35	stopfail	0.465	Go_O	0.0
104.088	1.0	go	0.485	Go_X	1.0
106.612	1.0	go	0.532	Go_O	1.0
109.136	0.3	stopsuccess	0.0	Go_X	1.0
111.661	0.35	stopsuccess	0.0	Go_O	1.0
114.185	1.0	go	0.628	Go_O	1.0
116.709	1.0	go	0.661	Go_X	1.0
119.233	0.4	stopsuccess	0.0	Go_X	1.0
121.757	1.0	go	0.522	Go_X	1.0
124.282	1.0	go	0.414	Go_O	1.0
126.806	0.45	stopfail	0.478	Go_O	0.0
129.33	1.0	go	0.842	Go_O	1.0
131.854	1.0	go	0.425	Go_X	1.0
134.378	0.4	stopsuccess	0.0	Go_X	1.0
136.903	1.0	go	0.413	Go_X	1.0
139.427	1.0	go	0.615	Go_O	1.0
141.951	0.45	stopfail	0.601	Go_O	0.0
144.475	1.0	go	0.591	Go_O	1.0
146.999	1.0	go	0.531	Go_X	1.0
149.524	1.0	go	0.692	Go_X	1.0
152.048	1.0	go	0.539	Go_O	1.0
154.572	1.0	go	0.583	Go_O	1.0
157.096	0.4	stopsuccess	0.0	Go_X	1.0
159.62	1.0	go	0.597	Go_X	1.0
162.145	1.0	go	0.554	Go_O	1.0
164.669	1.0	go	0.62	Go_X	1.0
167.193	1.0	go	0.873	Go_O	1.0
169.717	1.0	go	0.538	Go_X	1.0
172.241	0.45	stopfail	0.645	Go_O	0.0
174.766	1.0	go	0.527	Go_X	1.0
177.29	1.0	go	0.621	Go_O	1.0
179.814	1.0	go	0.569	Go_O	1.0
182.338	1.0	go	0.546	Go_X	1.0
184.862	1.0	go	0.684	Go_O	1.0
187.387	1.0	go	0.493	Go_X	1.0
189.911	0.4	stopfail	0.552	Go_X	0.0
192.435	1.0	go	0.727	Go_X	1.0
194.959	1.0	go	0.504	Go_O	1.0
197.483	0.35	stopsuccess	0.0	Go_O	1.0
200.008	1.0	go	0.489	Go_X	1.0
202.532	0.4	stopfail	0.537	Go_X	0.0
205.056	0.35	stopsuccess	0.0	Go_O	1.0
207.58	1.0	go	0.558	Go_O	1.0
210.104	1.0	go	0.616	Go_O	1.0
212.629	1.0	go	0.435	Go_X	1.0
215.153	1.0	go	0.46	Go_O	1.0
217.677	0.4	stopsuccess	0.0	Go_X	1.0
220.201	1.0	go	0.593	Go_X	1.0
222.725	0.45	stopfail	0.447	Go_O	0.0
225.25	1.0	go	0.669	Go_X	1.0
227.774	1.0	go	0.81	Go_O	1.0
230.298	1.0	go	0.444	Go_X	1.0
232.822	1.0	go	0.585	Go_O	1.0
235.347	1.0	go	0.678	Go_O	1.0
237.871	1.0	go	0.255	Go_X	1.0
240.395	1.0	go	0.328	Go_X	1.0
242.919	1.0	go	0.494	Go_O	1.0
245.443	1.0	go	0.574	Go_X	1.0
247.968	0.4	stopfail	0.532	Go_X	0.0
250.492	1.0	go	0.345	Go_O	1.0
253.016	1.0	go	0.659	Go_O	1.0
255.54	1.0	go	0.653	Go_X	1.0
258.064	0.35	stopsuccess	0.0	Go_O	1.0
260.589	1.0	go	0.578	Go_O	1.0
263.113	1.0	go	0.36	Go_X	1.0
265.637	1.0	go	0.487	Go_X	1.0
268.161	1.0	go	0.666	Go_O	1.0
270.685	1.0	go	0.567	Go_X	1.0
273.21	1.0	go	0.827	Go_O	1.0
275.734	0.4	stopfail	0.611	Go_X	0.0
278.258	1.0	go	0.495	Go_O	1.0
280.782	1.0	go	0.721	Go_X	1.0
283.306	0.35	stopfail	0.559	Go_O	0.0
285.831	1.0	go	0.791	Go_X	1.0
288.355	1.0	go	0.67	Go_O	1.0
290.879	0.3	stopsuccess	0.0	Go_X	1.0
293.403	1.0	go	0.864	Go_O	1.0
295.927	0.35	stopsuccess	0.0	Go_O	1.0
298.452	1.0	go	0.0	Go_X	0.0
300.976	1.0	go	0.492	Go_X	1.0
303.5	1.0	go	0.396	Go_O	1.0
306.024	1.0	go	0.521	Go_O	1.0
308.548	1.0	go	0.923	Go_X	1.0
311.073	0.4	stopfail	0.491	Go_X	0.0
313.597	0.35	stopfail	0.529	Go_O	0.0
316.121	1.0	go	0.634	Go_O	1.0
318.645	1.0	go	0.517	Go_X	1.0
321.169	0.3	stopsuccess	0.0	Go_X	1.0
323.694	1.0	go	0.61	Go_O	1.0
326.218	1.0	go	0.751	Go_X	1.0
328.742	1.0	go	0.582	Go_O	1.0
331.266	1.0	go	0.578	Go_X	1.0
333.79	1.0	go	0.726	Go_O	1.0
336.315	1.0	go	0.637	Go_X	1.0
338.839	0.35	stopsuccess	0.0	Go_O	1.0
341.363	1.0	go	0.709	Go_X	1.0
343.887	1.0	go	0.826	Go_O	1.0
346.411	1.0	go	0.901	Go_X	1.0
348.936	1.0	go	0.557	Go_O	1.0
351.46	1.0	go	0.928	Go_O	1.0
353.984	0.4	stopsuccess	0.0	Go_X	1.0
356.508	1.0	go	0.615	Go_X	1.0
359.032	1.0	go	0.924	Go_O	1.0
361.557	1.0	go	0.715	Go_X	1.0
364.081	1.0	go	0.521	Go_X	1.0
366.605	0.45	stopsuccess	0.0	Go_O	1.0
369.129	1.0	go	0.656	Go_O	1.0
371.653	1.0	go	0.894	Go_O	1.0
374.178	0.5	stopsuccess	0.0	Go_X	1.0
376.702	1.0	go	0.876	Go_X	1.0
379.226	0.55	stopsuccess	0.0	Go_O	1.0
381.75	1.0	go	0.639	Go_X	1.0
384.274	1.0	go	0.709	Go_O	1.0
386.799	1.0	go	0.73	Go_X	1.0
389.323	1.0	go	0.783	Go_O	1.0
391.847	1.0	go	0.858	Go_O	1.0
394.371	1.0	go	0.606	Go_X	1.0
396.896	1.0	go	0.828	Go_X	1.0
399.42	0.6	stopfail	0.778	Go_X	0.0
401.944	1.0	go	0.928	Go_O	1.0
404.468	1.0	go	0.765	Go_X	1.0
406.992	1.0	go	0.639	Go_O	1.0
409.517	0.55	stopsuccess	0.0	Go_O	1.0
412.041	1.0	go	0.711	Go_O	1.0
414.565	1.0	go	0.537	Go_X	1.0
417.089	1.0	go	0.662	Go_O	1.0
419.613	1.0	go	0.393	Go_X	1.0
422.138	0.6	stopfail	0.553	Go_X	0.0
424.678	1.0	go	0.0	Go_O	0.0
427.203	1.0	go	0.538	Go_X	1.0
429.744	0.55	stopfail	0.305	Go_O	0.0
432.268	1.0	go	0.645	Go_O	1.0
434.792	1.0	go	0.498	Go_X	1.0
437.316	0.5	stopfail	0.142	Go_X	0.0
439.84	1.0	go	0.805	Go_X	1.0
442.365	1.0	go	0.411	Go_O	1.0
444.889	0.45	stopsuccess	0.0	Go_O	1.0
447.413	1.0	go	0.803	Go_O	1.0
449.937	1.0	go	0.736	Go_X	1.0
452.461	1.0	go	0.867	Go_O	1.0
454.986	1.0	go	0.677	Go_X	1.0
457.51	1.0	go	0.777	Go_O	1.0
460.034	1.0	go	0.0	Go_X	0.0
462.558	0.5	stopsuccess	0.0	Go_X	1.0
465.082	1.0	go	0.757	Go_X	1.0
467.607	0.55	stopfail	0.769	Go_O	0.0
470.131	1.0	go	0.741	Go_O	1.0
472.655	1.0	go	0.406	Go_X	1.0
475.179	1.0	go	0.514	Go_O	1.0
477.703	1.0	go	0.52	Go_X	1.0
480.228	1.0	go	0.329	Go_O	1.0
482.752	0.5	stopfail	0.33	Go_X	0.0
485.276	1.0	go	0.802	Go_X	1.0
487.8	1.0	go	0.458	Go_O	1.0
490.324	1.0	go	0.791	Go_X	1.0
492.849	0.45	stopfail	0.705	Go_O	0.0
495.39	0.4	stopfail	0.416	Go_X	0.0
497.914	0.35	stopfail	0.337	Go_O	0.0
500.438	1.0	go	0.636	Go_O	1.0
502.962	0.3	stopfail	0.337	Go_X	0.0
505.486	1.0	go	0.515	Go_O	1.0
508.011	1.0	go	0.694	Go_X	1.0
510.535	1.0	go	0.775	Go_X	1.0
513.059	1.0	go	0.641	Go_O	1.0
515.583	1.0	go	0.714	Go_O	1.0
518.107	1.0	go	0.692	Go_X	1.0
520.632	1.0	go	0.634	Go_O	1.0
523.156	1.0	go	0.523	Go_X	1.0
525.68	0.25	stopsuccess	0.0	Go_O	1.0
528.204	1.0	go	0.835	Go_O	1.0
530.728	1.0	go	0.803	Go_X	1.0
533.253	0.3	stopsuccess	0.0	Go_X	1.0
535.777	1.0	go	0.764	Go_O	1.0
538.301	1.0	go	0.889	Go_X	1.0
540.825	1.0	go	0.709	Go_O	1.0
543.349	1.0	go	0.765	Go_X	1.0
545.874	1.0	go	0.0	Go_X	0.0
548.398	0.35	stopsuccess	0.0	Go_O	1.0
550.922	1.0	go	0.688	Go_O	1.0
553.446	1.0	go	0.87	Go_O	1.0
555.97	1.0	go	0.613	Go_X	1.0
558.495	0.4	stopsuccess	0.0	Go_X	1.0
561.019	1.0	go	0.768	Go_O	1.0
563.543	0.45	stopsuccess	0.0	Go_O	1.0
566.067	1.0	go	0.791	Go_X	1.0
568.591	1.0	go	0.0	Go_X	0.0
571.116	1.0	go	0.826	Go_O	1.0
573.64	1.0	go	0.703	Go_X	1.0
576.164	1.0	go	0.672	Go_O	1.0
578.688	1.0	go	0.748	Go_X	1.0
581.212	1.0	go	0.673	Go_O	1.0
583.737	0.5	stopfail	0.552	Go_X	0.0
586.261	1.0	go	0.0	Go_O	0.0
588.785	1.0	go	0.626	Go_X	1.0
591.309	1.0	go	0.0	Go_X	0.0
593.833	1.0	go	0.949	Go_O	1.0
596.358	0.45	stopfail	0.732	Go_O	0.0
598.882	1.0	go	0.773	Go_O	1.0
601.406	0.4	stopfail	0.609	Go_X	0.0
603.93	1.0	go	0.638	Go_X	1.0
606.455	1.0	go	0.442	Go_O	1.0
608.979	0.35	stopfail	0.475	Go_O	0.0
611.503	1.0	go	0.494	Go_X	1.0
614.027	1.0	go	0.715	Go_O	1.0
616.551	1.0	go	0.499	Go_X	1.0
619.076	1.0	go	0.752	Go_X	1.0
621.6	1.0	go	0.827	Go_O	1.0
624.124	1.0	go	0.61	Go_X	1.0
626.648	1.0	go	0.725	Go_O	1.0
629.172	1.0	go	0.506	Go_X	1.0
631.697	1.0	go	0.637	Go_O	1.0
634.221	1.0	go	0.817	Go_O	1.0
636.745	0.3	stopsuccess	0.0	Go_X	1.0
639.269	1.0	go	0.874	Go_X	1.0
641.793	1.0	go	0.723	Go_X	1.0
644.318	0.35	stopfail	0.55	Go_O	0.0
646.842	1.0	go	0.67	Go_O	1.0
649.366	0.3	stopsuccess	0.0	Go_X	1.0
651.89	1.0	go	0.702	Go_X	1.0
654.414	1.0	go	0.501	Go_O	1.0
656.939	0.35	stopfail	0.633	Go_O	0.0
659.463	1.0	go	0.843	Go_O	1.0
661.987	0.3	stopsuccess	0.0	Go_X	1.0
664.511	1.0	go	0.658	Go_X	1.0
667.035	1.0	go	0.567	Go_X	1.0
669.56	1.0	go	0.911	Go_O	1.0
672.084	0.35	stopsuccess	0.0	Go_O	1.0
674.608	1.0	go	0.876	Go_X	1.0
677.132	1.0	go	0.742	Go_O	1.0
679.656	1.0	go	0.812	Go_O	1.0
682.181	1.0	go	0.79	Go_X	1.0
684.705	0.4	stopsuccess	0.0	Go_X	1.0
687.229	1.0	go	0.77	Go_X	1.0
689.753	1.0	go	0.786	Go_O	1.0
692.277	0.45	stopsuccess	0.0	Go_O	1.0
694.802	1.0	go	0.785	Go_O	1.0
697.326	1.0	go	0.753	Go_X	1.0
699.85	1.0	go	0.0	Go_X	0.0
702.374	1.0	go	0.724	Go_O	1.0
704.898	0.5	stopsuccess	0.0	Go_X	1.0
707.423	1.0	go	0.813	Go_X	1.0
709.947	0.55	stopfail	0.853	Go_O	0.0
712.471	1.0	go	0.832	Go_O	1.0
714.995	1.0	go	0.555	Go_O	1.0
717.519	0.5	stopsuccess	0.0	Go_X	1.0
720.044	1.0	go	0.901	Go_X	1.0
722.568	1.0	go	0.0	Go_X	0.0
725.092	1.0	go	0.451	Go_O	1.0
727.616	1.0	go	0.66	Go_X	1.0
730.14	0.55	stopsuccess	0.0	Go_O	1.0
732.665	1.0	go	0.685	Go_O	1.0
735.189	0.6	stopsuccess	0.0	Go_X	1.0
737.713	1.0	go	0.581	Go_X	1.0
740.237	1.0	go	0.792	Go_O	1.0
742.761	1.0	go	0.807	Go_X	1.0
745.286	1.0	go	0.703	Go_O	1.0
747.81	1.0	go	0.599	Go_X	0.0
750.334	1.0	go	0.837	Go_O	1.0
752.858	0.65	stopfail	0.663	Go_O	0.0
755.399	1.0	go	0.719	Go_O	1.0
757.923	1.0	go	0.0	Go_X	0.0
760.448	0.6	stopfail	0.498	Go_X	0.0
762.972	1.0	go	0.672	Go_O	1.0
765.496	1.0	go	0.747	Go_X	1.0
768.02	0.55	stopfail	0.753	Go_O	0.0
770.544	1.0	go	0.833	Go_O	1.0
773.069	1.0	go	0.685	Go_X	1.0
775.593	1.0	go	0.802	Go_X	1.0
778.117	1.0	go	0.968	Go_O	1.0
780.641	0.5	stopsuccess	0.0	Go_X	1.0
783.165	1.0	go	0.549	Go_O	1.0
785.69	0.55	stopsuccess	0.0	Go_O	1.0
788.214	1.0	go	0.712	Go_X	1.0
790.738	1.0	go	0.798	Go_O	1.0
793.262	1.0	go	0.599	Go_X	1.0
795.786	1.0	go	0.753	Go_X	1.0
798.311	1.0	go	0.477	Go_O	1.0
800.835	0.6	stopfail	0.916	Go_X	0.0
803.359	1.0	go	0.582	Go_O	1.0
805.883	1.0	go	0.738	Go_X	1.0
808.407	0.55	stopfail	0.697	Go_O	0.0
810.932	0.5	stopsuccess	0.0	Go_X	1.0
813.456	1.0	go	0.966	Go_X	1.0
815.98	1.0	go	0.923	Go_O	1.0
818.504	1.0	go	0.446	Go_O	1.0
821.028	1.0	go	0.924	Go_X	1.0
823.553	0.55	stopfail	0.638	Go_O	0.0
826.077	1.0	go	0.809	Go_O	1.0
