frame	onset	duration	trial_type	event_type	response_type	response_time	stim_file	accuracy
0	80.519		loss-reward	ImageDisplay1		0.0		
0	82.742	0.75	loss-reward	StartDisplay				
0	83.495		loss-reward	ImageDisplay2		0.0		
0	86.504	1.6	loss-reward	ChoiceDisplay	1	0.868	1	1
0	87.39	0.732	loss-reward	ChosenDisplay		0.0		
0	88.108	0.25	loss-reward	TurnDisplay				
0	88.359	0.75	loss-reward	OutcomeDisplay				
1	89.111		win-reward	ImageDisplay1		0.0		
1	91.351	0.75	win-reward	StartDisplay				
1	92.104		win-reward	ImageDisplay2		0.0		
1	95.113	1.6	win-reward	ChoiceDisplay	1	1.223	1	1
1	96.35	0.377	win-reward	ChosenDisplay		0.0		
1	96.784	0.25	win-reward	TurnDisplay				
1	96.968	0.75	win-reward	OutcomeDisplay				
2	97.721		loss-reward	ImageDisplay1		0.0		
2	99.71	0.75	loss-reward	StartDisplay				
2	100.462		loss-reward	ImageDisplay2		0.0		
2	103.722	1.6	loss-reward	ChoiceDisplay	1	1.055	1	1
2	104.792	0.545	loss-reward	ChosenDisplay		0.0		
2	105.327	0.25	loss-reward	TurnDisplay				
2	105.577	0.75	loss-reward	OutcomeDisplay				
3	106.33		win-noreward	ImageDisplay1		0.0		
3	108.319	0.75	win-noreward	StartDisplay				
3	109.071		win-noreward	ImageDisplay2		0.0		
3	112.331	1.6	win-noreward	ChoiceDisplay	1	1.205	1	1
3	113.551	0.395	win-noreward	ChosenDisplay		0.0		
3	113.936	0.25	win-noreward	TurnDisplay				
3	114.186	0.75	win-noreward	OutcomeDisplay				
4	114.939		win-reward	ImageDisplay1		0.0		
4	116.928	0.75	win-reward	StartDisplay				
4	117.68		win-reward	ImageDisplay2		0.0		
4	120.94	1.6	win-reward	ChoiceDisplay	1	0.829	1	1
4	121.792	0.771	win-reward	ChosenDisplay		0.0		
4	122.545	0.25	win-reward	TurnDisplay				
4	122.795	0.75	win-reward	OutcomeDisplay				
5	123.548		win-reward	ImageDisplay1		0.0		
5	125.537	0.75	win-reward	StartDisplay				
5	126.289		win-reward	ImageDisplay2		0.0		
5	129.549	1.6	win-reward	ChoiceDisplay	1	1.362	1	1
5	130.936	0.238	win-reward	ChosenDisplay		0.0		
5	131.154	0.25	win-reward	TurnDisplay				
5	131.404	0.75	win-reward	OutcomeDisplay				
6	132.157		control-noreward	ImageDisplay1		0.0		
6	134.397	0.75	control-noreward	StartDisplay				
6	135.149		control-noreward	ImageDisplay2		0.0		
6	138.158	1.6	control-noreward	ChoiceDisplay	1	0.995	1	1
6	139.178	0.605	control-noreward	ChosenDisplay		0.0		
6	139.763	0.25	control-noreward	TurnDisplay				
6	140.013	0.75	control-noreward	OutcomeDisplay				
7	140.766		loss-noreward	ImageDisplay1		0.0		
7	143.006	0.75	loss-noreward	StartDisplay				
7	143.758		loss-noreward	ImageDisplay2		0.0		
7	146.767	1.6	loss-noreward	ChoiceDisplay	1	1.432	1	1
7	148.221	0.168	loss-noreward	ChosenDisplay		0.0		
7	148.372	0.25	loss-noreward	TurnDisplay				
7	148.623	0.75	loss-noreward	OutcomeDisplay				
8	149.375		control-reward	ImageDisplay1		0.0		
8	151.364	0.75	control-reward	StartDisplay				
8	152.116		control-reward	ImageDisplay2		0.0		
8	155.376	1.6	control-reward	ChoiceDisplay	1	1.322	1	1
8	156.713	0.278	control-reward	ChosenDisplay		0.0		
8	156.981	0.25	control-reward	TurnDisplay				
8	157.248	0.75	control-reward	OutcomeDisplay				
9	157.984		control-noreward	ImageDisplay1		0.0		
9	160.224	0.75	control-noreward	StartDisplay				
9	160.976		control-noreward	ImageDisplay2		0.0		
9	163.985	1.6	control-noreward	ChoiceDisplay	1	1.376	1	1
9	165.389	0.224	control-noreward	ChosenDisplay		0.0		
9	165.59	0.25	control-noreward	TurnDisplay				
9	165.841	0.75	control-noreward	OutcomeDisplay				
10	166.593		control-noreward	ImageDisplay1		0.0		
10	168.582	0.75	control-noreward	StartDisplay				
10	169.334		control-noreward	ImageDisplay2		0.0		
10	172.594	1.6	control-noreward	ChoiceDisplay	1	0.818	1	1
10	173.43	0.782	control-noreward	ChosenDisplay		0.0		
10	174.199	0.25	control-noreward	TurnDisplay				
10	174.45	0.75	control-noreward	OutcomeDisplay				
11	175.202		loss-reward	ImageDisplay1		0.0		
11	177.442	0.75	loss-reward	StartDisplay				
11	178.194		loss-reward	ImageDisplay2		0.0		
11	181.203	1.6	loss-reward	ChoiceDisplay	1	0.566	1	1
11	181.788	1.034	loss-reward	ChosenDisplay		0.0		
11	182.808	0.25	loss-reward	TurnDisplay				
11	183.059	0.75	loss-reward	OutcomeDisplay				
12	183.811		loss-noreward	ImageDisplay1		0.0		
12	185.8	0.75	loss-noreward	StartDisplay				
12	186.552		loss-noreward	ImageDisplay2		0.0		
12	189.812	1.6	loss-noreward	ChoiceDisplay	1	1.196	1	1
12	191.032	0.404	loss-noreward	ChosenDisplay		0.0		
12	191.417	0.25	loss-noreward	TurnDisplay				
12	191.668	0.75	loss-noreward	OutcomeDisplay				
13	192.42		loss-noreward	ImageDisplay1		0.0		
13	194.409	0.75	loss-noreward	StartDisplay				
13	195.161		loss-noreward	ImageDisplay2		0.0		
13	198.421	1.6	loss-noreward	ChoiceDisplay	1	1.406	1	1
13	199.842	0.194	loss-noreward	ChosenDisplay		0.0		
13	200.026	0.25	loss-noreward	TurnDisplay				
13	200.277	0.75	loss-noreward	OutcomeDisplay				
14	201.029		loss-reward	ImageDisplay1		0.0		
14	203.018	0.75	loss-reward	StartDisplay				
14	203.77		loss-reward	ImageDisplay2		0.0		
14	207.03	1.6	loss-reward	ChoiceDisplay	1	1.218	1	1
14	208.267	0.382	loss-reward	ChosenDisplay		0.0		
14	208.635	0.25	loss-reward	TurnDisplay				
14	208.886	0.75	loss-reward	OutcomeDisplay				
15	209.638		loss-reward	ImageDisplay1		0.0		
15	211.627	0.75	loss-reward	StartDisplay				
15	212.38		loss-reward	ImageDisplay2		0.0		
15	215.639	1.6	loss-reward	ChoiceDisplay	1	0.823	1	1
15	216.475	0.777	loss-reward	ChosenDisplay		0.0		
15	217.244	0.25	loss-reward	TurnDisplay				
15	217.495	0.75	loss-reward	OutcomeDisplay				
16	218.247		control-reward	ImageDisplay1		0.0		
16	220.236	0.75	control-reward	StartDisplay				
16	220.989		control-reward	ImageDisplay2		0.0		
16	224.248	1.6	control-reward	ChoiceDisplay	1	0.909	1	1
16	225.184	0.691	control-reward	ChosenDisplay		0.0		
16	225.853	0.25	control-reward	TurnDisplay				
16	226.104	0.75	control-reward	OutcomeDisplay				
17	226.856		control-reward	ImageDisplay1		0.0		
17	228.845	0.75	control-reward	StartDisplay				
17	229.598		control-reward	ImageDisplay2		0.0		
17	232.857	1.6	control-reward	ChoiceDisplay	1	1.135	1	1
17	234.011	0.465	control-reward	ChosenDisplay		0.0		
17	234.462	0.25	control-reward	TurnDisplay				
17	234.713	0.75	control-reward	OutcomeDisplay				
18	235.465		win-noreward	ImageDisplay1		0.0		
18	237.705	0.75	win-noreward	StartDisplay				
18	238.457		win-noreward	ImageDisplay2		0.0		
18	241.466	1.6	win-noreward	ChoiceDisplay	1	1.299	1	1
18	242.787	0.301	win-noreward	ChosenDisplay		0.0		
18	243.071	0.25	win-noreward	TurnDisplay				
18	243.322	0.75	win-noreward	OutcomeDisplay				
19	244.074		control-noreward	ImageDisplay1		0.0		
19	246.314	0.75	control-noreward	StartDisplay				
19	247.066		control-noreward	ImageDisplay2		0.0		
19	250.075	1.6	control-noreward	ChoiceDisplay	1	0.566	1	1
19	250.66	1.034	control-noreward	ChosenDisplay		0.0		
19	251.68	0.25	control-noreward	TurnDisplay				
19	251.931	0.75	control-noreward	OutcomeDisplay				
20	252.683		loss-reward	ImageDisplay1		0.0		
20	254.923	0.75	loss-reward	StartDisplay				
20	255.675		loss-reward	ImageDisplay2		0.0		
20	258.684	1.6	loss-reward	ChoiceDisplay	1	1.004	1	1
20	259.704	0.596	loss-reward	ChosenDisplay		0.0		
20	260.289	0.25	loss-reward	TurnDisplay				
20	260.54	0.75	loss-reward	OutcomeDisplay				
21	261.292		control-reward	ImageDisplay1		0.0		
21	263.532	0.75	control-reward	StartDisplay				
21	264.284		control-reward	ImageDisplay2		0.0		
21	267.293	1.6	control-reward	ChoiceDisplay	1	1.086	1	1
21	268.397	0.514	control-reward	ChosenDisplay		0.0		
21	268.898	0.25	control-reward	TurnDisplay				
21	269.149	0.75	control-reward	OutcomeDisplay				
22	269.901		win-reward	ImageDisplay1		0.0		
22	272.141	0.75	win-reward	StartDisplay				
22	272.894		win-reward	ImageDisplay2		0.0		
22	275.903	1.6	win-reward	ChoiceDisplay	1	0.772	1	1
22	276.688	0.828	win-reward	ChosenDisplay		0.0		
22	277.507	0.25	win-reward	TurnDisplay				
22	277.758	0.75	win-reward	OutcomeDisplay				
23	278.51		win-noreward	ImageDisplay1		0.0		
23	280.75	0.75	win-noreward	StartDisplay				
23	281.503		win-noreward	ImageDisplay2		0.0		
23	284.512	1.6	win-noreward	ChoiceDisplay	1	0.564	1	1
23	285.097	1.036	win-noreward	ChosenDisplay		0.0		
23	286.116	0.25	win-noreward	TurnDisplay				
23	286.367	0.75	win-noreward	OutcomeDisplay				
24	287.119		control-noreward	ImageDisplay1		0.0		
24	289.359	0.75	control-noreward	StartDisplay				
24	290.112		control-noreward	ImageDisplay2		0.0		
24	293.121	1.6	control-noreward	ChoiceDisplay	1	1.134	1	1
24	294.274	0.466	control-noreward	ChosenDisplay		0.0		
24	294.725	0.25	control-noreward	TurnDisplay				
24	294.976	0.75	control-noreward	OutcomeDisplay				
25	295.728		loss-noreward	ImageDisplay1		0.0		
25	297.718	0.75	loss-noreward	StartDisplay				
25	298.47		loss-noreward	ImageDisplay2		0.0		
25	301.73	1.6	loss-noreward	ChoiceDisplay	1	0.744	1	1
25	302.499	0.856	loss-noreward	ChosenDisplay		0.0		
25	303.334	0.25	loss-noreward	TurnDisplay				
25	303.585	0.75	loss-noreward	OutcomeDisplay				
26	304.337		loss-noreward	ImageDisplay1		0.0		
26	306.577	0.75	loss-noreward	StartDisplay				
26	307.33		loss-noreward	ImageDisplay2		0.0		
26	310.339	1.6	loss-noreward	ChoiceDisplay	1	0.553	1	1
26	310.907	1.047	loss-noreward	ChosenDisplay		0.0		
26	311.943	0.25	loss-noreward	TurnDisplay				
26	312.194	0.75	loss-noreward	OutcomeDisplay				
27	312.946		control-reward	ImageDisplay1		0.0		
27	314.936	0.75	control-reward	StartDisplay				
27	315.688		control-reward	ImageDisplay2		0.0		
27	318.948	1.6	control-reward	ChoiceDisplay	1	0.877	1	1
27	319.85	0.723	control-reward	ChosenDisplay		0.0		
27	320.552	0.25	control-reward	TurnDisplay				
27	320.803	0.75	control-reward	OutcomeDisplay				
28	321.555		loss-noreward	ImageDisplay1		0.0		
28	323.795	0.75	loss-noreward	StartDisplay				
28	324.548		loss-noreward	ImageDisplay2		0.0		
28	327.557	1.6	loss-noreward	ChoiceDisplay	1	0.628	1	1
28	328.209	0.972	loss-noreward	ChosenDisplay		0.0		
28	329.162	0.25	loss-noreward	TurnDisplay				
28	329.412	0.75	loss-noreward	OutcomeDisplay				
29	330.165		loss-noreward	ImageDisplay1		0.0		
29	332.405	0.75	loss-noreward	StartDisplay				
29	333.157		loss-noreward	ImageDisplay2		0.0		
29	336.166	1.6	loss-noreward	ChoiceDisplay	1	1.056	1	1
29	337.236	0.544	loss-noreward	ChosenDisplay		0.0		
29	337.771	0.25	loss-noreward	TurnDisplay				
29	338.021	0.75	loss-noreward	OutcomeDisplay				
30	338.774		win-reward	ImageDisplay1		0.0		
30	341.014	0.75	win-reward	StartDisplay				
30	341.766		win-reward	ImageDisplay2		0.0		
30	344.775	1.6	win-reward	ChoiceDisplay	1	0.645	1	1
30	345.443	0.955	win-reward	ChosenDisplay		0.0		
30	346.38	0.25	win-reward	TurnDisplay				
30	346.63	0.75	win-reward	OutcomeDisplay				
31	347.383		control-noreward	ImageDisplay1		0.0		
31	349.623	0.75	control-noreward	StartDisplay				
31	350.375		control-noreward	ImageDisplay2		0.0		
31	353.384	1.6	control-noreward	ChoiceDisplay	1	0.914	1	1
31	354.32	0.686	control-noreward	ChosenDisplay		0.0		
31	354.989	0.25	control-noreward	TurnDisplay				
31	355.239	0.75	control-noreward	OutcomeDisplay				
32	355.992		control-reward	ImageDisplay1		0.0		
32	358.232	0.75	control-reward	StartDisplay				
32	358.984		control-reward	ImageDisplay2		0.0		
32	361.993	1.6	control-reward	ChoiceDisplay	1	0.888	1	1
32	362.896	0.712	control-reward	ChosenDisplay		0.0		
32	363.598	0.25	control-reward	TurnDisplay				
32	363.848	0.75	control-reward	OutcomeDisplay				
33	364.601		loss-reward	ImageDisplay1		0.0		
33	366.59	0.75	loss-reward	StartDisplay				
33	367.342		loss-reward	ImageDisplay2		0.0		
33	370.602	1.6	loss-reward	ChoiceDisplay	1	0.825	1	1
33	371.454	0.775	loss-reward	ChosenDisplay		0.0		
33	372.207	0.25	loss-reward	TurnDisplay				
33	372.457	0.75	loss-reward	OutcomeDisplay				
34	373.21		win-noreward	ImageDisplay1		0.0		
34	375.45	0.75	win-noreward	StartDisplay				
34	376.202		win-noreward	ImageDisplay2		0.0		
34	379.211	1.6	win-noreward	ChoiceDisplay	1	0.679	1	1
34	379.913	0.921	win-noreward	ChosenDisplay		0.0		
34	380.816	0.25	win-noreward	TurnDisplay				
34	381.066	0.75	win-noreward	OutcomeDisplay				
35	381.819		loss-reward	ImageDisplay1		0.0		
35	383.808	0.75	loss-reward	StartDisplay				
35	384.56		loss-reward	ImageDisplay2		0.0		
35	387.82	1.6	loss-reward	ChoiceDisplay	1	0.689	1	1
35	388.522	0.911	loss-reward	ChosenDisplay		0.0		
35	389.425	0.25	loss-reward	TurnDisplay				
35	389.676	0.75	loss-reward	OutcomeDisplay				
36	390.428		control-reward	ImageDisplay1		0.0		
36	392.668	0.75	control-reward	StartDisplay				
36	393.42		control-reward	ImageDisplay2		0.0		
36	396.429	1.6	control-reward	ChoiceDisplay	1	0.676	1	1
36	397.131	0.924	control-reward	ChosenDisplay		0.0		
36	398.034	0.25	control-reward	TurnDisplay				
36	398.285	0.75	control-reward	OutcomeDisplay				
37	399.037		loss-reward	ImageDisplay1		0.0		
37	401.026	0.75	loss-reward	StartDisplay				
37	401.778		loss-reward	ImageDisplay2		0.0		
37	405.038	1.6	loss-reward	ChoiceDisplay	1	0.702	1	1
37	405.757	0.898	loss-reward	ChosenDisplay		0.0		
37	406.643	0.25	loss-reward	TurnDisplay				
37	406.894	0.75	loss-reward	OutcomeDisplay				
38	407.646		loss-reward	ImageDisplay1		0.0		
38	409.886	0.75	loss-reward	StartDisplay				
38	410.638		loss-reward	ImageDisplay2		0.0		
38	413.647	1.6	loss-reward	ChoiceDisplay	1	0.77	1	1
38	414.433	0.83	loss-reward	ChosenDisplay		0.0		
38	415.252	0.25	loss-reward	TurnDisplay				
38	415.503	0.75	loss-reward	OutcomeDisplay				
39	416.255		loss-reward	ImageDisplay1		0.0		
39	418.244	0.75	loss-reward	StartDisplay				
39	418.996		loss-reward	ImageDisplay2		0.0		
39	422.256	1.6	loss-reward	ChoiceDisplay	1	1.028	1	1
39	423.309	0.572	loss-reward	ChosenDisplay		0.0		
39	423.861	0.25	loss-reward	TurnDisplay				
39	424.112	0.75	loss-reward	OutcomeDisplay				
40	424.864		control-noreward	ImageDisplay1		0.0		
40	426.853	0.75	control-noreward	StartDisplay				
40	427.605		control-noreward	ImageDisplay2		0.0		
40	430.865	1.6	control-noreward	ChoiceDisplay	1	0.886	1	1
40	431.768	0.714	control-noreward	ChosenDisplay		0.0		
40	432.47	0.25	control-noreward	TurnDisplay				
40	432.721	0.75	control-noreward	OutcomeDisplay				
41	433.473		control-noreward	ImageDisplay1		0.0		
41	435.462	0.75	control-noreward	StartDisplay				
41	436.214		control-noreward	ImageDisplay2		0.0		
41	439.474	1.6	control-noreward	ChoiceDisplay	1	1.069	1	1
41	440.561	0.531	control-noreward	ChosenDisplay		0.0		
41	441.079	0.25	control-noreward	TurnDisplay				
41	441.33	0.75	control-noreward	OutcomeDisplay				
42	442.082		win-reward	ImageDisplay1		0.0		
42	444.071	0.75	win-reward	StartDisplay				
42	444.824		win-reward	ImageDisplay2		0.0		
42	448.083	1.6	win-reward	ChoiceDisplay	1	1.23	1	1
42	449.337	0.37	win-reward	ChosenDisplay		0.0		
42	449.688	0.25	win-reward	TurnDisplay				
42	449.939	0.75	win-reward	OutcomeDisplay				
43	450.691		loss-noreward	ImageDisplay1		0.0		
43	452.68	0.75	loss-noreward	StartDisplay				
43	453.433		loss-noreward	ImageDisplay2		0.0		
43	456.692	1.6	loss-noreward	ChoiceDisplay	1	0.705	1	1
43	457.411	0.895	loss-noreward	ChosenDisplay		0.0		
43	458.297	0.25	loss-noreward	TurnDisplay				
43	458.548	0.75	loss-noreward	OutcomeDisplay				
44	459.3		win-noreward	ImageDisplay1		0.0		
44	461.289	0.75	win-noreward	StartDisplay				
44	462.042		win-noreward	ImageDisplay2		0.0		
44	465.301	1.6	win-noreward	ChoiceDisplay	1	0.736	1	1
44	466.054	0.864	win-noreward	ChosenDisplay		0.0		
44	466.906	0.25	win-noreward	TurnDisplay				
44	467.157	0.75	win-noreward	OutcomeDisplay				
45	467.909		control-reward	ImageDisplay1		0.0		
45	470.149	0.75	control-reward	StartDisplay				
45	470.901		control-reward	ImageDisplay2		0.0		
45	473.91	1.6	control-reward	ChoiceDisplay	1	0.87	1	1
45	474.796	0.73	control-reward	ChosenDisplay		0.0		
45	475.515	0.25	control-reward	TurnDisplay				
45	475.766	0.75	control-reward	OutcomeDisplay				
46	476.518		control-noreward	ImageDisplay1		0.0		
46	478.507	0.75	control-noreward	StartDisplay				
46	479.26		control-noreward	ImageDisplay2		0.0		
46	482.519	1.6	control-noreward	ChoiceDisplay	1	0.627	1	1
46	483.171	0.973	control-noreward	ChosenDisplay		0.0		
46	484.124	0.25	control-noreward	TurnDisplay				
46	484.375	0.75	control-noreward	OutcomeDisplay				
47	485.127		control-noreward	ImageDisplay1		0.0		
47	487.116	0.75	control-noreward	StartDisplay				
47	487.869		control-noreward	ImageDisplay2		0.0		
47	491.128	1.6	control-noreward	ChoiceDisplay		0.0		
47	492.716	0.0	control-noreward	ChosenDisplay		0.0		
47	492.733	0.25	control-noreward	TurnDisplay				
47	492.967	0.75	control-noreward	OutcomeDisplay				
48	493.719		control-noreward	ImageDisplay1		0.0		
48	495.725	0.75	control-noreward	StartDisplay				
48	496.478		control-noreward	ImageDisplay2		0.0		
48	499.721	1.6	control-noreward	ChoiceDisplay	1	0.548	1	1
48	500.289	1.052	control-noreward	ChosenDisplay		0.0		
48	501.326	0.25	control-noreward	TurnDisplay				
48	501.576	0.75	control-noreward	OutcomeDisplay				
49	502.329		win-reward	ImageDisplay1		0.0		
49	504.318	0.75	win-reward	StartDisplay				
49	505.07		win-reward	ImageDisplay2		0.0		
49	508.33	1.6	win-reward	ChoiceDisplay	1	0.553	1	1
49	508.898	1.047	win-reward	ChosenDisplay		0.0		
49	509.935	0.25	win-reward	TurnDisplay				
49	510.185	0.75	win-reward	OutcomeDisplay				
50	510.938		win-noreward	ImageDisplay1		0.0		
50	513.178	0.75	win-noreward	StartDisplay				
50	513.93		win-noreward	ImageDisplay2		0.0		
50	516.939	1.6	win-noreward	ChoiceDisplay	1	0.602	1	1
50	517.557	0.998	win-noreward	ChosenDisplay		0.0		
50	518.544	0.25	win-noreward	TurnDisplay				
50	518.794	0.75	win-noreward	OutcomeDisplay				
51	519.547		control-noreward	ImageDisplay1		0.0		
51	521.536	0.75	control-noreward	StartDisplay				
51	522.288		control-noreward	ImageDisplay2		0.0		
51	525.548	1.6	control-noreward	ChoiceDisplay	1	0.73	1	1
51	526.3	0.87	control-noreward	ChosenDisplay		0.0		
51	527.153	0.25	control-noreward	TurnDisplay				
51	527.403	0.75	control-noreward	OutcomeDisplay				
52	528.156		win-noreward	ImageDisplay1		0.0		
52	530.396	0.75	win-noreward	StartDisplay				
52	531.148		win-noreward	ImageDisplay2		0.0		
52	534.157	1.6	win-noreward	ChoiceDisplay	1	0.659	1	1
52	534.842	0.941	win-noreward	ChosenDisplay		0.0		
52	535.762	0.25	win-noreward	TurnDisplay				
52	536.012	0.75	win-noreward	OutcomeDisplay				
53	536.765		win-noreward	ImageDisplay1		0.0		
53	538.754	0.75	win-noreward	StartDisplay				
53	539.506		win-noreward	ImageDisplay2		0.0		
53	542.766	1.6	win-noreward	ChoiceDisplay	1	0.988	1	1
53	543.769	0.612	win-noreward	ChosenDisplay		0.0		
53	544.371	0.25	win-noreward	TurnDisplay				
53	544.621	0.75	win-noreward	OutcomeDisplay				
54	545.374		loss-reward	ImageDisplay1		0.0		
54	547.363	0.75	loss-reward	StartDisplay				
54	548.115		loss-reward	ImageDisplay2		0.0		
54	551.375	1.6	loss-reward	ChoiceDisplay	1	0.627	1	1
54	552.027	0.973	loss-reward	ChosenDisplay		0.0		
54	552.98	0.25	loss-reward	TurnDisplay				
54	553.231	0.75	loss-reward	OutcomeDisplay				
55	553.983		loss-reward	ImageDisplay1		0.0		
55	556.223	0.75	loss-reward	StartDisplay				
55	556.975		loss-reward	ImageDisplay2		0.0		
55	559.984	1.6	loss-reward	ChoiceDisplay	1	0.971	1	1
55	560.97	0.629	loss-reward	ChosenDisplay		0.0		
55	561.589	0.25	loss-reward	TurnDisplay				
55	561.84	0.75	loss-reward	OutcomeDisplay				
56	562.592		control-noreward	ImageDisplay1		0.0		
56	564.832	0.75	control-noreward	StartDisplay				
56	565.584		control-noreward	ImageDisplay2		0.0		
56	568.593	1.6	control-noreward	ChoiceDisplay	1	0.654	1	1
56	569.262	0.946	control-noreward	ChosenDisplay		0.0		
56	570.198	0.25	control-noreward	TurnDisplay				
56	570.449	0.75	control-noreward	OutcomeDisplay				
57	571.201		win-noreward	ImageDisplay1		0.0		
57	573.441	0.75	win-noreward	StartDisplay				
57	574.193		win-noreward	ImageDisplay2		0.0		
57	577.202	1.6	win-noreward	ChoiceDisplay	1	0.676	1	1
57	577.904	0.924	win-noreward	ChosenDisplay		0.0		
57	578.807	0.25	win-noreward	TurnDisplay				
57	579.058	0.75	win-noreward	OutcomeDisplay				
58	579.81		win-reward	ImageDisplay1		0.0		
58	581.799	0.75	win-reward	StartDisplay				
58	582.551		win-reward	ImageDisplay2		0.0		
58	585.811	1.6	win-reward	ChoiceDisplay	1	0.644	1	1
58	586.48	0.956	win-reward	ChosenDisplay		0.0		
58	587.416	0.25	win-reward	TurnDisplay				
58	587.667	0.75	win-reward	OutcomeDisplay				
59	588.419		win-noreward	ImageDisplay1		0.0		
59	590.408	0.75	win-noreward	StartDisplay				
59	591.16		win-noreward	ImageDisplay2		0.0		
59	594.42	1.6	win-noreward	ChoiceDisplay	1	0.456	1	1
59	594.905	1.144	win-noreward	ChosenDisplay		0.0		
59	596.025	0.25	win-noreward	TurnDisplay				
59	596.276	0.75	win-noreward	OutcomeDisplay				
60	597.028		loss-reward	ImageDisplay1		0.0		
60	599.268	0.75	loss-reward	StartDisplay				
60	600.02		loss-reward	ImageDisplay2		0.0		
60	603.029	1.6	loss-reward	ChoiceDisplay	1	0.653	1	1
60	603.698	0.947	loss-reward	ChosenDisplay		0.0		
60	604.634	0.25	loss-reward	TurnDisplay				
60	604.885	0.75	loss-reward	OutcomeDisplay				
61	605.637		win-reward	ImageDisplay1		0.0		
61	607.626	0.75	win-reward	StartDisplay				
61	608.378		win-reward	ImageDisplay2		0.0		
61	611.638	1.6	win-reward	ChoiceDisplay	1	0.805	1	1
61	612.457	0.795	win-reward	ChosenDisplay		0.0		
61	613.243	0.25	win-reward	TurnDisplay				
61	613.494	0.75	win-reward	OutcomeDisplay				
62	614.246		control-reward	ImageDisplay1		0.0		
62	616.235	0.75	control-reward	StartDisplay				
62	616.988		control-reward	ImageDisplay2		0.0		
62	620.247	1.6	control-reward	ChoiceDisplay	1	0.542	1	1
62	620.816	1.058	control-reward	ChosenDisplay		0.0		
62	621.852	0.25	control-reward	TurnDisplay				
62	622.103	0.75	control-reward	OutcomeDisplay				
63	622.855		loss-noreward	ImageDisplay1		0.0		
63	625.095	0.75	loss-noreward	StartDisplay				
63	625.847		loss-noreward	ImageDisplay2		0.0		
63	628.856	1.6	loss-noreward	ChoiceDisplay	1	0.759	1	1
63	629.642	0.841	loss-noreward	ChosenDisplay		0.0		
63	630.461	0.25	loss-noreward	TurnDisplay				
63	630.712	0.75	loss-noreward	OutcomeDisplay				
64	631.464		control-noreward	ImageDisplay1		0.0		
64	633.704	0.75	control-noreward	StartDisplay				
64	634.456		control-noreward	ImageDisplay2		0.0		
64	637.465	1.6	control-noreward	ChoiceDisplay	1	0.971	1	1
64	638.452	0.629	control-noreward	ChosenDisplay		0.0		
64	639.07	0.25	control-noreward	TurnDisplay				
64	639.321	0.75	control-noreward	OutcomeDisplay				
65	640.073		win-reward	ImageDisplay1		0.0		
65	642.062	0.75	win-reward	StartDisplay				
65	642.815		win-reward	ImageDisplay2		0.0		
65	646.074	1.6	win-reward	ChoiceDisplay	1	0.678	1	1
65	646.776	0.922	win-reward	ChosenDisplay		0.0		
65	647.679	0.25	win-reward	TurnDisplay				
65	647.93	0.75	win-reward	OutcomeDisplay				
66	648.682		loss-noreward	ImageDisplay1		0.0		
66	650.922	0.75	loss-noreward	StartDisplay				
66	651.674		loss-noreward	ImageDisplay2		0.0		
66	654.683	1.6	loss-noreward	ChoiceDisplay	1	0.686	1	1
66	655.385	0.914	loss-noreward	ChosenDisplay		0.0		
66	656.288	0.25	loss-noreward	TurnDisplay				
66	656.539	0.75	loss-noreward	OutcomeDisplay				
67	657.291		loss-noreward	ImageDisplay1		0.0		
67	659.531	0.75	loss-noreward	StartDisplay				
67	660.283		loss-noreward	ImageDisplay2		0.0		
67	663.292	1.6	loss-noreward	ChoiceDisplay	1	0.724	1	1
67	664.045	0.876	loss-noreward	ChosenDisplay		0.0		
67	664.897	0.25	loss-noreward	TurnDisplay				
67	665.148	0.75	loss-noreward	OutcomeDisplay				
68	665.9		win-noreward	ImageDisplay1		0.0		
68	667.889	0.75	win-noreward	StartDisplay				
68	668.642		win-noreward	ImageDisplay2		0.0		
68	671.901	1.6	win-noreward	ChoiceDisplay	1	0.64	1	1
68	672.553	0.96	win-noreward	ChosenDisplay		0.0		
68	673.506	0.25	win-noreward	TurnDisplay				
68	673.757	0.75	win-noreward	OutcomeDisplay				
69	674.509		control-reward	ImageDisplay1		0.0		
69	676.499	0.75	control-reward	StartDisplay				
69	677.251		control-reward	ImageDisplay2		0.0		
69	680.511	1.6	control-reward	ChoiceDisplay	1	1.014	1	1
69	681.547	0.586	control-reward	ChosenDisplay		0.0		
69	682.115	0.25	control-reward	TurnDisplay				
69	682.366	0.75	control-reward	OutcomeDisplay				
70	683.118		control-reward	ImageDisplay1		0.0		
70	685.108	0.75	control-reward	StartDisplay				
70	685.86		control-reward	ImageDisplay2		0.0		
70	689.12	1.6	control-reward	ChoiceDisplay	1	0.702	1	1
70	689.838	0.898	control-reward	ChosenDisplay		0.0		
70	690.724	0.25	control-reward	TurnDisplay				
70	690.975	0.75	control-reward	OutcomeDisplay				
71	691.727		control-reward	ImageDisplay1		0.0		
71	693.967	0.75	control-reward	StartDisplay				
71	694.72		control-reward	ImageDisplay2		0.0		
71	697.729	1.6	control-reward	ChoiceDisplay	1	0.763	1	1
71	698.514	0.837	control-reward	ChosenDisplay		0.0		
71	699.333	0.25	control-reward	TurnDisplay				
71	699.584	0.75	control-reward	OutcomeDisplay				
72	700.336		loss-noreward	ImageDisplay1		0.0		
72	702.326	0.75	loss-noreward	StartDisplay				
72	703.078		loss-noreward	ImageDisplay2		0.0		
72	706.338	1.6	loss-noreward	ChoiceDisplay	1	0.87	1	1
72	707.224	0.73	loss-noreward	ChosenDisplay		0.0		
72	707.942	0.25	loss-noreward	TurnDisplay				
72	708.193	0.75	loss-noreward	OutcomeDisplay				
73	708.945		control-reward	ImageDisplay1		0.0		
73	711.185	0.75	control-reward	StartDisplay				
73	711.938		control-reward	ImageDisplay2		0.0		
73	714.947	1.6	control-reward	ChoiceDisplay	1	0.761	1	1
73	715.732	0.839	control-reward	ChosenDisplay		0.0		
73	716.551	0.25	control-reward	TurnDisplay				
73	716.802	0.75	control-reward	OutcomeDisplay				
74	717.554		win-noreward	ImageDisplay1		0.0		
74	719.544	0.75	win-noreward	StartDisplay				
74	720.296		win-noreward	ImageDisplay2		0.0		
74	723.556	1.6	win-noreward	ChoiceDisplay	1	0.756	1	1
74	724.325	0.844	win-noreward	ChosenDisplay		0.0		
74	725.16	0.25	win-noreward	TurnDisplay				
74	725.411	0.75	win-noreward	OutcomeDisplay				
75	726.163		win-reward	ImageDisplay1		0.0		
75	728.403	0.75	win-reward	StartDisplay				
75	729.156		win-reward	ImageDisplay2		0.0		
75	732.165	1.6	win-reward	ChoiceDisplay	1	0.576	1	1
75	732.767	1.024	win-reward	ChosenDisplay		0.0		
75	733.77	0.25	win-reward	TurnDisplay				
75	734.02	0.75	win-reward	OutcomeDisplay				
76	734.773		win-reward	ImageDisplay1		0.0		
76	736.762	0.75	win-reward	StartDisplay				
76	737.514		win-reward	ImageDisplay2		0.0		
76	740.774	1.6	win-reward	ChoiceDisplay	1	0.653	1	1
76	741.442	0.947	win-reward	ChosenDisplay		0.0		
76	742.379	0.25	win-reward	TurnDisplay				
76	742.629	0.75	win-reward	OutcomeDisplay				
77	743.382		win-noreward	ImageDisplay1		0.0		
77	745.371	0.75	win-noreward	StartDisplay				
77	746.123		win-noreward	ImageDisplay2		0.0		
77	749.383	1.6	win-noreward	ChoiceDisplay	1	0.661	1	1
77	750.068	0.939	win-noreward	ChosenDisplay		0.0		
77	750.988	0.25	win-noreward	TurnDisplay				
77	751.238	0.75	win-noreward	OutcomeDisplay				
78	751.991		loss-noreward	ImageDisplay1		0.0		
78	753.98	0.75	loss-noreward	StartDisplay				
78	754.732		loss-noreward	ImageDisplay2		0.0		
78	757.992	1.6	loss-noreward	ChoiceDisplay	1	0.558	1	1
78	758.577	1.042	loss-noreward	ChosenDisplay		0.0		
78	759.597	0.25	loss-noreward	TurnDisplay				
78	759.847	0.75	loss-noreward	OutcomeDisplay				
79	760.6		win-reward	ImageDisplay1		0.0		
79	762.84	0.75	win-reward	StartDisplay				
79	763.592		win-reward	ImageDisplay2		0.0		
79	766.601	1.6	win-reward	ChoiceDisplay	1	0.845	1	1
79	767.47	0.755	win-reward	ChosenDisplay		0.0		
79	768.206	0.25	win-reward	TurnDisplay				
79	768.456	0.75	win-reward	OutcomeDisplay				
80	769.209		loss-reward	ImageDisplay1		0.0		
80	771.449	0.75	loss-reward	StartDisplay				
80	772.201		loss-reward	ImageDisplay2		0.0		
80	775.21	1.6	loss-reward	ChoiceDisplay	1	0.654	1	1
80	775.879	0.946	loss-reward	ChosenDisplay		0.0		
80	776.815	0.25	loss-reward	TurnDisplay				
80	777.067	0.75	loss-reward	OutcomeDisplay				
81	777.818		win-reward	ImageDisplay1		0.0		
81	780.058	0.75	win-reward	StartDisplay				
81	780.81		win-reward	ImageDisplay2		0.0		
81	783.819	1.6	win-reward	ChoiceDisplay	1	0.551	1	1
81	784.387	1.049	win-reward	ChosenDisplay		0.0		
81	785.424	0.25	win-reward	TurnDisplay				
81	785.675	0.75	win-reward	OutcomeDisplay				
82	786.427		control-noreward	ImageDisplay1		0.0		
82	788.416	0.75	control-noreward	StartDisplay				
82	789.168		control-noreward	ImageDisplay2		0.0		
82	792.428	1.6	control-noreward	ChoiceDisplay	1	0.881	1	1
82	793.331	0.719	control-noreward	ChosenDisplay		0.0		
82	794.033	0.25	control-noreward	TurnDisplay				
82	794.284	0.75	control-noreward	OutcomeDisplay				
83	795.036		control-noreward	ImageDisplay1		0.0		
83	797.276	0.75	control-noreward	StartDisplay				
83	798.028		control-noreward	ImageDisplay2		0.0		
83	801.037	1.6	control-noreward	ChoiceDisplay	1	0.6	1	1
83	801.656	1.0	control-noreward	ChosenDisplay		0.0		
83	802.642	0.25	control-noreward	TurnDisplay				
83	802.893	0.75	control-noreward	OutcomeDisplay				
84	803.645		loss-reward	ImageDisplay1		0.0		
84	805.885	0.75	loss-reward	StartDisplay				
84	806.637		loss-reward	ImageDisplay2		0.0		
84	809.646	1.6	loss-reward	ChoiceDisplay	1	0.662	1	1
84	810.331	0.938	loss-reward	ChosenDisplay		0.0		
84	811.251	0.25	loss-reward	TurnDisplay				
84	811.502	0.75	loss-reward	OutcomeDisplay				
85	812.254		win-noreward	ImageDisplay1		0.0		
85	814.494	0.75	win-noreward	StartDisplay				
85	815.246		win-noreward	ImageDisplay2		0.0		
85	818.255	1.6	win-noreward	ChoiceDisplay	1	0.636	1	1
85	818.907	0.964	win-noreward	ChosenDisplay		0.0		
85	819.86	0.25	win-noreward	TurnDisplay				
85	820.111	0.75	win-noreward	OutcomeDisplay				
86	820.863		loss-reward	ImageDisplay1		0.0		
86	822.852	0.75	loss-reward	StartDisplay				
86	823.604		loss-reward	ImageDisplay2		0.0		
86	826.864	1.6	loss-reward	ChoiceDisplay	1	0.63	1	1
86	827.516	0.97	loss-reward	ChosenDisplay		0.0		
86	828.469	0.25	loss-reward	TurnDisplay				
86	828.72	0.75	loss-reward	OutcomeDisplay				
87	829.472		win-reward	ImageDisplay1		0.0		
87	831.461	0.75	win-reward	StartDisplay				
87	832.213		win-reward	ImageDisplay2		0.0		
87	835.473	1.6	win-reward	ChoiceDisplay	1	0.521	1	1
87	836.008	1.079	win-reward	ChosenDisplay		0.0		
87	837.078	0.25	win-reward	TurnDisplay				
87	837.329	0.75	win-reward	OutcomeDisplay				
88	838.081		win-reward	ImageDisplay1		0.0		
88	840.321	0.75	win-reward	StartDisplay				
88	841.073		win-reward	ImageDisplay2		0.0		
88	844.082	1.6	win-reward	ChoiceDisplay	1	0.669	1	1
88	844.768	0.931	win-reward	ChosenDisplay		0.0		
88	845.687	0.25	win-reward	TurnDisplay				
88	845.938	0.75	win-reward	OutcomeDisplay				
89	846.69		control-reward	ImageDisplay1		0.0		
89	848.93	0.75	control-reward	StartDisplay				
89	849.682		control-reward	ImageDisplay2		0.0		
89	852.691	1.6	control-reward	ChoiceDisplay	1	0.587	1	1
89	853.293	1.013	control-reward	ChosenDisplay		0.0		
89	854.296	0.25	control-reward	TurnDisplay				
89	854.547	0.75	control-reward	OutcomeDisplay				
90	855.299		loss-reward	ImageDisplay1		0.0		
90	857.539	0.75	loss-reward	StartDisplay				
90	858.291		loss-reward	ImageDisplay2		0.0		
90	861.3	1.6	loss-reward	ChoiceDisplay	1	0.526	1	1
90	861.852	1.074	loss-reward	ChosenDisplay		0.0		
90	862.905	0.25	loss-reward	TurnDisplay				
90	863.156	0.75	loss-reward	OutcomeDisplay				
91	863.908		loss-noreward	ImageDisplay1		0.0		
91	865.897	0.75	loss-noreward	StartDisplay				
91	866.65		loss-noreward	ImageDisplay2		0.0		
91	869.909	1.6	loss-noreward	ChoiceDisplay	1	1.078	1	1
91	871.013	0.522	loss-noreward	ChosenDisplay		0.0		
91	871.514	0.25	loss-noreward	TurnDisplay				
91	871.765	0.75	loss-noreward	OutcomeDisplay				
92	872.517		control-reward	ImageDisplay1		0.0		
92	874.506	0.75	control-reward	StartDisplay				
92	875.259		control-reward	ImageDisplay2		0.0		
92	878.518	1.6	control-reward	ChoiceDisplay	1	0.802	1	1
92	879.337	0.798	control-reward	ChosenDisplay		0.0		
92	880.123	0.25	control-reward	TurnDisplay				
92	880.374	0.75	control-reward	OutcomeDisplay				
93	881.126		control-reward	ImageDisplay1		0.0		
93	883.366	0.75	control-reward	StartDisplay				
93	884.118		control-reward	ImageDisplay2		0.0		
93	887.127	1.6	control-reward	ChoiceDisplay	1	0.485	1	1
93	887.629	1.115	control-reward	ChosenDisplay		0.0		
93	888.732	0.25	control-reward	TurnDisplay				
93	888.983	0.75	control-reward	OutcomeDisplay				
94	889.735		win-reward	ImageDisplay1		0.0		
94	891.975	0.75	win-reward	StartDisplay				
94	892.727		win-reward	ImageDisplay2		0.0		
94	895.736	1.6	win-reward	ChoiceDisplay	1	0.696	1	1
94	896.455	0.904	win-reward	ChosenDisplay		0.0		
94	897.341	0.25	win-reward	TurnDisplay				
94	897.592	0.75	win-reward	OutcomeDisplay				
95	898.344		win-reward	ImageDisplay1		0.0		
95	900.584	0.75	win-reward	StartDisplay				
95	901.336		win-reward	ImageDisplay2		0.0		
95	904.345	1.6	win-reward	ChoiceDisplay	1	0.664	1	1
95	905.031	0.936	win-reward	ChosenDisplay		0.0		
95	905.95	0.25	win-reward	TurnDisplay				
95	906.201	0.75	win-reward	OutcomeDisplay				
