onset	duration	trial_type	response_time	stim_file	accuracy
142.569	1.0	go	0.0	Go_X	0.0
145.093	1.0	go	0.683	Go_O	1.0
147.617	1.0	go	0.419	Go_X	1.0
150.141	1.0	go	0.308	Go_O	1.0
152.665	1.0	go	0.585	Go_X	1.0
155.19	1.0	go	0.205	Go_O	1.0
157.714	0.25	stop	0.336	Go_O	0.0
160.238	1.0	go	0.402	Go_O	1.0
162.762	0.2	stop	0.277	Go_X	0.0
165.286	1.0	go	0.38	Go_X	0.0
167.811	1.0	go	0.376	Go_X	1.0
170.335	1.0	go	0.399	Go_O	1.0
172.859	0.15	stop	0.0	Go_O	1.0
175.383	1.0	go	0.325	Go_X	1.0
177.907	1.0	go	0.44	Go_O	1.0
180.431	0.2	stop	0.442	Go_X	0.0
182.956	0.15	stop	0.0	Go_O	1.0
185.48	1.0	go	0.419	Go_X	1.0
188.004	1.0	go	0.561	Go_O	1.0
190.528	0.2	stop	0.0	Go_X	1.0
193.052	1.0	go	0.476	Go_X	1.0
195.577	1.0	go	0.345	Go_O	1.0
198.101	0.25	stop	0.358	Go_O	0.0
200.625	1.0	go	0.385	Go_X	1.0
203.149	1.0	go	0.393	Go_O	1.0
205.673	0.2	stop	0.401	Go_X	0.0
208.197	1.0	go	0.384	Go_O	1.0
210.722	1.0	go	0.44	Go_X	1.0
213.246	0.15	stop	0.263	Go_O	0.0
215.77	1.0	go	0.252	Go_X	1.0
218.294	1.0	go	0.226	Go_O	1.0
220.818	1.0	go	0.243	Go_O	0.0
223.343	1.0	go	0.253	Go_X	1.0
225.867	1.0	go	0.373	Go_X	1.0
228.391	0.1	stop	0.0	Go_X	1.0
230.915	1.0	go	0.268	Go_O	1.0
233.439	1.0	go	0.405	Go_X	1.0
235.963	1.0	go	0.392	Go_O	1.0
238.488	1.0	go	0.293	Go_X	1.0
241.012	1.0	go	0.271	Go_O	1.0
243.536	0.15	stop	0.0	Go_O	1.0
246.06	1.0	go	0.452	Go_X	1.0
248.584	1.0	go	0.285	Go_O	1.0
251.109	1.0	go	0.409	Go_X	1.0
253.633	1.0	go	0.288	Go_O	1.0
256.157	1.0	go	0.342	Go_X	1.0
258.681	1.0	go	0.402	Go_O	1.0
261.205	0.2	stop	0.0	Go_X	1.0
263.729	1.0	go	0.317	Go_X	1.0
266.254	1.0	go	0.344	Go_O	1.0
268.778	0.25	stop	0.405	Go_O	0.0
271.302	1.0	go	0.323	Go_X	1.0
273.826	0.2	stop	0.0	Go_X	1.0
276.35	0.25	stop	0.323	Go_O	0.0
278.875	1.0	go	0.512	Go_O	1.0
281.399	1.0	go	0.441	Go_X	1.0
283.923	1.0	go	0.443	Go_O	1.0
286.447	1.0	go	0.381	Go_X	1.0
288.971	0.2	stop	0.541	Go_X	0.0
291.495	1.0	go	0.294	Go_O	1.0
294.02	0.15	stop	0.0	Go_O	1.0
296.544	1.0	go	0.355	Go_O	0.0
299.068	1.0	go	0.243	Go_X	1.0
301.592	1.0	go	0.274	Go_O	1.0
304.116	1.0	go	0.447	Go_X	1.0
306.641	1.0	go	0.363	Go_X	1.0
309.165	1.0	go	0.338	Go_O	1.0
311.689	1.0	go	0.296	Go_O	0.0
314.213	1.0	go	0.298	Go_X	1.0
316.737	1.0	go	0.314	Go_O	1.0
319.261	0.2	stop	0.344	Go_X	0.0
321.786	1.0	go	0.372	Go_X	1.0
324.31	1.0	go	0.394	Go_O	1.0
326.834	1.0	go	0.349	Go_X	1.0
329.358	0.15	stop	0.262	Go_O	0.0
331.882	1.0	go	0.486	Go_X	1.0
334.407	1.0	go	0.606	Go_O	1.0
336.931	1.0	go	0.43	Go_O	1.0
339.455	1.0	go	0.347	Go_X	1.0
341.979	1.0	go	0.316	Go_O	1.0
344.503	1.0	go	0.339	Go_X	1.0
347.027	0.1	stop	0.0	Go_X	1.0
349.552	1.0	go	0.316	Go_O	1.0
352.076	1.0	go	0.38	Go_X	1.0
354.6	0.15	stop	0.0	Go_O	1.0
357.124	1.0	go	0.352	Go_O	1.0
359.648	1.0	go	0.352	Go_X	1.0
362.173	0.2	stop	0.0	Go_X	1.0
364.697	1.0	go	0.347	Go_O	0.0
367.221	0.25	stop	0.31	Go_O	0.0
369.745	1.0	go	0.441	Go_X	1.0
372.269	1.0	go	0.427	Go_X	1.0
374.794	1.0	go	0.405	Go_O	1.0
377.318	1.0	go	0.579	Go_O	1.0
379.842	1.0	go	0.366	Go_X	1.0
382.366	0.2	stop	0.368	Go_X	0.0
384.89	0.15	stop	0.265	Go_O	0.0
387.414	1.0	go	0.347	Go_O	1.0
389.939	1.0	go	0.374	Go_X	1.0
392.463	0.1	stop	0.0	Go_X	1.0
394.987	1.0	go	0.433	Go_X	1.0
397.511	1.0	go	0.347	Go_O	1.0
400.035	1.0	go	0.268	Go_X	1.0
402.56	1.0	go	0.366	Go_O	1.0
405.084	1.0	go	0.447	Go_O	1.0
407.608	1.0	go	0.495	Go_X	1.0
410.132	0.15	stop	0.3	Go_O	0.0
412.656	1.0	go	0.501	Go_O	1.0
415.18	1.0	go	0.565	Go_X	1.0
417.705	1.0	go	0.476	Go_O	1.0
420.229	1.0	go	0.357	Go_X	1.0
422.753	1.0	go	0.448	Go_X	1.0
425.277	0.1	stop	0.0	Go_X	1.0
427.801	1.0	go	0.445	Go_O	1.0
430.326	1.0	go	0.48	Go_O	1.0
432.85	1.0	go	0.27	Go_X	1.0
435.374	1.0	go	0.329	Go_X	0.0
437.898	0.15	stop	0.0	Go_O	1.0
440.422	1.0	go	0.564	Go_O	1.0
442.946	1.0	go	0.575	Go_O	1.0
445.471	0.2	stop	0.436	Go_X	0.0
447.995	1.0	go	0.424	Go_X	1.0
450.519	0.15	stop	0.33	Go_O	0.0
453.043	1.0	go	0.46	Go_X	1.0
455.567	1.0	go	0.441	Go_O	1.0
458.092	1.0	go	0.418	Go_O	1.0
460.616	1.0	go	0.357	Go_X	1.0
463.14	1.0	go	0.559	Go_X	1.0
465.664	1.0	go	0.372	Go_O	1.0
468.188	1.0	go	0.397	Go_O	1.0
470.712	0.1	stop	0.0	Go_X	1.0
473.237	1.0	go	0.408	Go_X	1.0
475.761	1.0	go	0.48	Go_X	1.0
478.285	1.0	go	0.396	Go_O	1.0
480.809	0.15	stop	0.0	Go_O	1.0
483.333	1.0	go	0.507	Go_X	1.0
485.858	1.0	go	0.272	Go_O	1.0
488.382	1.0	go	0.417	Go_O	1.0
490.906	1.0	go	0.408	Go_X	1.0
493.43	0.2	stop	0.0	Go_X	1.0
495.954	1.0	go	0.467	Go_X	1.0
498.478	1.0	go	0.516	Go_O	1.0
501.003	0.25	stop	0.0	Go_O	1.0
503.527	1.0	go	0.399	Go_X	1.0
506.051	1.0	go	0.558	Go_O	1.0
508.575	0.3	stop	0.406	Go_X	0.0
511.099	1.0	go	0.721	Go_O	1.0
513.624	1.0	go	0.47	Go_X	1.0
516.148	0.25	stop	0.41	Go_O	0.0
518.672	1.0	go	0.272	Go_X	1.0
521.196	1.0	go	0.808	Go_O	1.0
523.72	1.0	go	0.52	Go_X	1.0
526.244	1.0	go	0.503	Go_O	1.0
528.769	1.0	go	0.346	Go_X	1.0
531.293	1.0	go	0.465	Go_O	1.0
533.817	0.2	stop	0.0	Go_X	1.0
536.341	1.0	go	0.574	Go_O	1.0
538.865	0.25	stop	0.0	Go_O	1.0
541.39	1.0	go	0.39	Go_X	1.0
543.914	1.0	go	0.656	Go_O	0.0
546.438	1.0	go	0.426	Go_X	0.0
548.962	1.0	go	0.605	Go_X	1.0
551.486	1.0	go	0.378	Go_O	1.0
554.01	0.3	stop	0.396	Go_X	0.0
556.535	1.0	go	0.56	Go_X	1.0
559.059	1.0	go	0.574	Go_O	1.0
561.583	1.0	go	0.542	Go_X	1.0
564.107	0.25	stop	0.497	Go_O	0.0
566.631	0.2	stop	0.442	Go_X	0.0
569.156	0.15	stop	0.0	Go_O	1.0
571.68	1.0	go	0.326	Go_O	1.0
574.204	0.2	stop	0.378	Go_X	0.0
576.728	1.0	go	0.341	Go_O	1.0
579.252	1.0	go	0.492	Go_X	1.0
581.776	1.0	go	0.497	Go_X	1.0
584.301	1.0	go	0.378	Go_O	1.0
586.825	1.0	go	0.379	Go_O	0.0
589.349	1.0	go	0.674	Go_X	1.0
591.873	1.0	go	0.618	Go_X	1.0
594.397	1.0	go	0.541	Go_O	1.0
596.922	0.15	stop	0.0	Go_O	1.0
599.446	1.0	go	0.568	Go_O	1.0
601.97	1.0	go	0.541	Go_X	1.0
604.494	0.2	stop	0.0	Go_X	1.0
607.018	1.0	go	0.537	Go_O	1.0
609.542	1.0	go	0.62	Go_X	1.0
612.067	1.0	go	0.24	Go_O	1.0
614.591	1.0	go	0.35	Go_X	1.0
617.115	1.0	go	0.41	Go_O	1.0
619.639	0.25	stop	0.191	Go_O	0.0
622.163	1.0	go	0.595	Go_X	1.0
624.688	1.0	go	0.419	Go_X	1.0
627.212	1.0	go	0.434	Go_O	1.0
629.736	0.2	stop	0.0	Go_X	1.0
632.26	1.0	go	0.566	Go_X	1.0
634.784	0.25	stop	0.0	Go_O	1.0
637.308	1.0	go	0.466	Go_O	1.0
639.833	1.0	go	0.652	Go_O	0.0
642.357	1.0	go	0.624	Go_X	1.0
644.881	1.0	go	0.388	Go_O	1.0
647.405	1.0	go	0.433	Go_X	1.0
649.929	1.0	go	0.562	Go_O	1.0
652.454	1.0	go	0.432	Go_X	1.0
654.978	0.3	stop	0.0	Go_X	1.0
657.502	1.0	go	0.386	Go_X	1.0
660.026	1.0	go	0.486	Go_O	1.0
662.55	1.0	go	0.0	Go_O	0.0
665.074	1.0	go	0.331	Go_X	1.0
667.599	0.35	stop	0.0	Go_O	1.0
670.123	1.0	go	0.586	Go_O	0.0
672.647	0.4	stop	0.381	Go_X	0.0
675.171	1.0	go	0.552	Go_X	1.0
677.695	1.0	go	0.409	Go_X	1.0
680.22	0.35	stop	0.0	Go_O	1.0
682.744	1.0	go	0.592	Go_O	1.0
685.268	1.0	go	0.394	Go_X	1.0
687.792	1.0	go	0.305	Go_O	1.0
690.316	1.0	go	0.431	Go_X	1.0
692.841	1.0	go	0.32	Go_O	1.0
695.365	1.0	go	0.434	Go_O	0.0
697.889	1.0	go	0.312	Go_X	1.0
700.413	1.0	go	0.301	Go_O	1.0
702.937	1.0	go	0.31	Go_X	1.0
705.461	1.0	go	0.422	Go_O	0.0
707.986	0.4	stop	0.0	Go_X	1.0
710.51	1.0	go	0.629	Go_X	1.0
713.034	1.0	go	0.237	Go_O	1.0
715.558	0.45	stop	0.641	Go_O	0.0
718.082	1.0	go	0.486	Go_X	0.0
720.607	0.4	stop	0.613	Go_X	0.0
723.131	1.0	go	0.513	Go_O	1.0
725.655	1.0	go	0.499	Go_X	1.0
728.179	0.35	stop	0.631	Go_O	0.0
730.703	1.0	go	0.441	Go_X	1.0
733.227	0.3	stop	0.45	Go_X	0.0
735.752	1.0	go	0.327	Go_O	1.0
738.276	1.0	go	0.381	Go_O	1.0
740.8	1.0	go	0.416	Go_X	1.0
743.324	0.25	stop	0.0	Go_O	1.0
745.848	1.0	go	0.422	Go_O	1.0
748.373	1.0	go	0.409	Go_X	1.0
750.897	1.0	go	0.412	Go_O	1.0
753.421	1.0	go	0.462	Go_X	1.0
755.945	0.3	stop	0.383	Go_X	0.0
758.469	1.0	go	0.39	Go_X	1.0
760.993	1.0	go	0.382	Go_O	1.0
763.518	0.25	stop	0.365	Go_O	0.0
766.042	1.0	go	0.331	Go_X	1.0
768.566	1.0	go	0.55	Go_O	1.0
771.09	1.0	go	0.486	Go_O	0.0
773.614	1.0	go	0.438	Go_X	1.0
776.139	0.2	stop	0.428	Go_X	0.0
778.663	1.0	go	0.258	Go_O	1.0
781.187	0.15	stop	0.0	Go_O	1.0
783.711	1.0	go	0.452	Go_X	1.0
786.235	1.0	go	0.419	Go_O	1.0
788.759	0.2	stop	0.0	Go_X	1.0
791.284	1.0	go	0.35	Go_X	1.0
793.808	1.0	go	0.399	Go_X	1.0
796.332	1.0	go	0.469	Go_O	1.0
798.856	1.0	go	0.61	Go_X	1.0
801.38	0.25	stop	0.23	Go_O	0.0
803.905	1.0	go	0.346	Go_O	0.0
806.429	0.2	stop	0.29	Go_X	0.0
808.953	1.0	go	0.302	Go_X	1.0
811.477	1.0	go	0.563	Go_O	1.0
814.001	1.0	go	0.498	Go_O	1.0
816.525	1.0	go	0.325	Go_X	1.0
819.05	1.0	go	0.397	Go_X	1.0
821.574	1.0	go	0.433	Go_O	1.0
824.098	0.15	stop	0.0	Go_O	1.0
826.622	1.0	go	0.285	Go_O	0.0
829.146	1.0	go	0.343	Go_X	1.0
831.671	0.2	stop	0.0	Go_X	1.0
834.195	1.0	go	0.516	Go_X	1.0
836.719	1.0	go	0.525	Go_O	1.0
839.243	0.25	stop	0.45	Go_O	0.0
841.767	1.0	go	0.447	Go_X	1.0
844.291	1.0	go	0.306	Go_O	1.0
846.816	1.0	go	0.535	Go_O	1.0
849.34	1.0	go	0.341	Go_X	1.0
851.864	0.2	stop	0.0	Go_X	1.0
854.388	1.0	go	0.371	Go_O	0.0
856.912	0.25	stop	0.425	Go_O	0.0
859.437	1.0	go	0.603	Go_X	1.0
861.961	1.0	go	0.632	Go_O	1.0
864.485	1.0	go	0.358	Go_X	1.0
867.009	1.0	go	0.349	Go_X	1.0
869.533	1.0	go	0.378	Go_O	1.0
872.057	0.2	stop	0.346	Go_X	0.0
874.582	1.0	go	0.408	Go_X	1.0
877.106	1.0	go	0.329	Go_O	1.0
879.63	0.15	stop	0.185	Go_O	0.0
882.154	0.1	stop	0.0	Go_X	1.0
884.678	1.0	go	0.382	Go_O	1.0
887.203	1.0	go	0.238	Go_X	1.0
889.727	1.0	go	0.182	Go_X	0.0
892.251	1.0	go	0.192	Go_O	1.0
894.775	0.15	stop	0.205	Go_O	0.0
897.299	1.0	go	0.315	Go_X	1.0
