onset	duration	trial_type	response_time	stim_file	accuracy
294.284	1.0	go	0.632	Go_O	1.0
296.859	1.0	go	0.297	Go_X	1.0
299.383	1.0	go	0.28	Go_O	1.0
301.907	1.0	go	0.338	Go_X	1.0
304.431	1.0	go	0.412	Go_O	1.0
306.955	1.0	go	0.286	Go_X	1.0
309.48	0.25	stop	0.255	Go_O	0.0
312.004	1.0	go	0.519	Go_X	1.0
314.528	0.2	stop	0.0	Go_X	1.0
317.052	1.0	go	0.292	Go_O	1.0
319.576	1.0	go	0.431	Go_X	1.0
322.101	1.0	go	0.271	Go_O	1.0
324.625	0.25	stop	0.0	Go_O	1.0
327.149	1.0	go	0.429	Go_O	1.0
329.673	1.0	go	0.403	Go_X	1.0
332.197	0.3	stop	0.292	Go_X	0.0
334.722	0.25	stop	0.392	Go_O	0.0
337.246	1.0	go	0.707	Go_X	1.0
339.77	1.0	go	0.389	Go_O	1.0
342.294	0.2	stop	0.231	Go_X	0.0
344.818	1.0	go	0.393	Go_O	1.0
347.343	1.0	go	0.45	Go_X	1.0
349.867	0.15	stop	0.0	Go_O	1.0
352.391	1.0	go	0.483	Go_O	1.0
354.915	1.0	go	0.388	Go_X	1.0
357.439	0.2	stop	0.239	Go_X	0.0
359.964	1.0	go	0.285	Go_O	1.0
362.488	1.0	go	0.536	Go_X	1.0
365.012	0.15	stop	0.0	Go_O	1.0
367.536	1.0	go	0.291	Go_X	1.0
370.06	1.0	go	0.243	Go_O	1.0
372.585	1.0	go	0.459	Go_X	1.0
375.109	1.0	go	0.301	Go_O	1.0
377.633	1.0	go	0.352	Go_X	1.0
380.157	0.2	stop	0.0	Go_X	1.0
382.681	1.0	go	0.334	Go_O	1.0
385.206	1.0	go	0.488	Go_O	1.0
387.73	1.0	go	0.741	Go_X	1.0
390.254	1.0	go	0.232	Go_X	0.0
392.778	1.0	go	0.586	Go_O	1.0
395.302	0.25	stop	0.0	Go_O	1.0
397.827	1.0	go	0.219	Go_X	1.0
400.351	1.0	go	0.612	Go_O	1.0
402.875	1.0	go	0.568	Go_O	1.0
405.399	1.0	go	0.757	Go_X	1.0
407.923	1.0	go	0.274	Go_X	1.0
410.448	1.0	go	0.331	Go_O	0.0
412.972	0.3	stop	0.48	Go_X	0.0
415.496	1.0	go	0.457	Go_X	1.0
418.02	1.0	go	0.377	Go_O	1.0
420.545	0.25	stop	0.377	Go_O	0.0
423.069	1.0	go	0.533	Go_X	1.0
425.593	0.2	stop	0.408	Go_X	0.0
428.117	0.15	stop	0.328	Go_O	0.0
430.641	1.0	go	0.658	Go_O	1.0
433.166	1.0	go	0.336	Go_X	1.0
435.69	1.0	go	0.377	Go_O	1.0
438.214	1.0	go	0.498	Go_O	1.0
440.738	0.1	stop	0.27	Go_X	0.0
443.262	1.0	go	0.218	Go_X	0.0
445.787	0.05	stop	0.0	Go_O	1.0
448.311	1.0	go	0.587	Go_X	1.0
450.835	1.0	go	0.337	Go_O	1.0
453.359	1.0	go	0.578	Go_X	1.0
455.883	1.0	go	0.372	Go_O	1.0
458.408	1.0	go	0.58	Go_X	1.0
460.932	1.0	go	0.5	Go_O	1.0
463.456	1.0	go	0.484	Go_X	1.0
465.98	1.0	go	0.752	Go_O	0.0
468.504	1.0	go	0.404	Go_O	0.0
471.029	0.1	stop	0.0	Go_X	1.0
473.553	1.0	go	0.359	Go_X	1.0
476.077	1.0	go	0.423	Go_X	1.0
478.601	1.0	go	0.349	Go_O	0.0
481.125	0.15	stop	0.0	Go_O	1.0
483.65	1.0	go	0.485	Go_X	1.0
486.174	1.0	go	0.421	Go_O	1.0
488.698	1.0	go	0.605	Go_X	1.0
491.222	1.0	go	0.46	Go_O	1.0
493.746	1.0	go	0.673	Go_O	1.0
496.271	1.0	go	0.585	Go_X	1.0
498.795	0.2	stop	0.0	Go_X	1.0
501.319	1.0	go	0.446	Go_X	1.0
503.843	1.0	go	0.475	Go_O	1.0
506.367	0.25	stop	0.505	Go_O	0.0
508.892	1.0	go	0.305	Go_X	1.0
511.416	1.0	go	0.323	Go_O	1.0
513.94	0.2	stop	0.424	Go_X	0.0
516.464	1.0	go	0.5	Go_X	1.0
518.988	0.15	stop	0.234	Go_O	0.0
521.513	1.0	go	0.505	Go_O	1.0
524.037	1.0	go	0.602	Go_X	1.0
526.561	1.0	go	0.681	Go_O	1.0
529.085	1.0	go	0.41	Go_X	1.0
531.609	1.0	go	0.656	Go_O	1.0
534.134	0.1	stop	0.0	Go_X	1.0
536.658	0.15	stop	0.0	Go_O	1.0
539.182	1.0	go	0.497	Go_O	1.0
541.706	1.0	go	0.478	Go_X	1.0
544.23	0.2	stop	0.0	Go_X	1.0
546.755	1.0	go	0.691	Go_X	1.0
549.279	1.0	go	0.385	Go_O	1.0
551.803	1.0	go	0.497	Go_X	1.0
554.327	1.0	go	0.852	Go_O	1.0
556.851	1.0	go	0.903	Go_X	1.0
559.376	1.0	go	0.356	Go_O	1.0
561.9	0.25	stop	0.0	Go_O	1.0
564.424	1.0	go	0.4	Go_X	1.0
566.948	1.0	go	0.456	Go_O	1.0
569.472	1.0	go	0.324	Go_O	1.0
571.997	1.0	go	0.494	Go_X	1.0
574.521	1.0	go	0.463	Go_O	1.0
577.045	0.3	stop	0.478	Go_X	0.0
579.569	1.0	go	0.487	Go_X	1.0
582.094	1.0	go	0.461	Go_X	1.0
584.618	1.0	go	0.587	Go_O	1.0
587.142	1.0	go	0.314	Go_O	0.0
589.666	0.25	stop	0.416	Go_O	0.0
592.19	1.0	go	0.454	Go_X	1.0
594.715	1.0	go	0.509	Go_X	1.0
597.239	0.2	stop	0.0	Go_X	1.0
599.763	1.0	go	0.383	Go_O	1.0
602.287	0.25	stop	0.0	Go_O	1.0
604.811	1.0	go	0.53	Go_X	1.0
607.336	1.0	go	0.537	Go_O	1.0
609.86	1.0	go	0.478	Go_O	1.0
612.384	1.0	go	0.606	Go_X	1.0
614.908	1.0	go	0.454	Go_O	1.0
617.432	1.0	go	0.452	Go_X	1.0
619.957	1.0	go	0.895	Go_X	1.0
622.481	0.3	stop	0.511	Go_X	0.0
625.005	1.0	go	0.651	Go_O	1.0
627.529	1.0	go	0.51	Go_X	1.0
630.053	1.0	go	0.682	Go_O	1.0
632.578	0.25	stop	0.0	Go_O	1.0
635.102	1.0	go	0.32	Go_X	1.0
637.626	1.0	go	0.627	Go_O	1.0
640.15	1.0	go	0.0	Go_O	0.0
642.674	1.0	go	0.441	Go_X	1.0
645.199	0.3	stop	0.462	Go_X	0.0
647.723	1.0	go	0.414	Go_X	1.0
650.247	1.0	go	0.792	Go_O	1.0
652.771	0.25	stop	0.0	Go_O	1.0
655.295	1.0	go	0.0	Go_O	0.0
657.82	1.0	go	0.291	Go_X	1.0
660.344	0.3	stop	0.0	Go_X	1.0
662.868	1.0	go	0.348	Go_O	1.0
665.392	1.0	go	0.704	Go_X	1.0
667.916	0.35	stop	0.0	Go_O	1.0
670.441	1.0	go	0.524	Go_O	1.0
672.965	1.0	go	0.54	Go_X	1.0
675.489	1.0	go	0.421	Go_X	1.0
678.013	1.0	go	0.839	Go_O	1.0
680.537	1.0	go	0.0	Go_O	0.0
683.062	1.0	go	0.28	Go_X	1.0
685.586	0.4	stop	0.661	Go_X	0.0
688.11	1.0	go	0.732	Go_X	1.0
690.634	0.35	stop	0.0	Go_O	1.0
693.158	1.0	go	0.0	Go_O	0.0
695.683	1.0	go	0.544	Go_X	1.0
698.207	1.0	go	0.395	Go_O	1.0
700.731	1.0	go	0.432	Go_X	1.0
703.255	1.0	go	0.0	Go_O	0.0
705.779	0.4	stop	0.356	Go_X	0.0
708.304	1.0	go	0.46	Go_O	1.0
710.828	1.0	go	0.651	Go_X	1.0
713.352	1.0	go	0.596	Go_O	1.0
715.876	0.35	stop	0.508	Go_O	0.0
718.4	0.3	stop	0.0	Go_X	1.0
720.925	0.35	stop	0.0	Go_O	1.0
723.449	1.0	go	0.741	Go_X	1.0
725.973	0.4	stop	0.322	Go_X	0.0
728.497	1.0	go	0.416	Go_O	1.0
731.021	1.0	go	0.411	Go_X	1.0
733.546	1.0	go	0.456	Go_O	1.0
736.07	1.0	go	0.446	Go_X	1.0
738.594	1.0	go	0.528	Go_X	1.0
741.118	1.0	go	0.644	Go_O	1.0
743.642	1.0	go	0.78	Go_O	1.0
746.167	1.0	go	0.499	Go_X	1.0
748.691	0.35	stop	0.0	Go_O	1.0
751.215	1.0	go	0.271	Go_O	0.0
753.739	1.0	go	0.728	Go_X	1.0
756.264	0.4	stop	0.441	Go_X	0.0
758.788	1.0	go	0.87	Go_O	1.0
761.312	1.0	go	0.501	Go_X	1.0
763.836	1.0	go	0.254	Go_X	0.0
766.36	1.0	go	0.525	Go_O	1.0
768.885	1.0	go	0.751	Go_O	1.0
771.409	0.35	stop	0.0	Go_O	1.0
773.933	1.0	go	0.497	Go_X	1.0
776.457	1.0	go	0.505	Go_X	1.0
778.981	1.0	go	0.44	Go_O	1.0
781.506	0.4	stop	0.326	Go_X	0.0
784.03	1.0	go	0.762	Go_X	1.0
786.554	0.35	stop	0.461	Go_O	0.0
789.078	1.0	go	0.949	Go_O	1.0
791.602	1.0	go	0.0	Go_O	0.0
794.127	1.0	go	0.245	Go_X	1.0
796.651	1.0	go	0.0	Go_X	0.0
799.175	1.0	go	0.363	Go_O	1.0
801.699	1.0	go	0.0	Go_O	0.0
804.223	1.0	go	0.326	Go_X	1.0
806.748	0.3	stop	0.0	Go_X	1.0
809.288	1.0	go	0.45	Go_X	0.0
811.813	1.0	go	0.298	Go_O	1.0
814.337	1.0	go	0.318	Go_X	1.0
816.861	1.0	go	0.335	Go_O	0.0
819.385	0.35	stop	0.0	Go_O	1.0
821.91	1.0	go	0.24	Go_X	1.0
824.434	0.4	stop	0.542	Go_X	0.0
826.958	1.0	go	0.895	Go_O	0.0
829.482	1.0	go	0.491	Go_X	1.0
832.006	0.35	stop	0.0	Go_O	1.0
834.531	1.0	go	0.997	Go_O	1.0
837.055	1.0	go	0.318	Go_O	1.0
839.579	1.0	go	0.496	Go_X	1.0
842.103	1.0	go	0.809	Go_O	1.0
844.627	1.0	go	0.0	Go_X	0.0
847.152	1.0	go	0.499	Go_O	1.0
849.676	1.0	go	0.442	Go_X	1.0
852.2	1.0	go	0.348	Go_X	1.0
854.724	1.0	go	0.346	Go_O	0.0
857.248	1.0	go	0.0	Go_O	0.0
859.773	0.4	stop	0.343	Go_X	0.0
862.297	1.0	go	0.419	Go_X	1.0
864.821	1.0	go	0.531	Go_X	1.0
867.345	0.35	stop	0.0	Go_O	1.0
869.869	1.0	go	0.421	Go_O	1.0
872.394	0.4	stop	0.434	Go_X	0.0
874.918	1.0	go	0.532	Go_X	1.0
877.442	1.0	go	0.0	Go_O	0.0
879.966	0.35	stop	0.441	Go_O	0.0
882.49	1.0	go	0.0	Go_X	0.0
885.015	0.3	stop	0.0	Go_X	1.0
887.539	1.0	go	0.44	Go_O	1.0
890.063	1.0	go	0.0	Go_O	0.0
892.587	1.0	go	0.809	Go_X	0.0
895.111	0.35	stop	0.469	Go_O	0.0
897.636	1.0	go	0.0	Go_O	0.0
900.16	1.0	go	0.516	Go_X	1.0
902.684	1.0	go	0.349	Go_X	1.0
905.208	1.0	go	0.797	Go_O	1.0
907.732	0.3	stop	0.0	Go_X	1.0
910.257	1.0	go	0.0	Go_X	0.0
912.781	1.0	go	0.0	Go_O	0.0
915.305	0.35	stop	0.706	Go_O	0.0
917.829	1.0	go	0.0	Go_O	0.0
920.353	1.0	go	0.507	Go_X	1.0
922.878	1.0	go	0.0	Go_O	0.0
925.402	1.0	go	0.451	Go_X	0.0
927.926	0.3	stop	0.0	Go_X	1.0
930.45	1.0	go	0.567	Go_X	1.0
932.974	0.35	stop	0.0	Go_O	1.0
935.499	1.0	go	0.0	Go_O	0.0
938.023	1.0	go	0.416	Go_O	1.0
940.547	0.4	stop	0.958	Go_X	0.0
943.071	1.0	go	0.0	Go_X	0.0
945.595	1.0	go	0.0	Go_X	0.0
948.12	1.0	go	0.0	Go_O	0.0
950.644	1.0	go	0.0	Go_X	0.0
953.168	0.35	stop	0.0	Go_O	1.0
955.692	1.0	go	0.0	Go_O	0.0
958.216	0.4	stop	0.0	Go_X	1.0
960.741	1.0	go	0.0	Go_X	0.0
963.265	1.0	go	0.402	Go_O	1.0
965.789	1.0	go	0.571	Go_X	1.0
968.313	1.0	go	0.0	Go_O	0.0
970.837	1.0	go	0.863	Go_X	1.0
973.362	1.0	go	0.463	Go_O	1.0
975.886	0.45	stop	0.547	Go_O	0.0
978.41	1.0	go	0.0	Go_O	0.0
980.934	1.0	go	0.0	Go_X	0.0
983.459	0.4	stop	0.426	Go_X	0.0
985.983	1.0	go	0.638	Go_O	1.0
988.507	1.0	go	0.776	Go_X	1.0
991.031	0.35	stop	0.0	Go_O	1.0
993.555	1.0	go	0.0	Go_O	0.0
996.08	1.0	go	0.487	Go_X	1.0
998.604	1.0	go	0.877	Go_X	1.0
1001.128	1.0	go	0.0	Go_O	0.0
1003.652	0.4	stop	0.0	Go_X	1.0
1006.176	1.0	go	0.308	Go_X	1.0
1008.701	0.45	stop	0.0	Go_O	1.0
1011.225	1.0	go	0.0	Go_O	0.0
1013.749	1.0	go	0.0	Go_X	0.0
1016.273	1.0	go	0.606	Go_O	1.0
1018.797	1.0	go	0.0	Go_O	0.0
1021.322	1.0	go	0.028	Go_X	0.0
1023.846	0.5	stop	0.0	Go_X	1.0
1026.37	1.0	go	0.0	Go_X	0.0
1028.894	1.0	go	0.0	Go_O	0.0
1031.418	0.55	stop	0.933	Go_O	0.0
1033.943	0.5	stop	0.0	Go_X	1.0
1036.467	1.0	go	0.405	Go_O	0.0
1038.991	1.0	go	0.732	Go_X	1.0
1041.515	1.0	go	0.0	Go_X	0.0
1044.039	1.0	go	0.0	Go_O	0.0
1046.564	0.55	stop	0.0	Go_O	1.0
1049.088	1.0	go	0.0	Go_X	0.0
