onset	duration	trial_type	response_time	stim_file	accuracy
74.248	1.0	go	0.918	Go_O	1.0
76.772	1.0	go	0.629	Go_X	1.0
79.296	1.0	go	0.469	Go_X	1.0
81.82	1.0	go	0.398	Go_O	1.0
84.345	1.0	go	0.371	Go_X	1.0
86.869	1.0	go	0.36	Go_O	1.0
89.393	0.25	stop	0.553	Go_O	0.0
91.917	1.0	go	0.232	Go_X	1.0
94.441	0.2	stop	0.349	Go_X	0.0
96.966	1.0	go	0.36	Go_O	1.0
99.49	1.0	go	0.351	Go_X	1.0
102.014	1.0	go	0.311	Go_O	1.0
104.538	0.15	stop	0.262	Go_O	0.0
107.062	1.0	go	0.324	Go_X	1.0
109.587	1.0	go	0.449	Go_O	1.0
112.111	0.1	stop	0.0	Go_X	1.0
114.635	0.15	stop	0.323	Go_O	0.0
117.159	1.0	go	0.514	Go_O	1.0
119.684	1.0	go	0.326	Go_X	1.0
122.208	0.1	stop	0.0	Go_X	1.0
124.732	1.0	go	0.274	Go_O	1.0
127.256	1.0	go	0.45	Go_X	1.0
129.78	0.15	stop	0.0	Go_O	1.0
132.305	1.0	go	0.407	Go_X	1.0
134.829	1.0	go	0.328	Go_O	1.0
137.353	0.2	stop	0.356	Go_X	0.0
139.877	1.0	go	0.265	Go_O	1.0
142.401	1.0	go	0.648	Go_X	1.0
144.926	0.15	stop	0.0	Go_O	1.0
147.45	1.0	go	0.338	Go_X	1.0
149.974	1.0	go	0.417	Go_O	1.0
152.498	1.0	go	0.571	Go_O	1.0
155.022	1.0	go	0.592	Go_X	1.0
157.547	1.0	go	0.463	Go_X	1.0
160.071	0.2	stop	0.0	Go_X	1.0
162.595	1.0	go	0.357	Go_O	1.0
165.119	1.0	go	0.55	Go_X	1.0
167.643	1.0	go	0.486	Go_O	1.0
170.168	1.0	go	0.613	Go_X	1.0
172.692	1.0	go	0.449	Go_O	1.0
175.216	0.25	stop	0.0	Go_O	1.0
177.74	1.0	go	0.427	Go_O	1.0
180.264	1.0	go	0.394	Go_X	1.0
182.789	1.0	go	0.492	Go_X	1.0
185.313	1.0	go	0.551	Go_O	1.0
187.837	1.0	go	0.662	Go_X	1.0
190.361	1.0	go	0.557	Go_O	1.0
192.885	0.3	stop	0.346	Go_X	0.0
195.426	1.0	go	0.476	Go_O	1.0
197.951	1.0	go	0.312	Go_X	1.0
200.475	0.25	stop	0.0	Go_O	1.0
202.999	1.0	go	0.451	Go_O	1.0
205.523	0.3	stop	0.368	Go_X	0.0
208.047	0.25	stop	0.313	Go_O	0.0
210.572	1.0	go	0.471	Go_X	1.0
213.096	1.0	go	0.501	Go_X	1.0
215.62	1.0	go	0.553	Go_O	1.0
218.144	1.0	go	0.404	Go_X	1.0
220.668	0.2	stop	0.0	Go_X	1.0
223.193	1.0	go	0.509	Go_O	1.0
225.717	0.25	stop	0.0	Go_O	1.0
228.241	1.0	go	0.608	Go_X	1.0
230.765	1.0	go	0.595	Go_O	1.0
233.289	1.0	go	0.578	Go_O	1.0
235.814	1.0	go	0.653	Go_X	1.0
238.338	1.0	go	0.621	Go_X	1.0
240.862	1.0	go	0.539	Go_O	1.0
243.386	1.0	go	0.697	Go_O	1.0
245.91	1.0	go	0.826	Go_X	1.0
248.435	1.0	go	0.784	Go_X	1.0
250.959	0.3	stop	0.0	Go_X	1.0
253.483	1.0	go	0.454	Go_O	1.0
256.007	1.0	go	0.59	Go_X	1.0
258.531	1.0	go	0.0	Go_O	0.0
261.056	0.35	stop	0.541	Go_O	0.0
263.58	1.0	go	0.777	Go_O	1.0
266.104	1.0	go	0.0	Go_X	0.0
268.628	1.0	go	0.561	Go_O	1.0
271.152	1.0	go	0.57	Go_X	1.0
273.677	1.0	go	0.555	Go_X	1.0
276.201	1.0	go	0.587	Go_O	1.0
278.725	0.3	stop	0.0	Go_X	1.0
281.249	1.0	go	0.512	Go_O	1.0
283.773	1.0	go	0.29	Go_X	1.0
286.298	0.35	stop	0.364	Go_O	0.0
288.822	1.0	go	0.487	Go_X	1.0
291.346	1.0	go	0.706	Go_O	1.0
293.87	0.3	stop	0.575	Go_X	0.0
296.394	1.0	go	0.408	Go_X	1.0
298.919	0.25	stop	0.242	Go_O	0.0
301.443	1.0	go	0.491	Go_O	1.0
303.967	1.0	go	0.592	Go_O	1.0
306.491	1.0	go	0.294	Go_X	1.0
309.015	1.0	go	0.338	Go_O	1.0
311.54	1.0	go	0.285	Go_X	1.0
314.064	0.2	stop	0.0	Go_X	1.0
316.588	0.25	stop	0.0	Go_O	1.0
319.112	1.0	go	0.324	Go_X	1.0
321.636	1.0	go	0.353	Go_O	1.0
324.161	0.3	stop	0.306	Go_X	0.0
326.685	1.0	go	0.522	Go_X	1.0
329.209	1.0	go	0.432	Go_O	1.0
331.733	1.0	go	0.799	Go_O	1.0
334.257	1.0	go	0.654	Go_X	1.0
336.782	1.0	go	0.564	Go_O	1.0
339.306	1.0	go	0.0	Go_X	0.0
341.83	0.25	stop	0.374	Go_O	0.0
344.354	1.0	go	0.0	Go_X	0.0
346.879	1.0	go	0.453	Go_O	1.0
349.403	1.0	go	0.451	Go_X	1.0
351.927	1.0	go	0.293	Go_O	1.0
354.451	1.0	go	0.0	Go_O	0.0
356.975	0.2	stop	0.267	Go_X	0.0
359.5	1.0	go	0.393	Go_X	1.0
362.024	1.0	go	0.646	Go_X	0.0
364.548	1.0	go	0.445	Go_O	1.0
367.072	1.0	go	0.612	Go_O	1.0
369.596	0.15	stop	0.0	Go_O	1.0
372.121	1.0	go	0.384	Go_X	1.0
374.645	1.0	go	0.718	Go_X	1.0
377.169	0.2	stop	0.0	Go_X	1.0
379.693	1.0	go	0.0	Go_O	0.0
382.217	0.25	stop	0.27	Go_O	0.0
384.742	1.0	go	0.549	Go_O	1.0
387.266	1.0	go	0.758	Go_X	0.0
389.79	1.0	go	0.616	Go_X	1.0
392.314	1.0	go	0.471	Go_O	1.0
394.838	1.0	go	0.489	Go_X	0.0
397.363	1.0	go	0.414	Go_O	1.0
399.887	1.0	go	0.316	Go_X	1.0
402.411	0.2	stop	0.502	Go_X	0.0
404.935	1.0	go	0.397	Go_O	1.0
407.459	1.0	go	0.379	Go_O	1.0
409.984	1.0	go	0.345	Go_X	1.0
412.508	0.15	stop	0.0	Go_O	1.0
415.032	1.0	go	0.422	Go_X	1.0
417.556	1.0	go	0.238	Go_O	1.0
420.08	1.0	go	0.548	Go_O	1.0
422.605	1.0	go	0.262	Go_X	1.0
425.129	0.2	stop	0.359	Go_X	0.0
427.653	1.0	go	0.52	Go_X	1.0
430.177	1.0	go	0.374	Go_O	1.0
432.701	0.15	stop	0.0	Go_O	1.0
435.226	1.0	go	0.462	Go_X	1.0
437.75	1.0	go	0.639	Go_O	1.0
440.274	0.2	stop	0.302	Go_X	0.0
442.798	1.0	go	0.938	Go_X	1.0
445.322	1.0	go	0.562	Go_O	1.0
447.847	0.15	stop	0.0	Go_O	1.0
450.371	1.0	go	0.617	Go_O	1.0
452.895	1.0	go	0.648	Go_X	1.0
455.419	1.0	go	0.763	Go_X	1.0
457.943	1.0	go	0.369	Go_O	1.0
460.468	1.0	go	0.641	Go_O	1.0
462.992	1.0	go	0.406	Go_X	1.0
465.516	0.2	stop	0.0	Go_X	1.0
468.04	1.0	go	0.399	Go_O	1.0
470.564	0.25	stop	0.0	Go_O	1.0
473.089	1.0	go	0.0	Go_X	0.0
475.613	1.0	go	0.45	Go_X	1.0
478.137	1.0	go	0.718	Go_O	1.0
480.661	1.0	go	0.8	Go_O	1.0
483.185	1.0	go	0.633	Go_X	1.0
485.71	0.3	stop	0.367	Go_X	0.0
488.234	1.0	go	0.253	Go_X	0.0
490.758	1.0	go	0.26	Go_O	1.0
493.282	1.0	go	0.556	Go_X	1.0
495.807	0.25	stop	0.0	Go_O	1.0
498.331	0.3	stop	0.319	Go_X	0.0
500.855	0.25	stop	0.332	Go_O	0.0
503.379	1.0	go	0.581	Go_O	1.0
505.903	0.2	stop	0.382	Go_X	0.0
508.427	1.0	go	0.721	Go_X	1.0
510.952	1.0	go	0.786	Go_O	1.0
513.476	1.0	go	0.732	Go_O	1.0
516.0	1.0	go	0.634	Go_X	1.0
518.524	1.0	go	0.732	Go_O	1.0
521.049	1.0	go	0.791	Go_X	1.0
523.573	1.0	go	0.307	Go_O	1.0
526.097	1.0	go	0.215	Go_X	1.0
528.621	0.15	stop	0.0	Go_O	1.0
531.162	1.0	go	0.317	Go_O	1.0
533.686	1.0	go	0.258	Go_X	1.0
536.21	0.2	stop	0.0	Go_X	1.0
538.735	1.0	go	0.586	Go_X	1.0
541.259	1.0	go	0.349	Go_O	1.0
543.783	1.0	go	0.467	Go_O	1.0
546.307	1.0	go	0.407	Go_X	1.0
548.831	1.0	go	0.422	Go_O	1.0
551.356	0.25	stop	0.0	Go_O	1.0
553.88	1.0	go	0.5	Go_X	1.0
556.404	1.0	go	0.575	Go_X	1.0
558.928	1.0	go	0.57	Go_O	1.0
561.452	0.3	stop	0.569	Go_X	0.0
563.977	1.0	go	0.656	Go_O	1.0
566.501	0.25	stop	0.0	Go_O	1.0
569.025	1.0	go	0.654	Go_X	1.0
571.549	1.0	go	0.582	Go_X	1.0
574.073	1.0	go	0.359	Go_O	1.0
576.598	1.0	go	0.565	Go_X	1.0
579.122	1.0	go	0.565	Go_O	1.0
581.646	1.0	go	0.628	Go_X	1.0
584.17	1.0	go	0.574	Go_O	1.0
586.694	0.3	stop	0.0	Go_X	1.0
589.219	1.0	go	0.586	Go_O	1.0
591.743	1.0	go	0.406	Go_X	1.0
594.267	1.0	go	0.561	Go_X	1.0
596.791	1.0	go	0.603	Go_O	1.0
599.316	0.35	stop	0.593	Go_O	0.0
601.84	1.0	go	0.46	Go_O	1.0
604.364	0.3	stop	0.289	Go_X	0.0
606.888	1.0	go	0.399	Go_X	1.0
609.412	1.0	go	0.585	Go_X	1.0
611.937	0.25	stop	0.286	Go_O	0.0
614.461	1.0	go	0.524	Go_O	1.0
616.985	1.0	go	0.39	Go_O	1.0
619.509	1.0	go	0.362	Go_X	1.0
622.033	1.0	go	0.883	Go_X	1.0
624.558	1.0	go	0.718	Go_O	1.0
627.082	1.0	go	0.582	Go_X	1.0
629.606	1.0	go	0.905	Go_O	1.0
632.13	1.0	go	0.52	Go_O	1.0
634.654	1.0	go	0.0	Go_X	0.0
637.179	1.0	go	0.531	Go_O	1.0
639.703	0.2	stop	0.0	Go_X	1.0
642.227	1.0	go	0.563	Go_X	1.0
644.751	1.0	go	0.718	Go_O	1.0
647.275	0.25	stop	0.562	Go_O	0.0
649.8	1.0	go	0.471	Go_X	1.0
652.324	0.2	stop	0.0	Go_X	1.0
654.848	1.0	go	0.337	Go_X	1.0
657.372	1.0	go	0.33	Go_O	1.0
659.896	0.25	stop	0.0	Go_O	1.0
662.421	1.0	go	0.542	Go_X	1.0
664.945	0.3	stop	0.0	Go_X	1.0
667.469	1.0	go	0.579	Go_O	1.0
669.993	1.0	go	0.684	Go_O	1.0
672.517	1.0	go	0.482	Go_X	1.0
675.042	0.35	stop	0.0	Go_O	1.0
677.566	1.0	go	0.501	Go_X	1.0
680.09	1.0	go	0.561	Go_O	1.0
682.614	1.0	go	0.709	Go_O	0.0
685.138	1.0	go	0.347	Go_X	1.0
687.663	0.4	stop	0.439	Go_X	0.0
690.187	1.0	go	0.371	Go_O	1.0
692.711	1.0	go	0.56	Go_X	1.0
695.235	0.35	stop	0.485	Go_O	0.0
697.759	1.0	go	0.568	Go_O	0.0
700.284	1.0	go	0.577	Go_X	0.0
702.808	1.0	go	0.512	Go_X	1.0
705.332	1.0	go	0.448	Go_O	1.0
707.856	0.3	stop	0.399	Go_X	0.0
710.38	1.0	go	0.547	Go_X	1.0
712.905	0.25	stop	0.0	Go_O	1.0
715.429	1.0	go	0.419	Go_O	1.0
717.953	1.0	go	0.446	Go_O	1.0
720.477	0.3	stop	0.574	Go_X	0.0
723.001	1.0	go	0.661	Go_X	1.0
725.526	1.0	go	0.722	Go_X	1.0
728.05	1.0	go	0.603	Go_O	1.0
730.574	1.0	go	0.562	Go_X	1.0
733.098	0.25	stop	0.0	Go_O	1.0
735.622	1.0	go	0.519	Go_O	1.0
738.147	0.3	stop	0.0	Go_X	1.0
740.671	1.0	go	0.635	Go_O	1.0
743.195	1.0	go	0.651	Go_X	1.0
745.719	1.0	go	0.514	Go_O	1.0
748.244	1.0	go	0.507	Go_X	1.0
750.768	1.0	go	0.587	Go_O	1.0
753.292	1.0	go	0.0	Go_X	0.0
755.816	0.35	stop	0.334	Go_O	0.0
758.34	1.0	go	0.355	Go_X	1.0
760.865	1.0	go	0.523	Go_O	1.0
763.389	0.3	stop	0.0	Go_X	1.0
765.913	1.0	go	0.389	Go_X	1.0
768.437	1.0	go	0.462	Go_O	1.0
770.961	0.35	stop	0.401	Go_O	0.0
773.486	1.0	go	0.47	Go_X	1.0
776.01	1.0	go	0.476	Go_O	1.0
778.534	1.0	go	0.701	Go_O	1.0
781.058	1.0	go	0.492	Go_X	1.0
783.582	0.3	stop	0.604	Go_X	0.0
786.107	1.0	go	0.419	Go_X	1.0
788.631	0.25	stop	0.0	Go_O	1.0
791.155	1.0	go	0.609	Go_O	0.0
793.679	1.0	go	0.46	Go_X	1.0
796.203	1.0	go	0.359	Go_O	1.0
798.728	1.0	go	0.621	Go_O	1.0
801.252	1.0	go	0.785	Go_X	1.0
803.776	0.3	stop	0.0	Go_X	1.0
806.3	1.0	go	0.493	Go_O	1.0
808.824	1.0	go	0.622	Go_X	1.0
811.349	0.35	stop	0.715	Go_O	0.0
813.873	0.3	stop	0.528	Go_X	0.0
816.397	1.0	go	0.333	Go_O	1.0
818.921	1.0	go	0.792	Go_X	1.0
821.445	1.0	go	0.812	Go_O	1.0
823.97	1.0	go	0.609	Go_X	1.0
826.494	0.25	stop	0.0	Go_O	1.0
829.018	1.0	go	0.674	Go_O	1.0
