onset	duration	trial_type	response_time	stim_file	accuracy
0.5360000000000014	1.0	go	0.752	Go_O	1.0
3.076999999999998	1.0	go	0.475	Go_X	1.0
5.600999999999999	1.0	go	0.36	Go_X	1.0
8.142000000000003	1.0	go	0.33	Go_O	1.0
10.666000000000004	1.0	go	0.333	Go_X	1.0
13.191000000000003	1.0	go	0.449	Go_O	1.0
15.714999999999996	0.25	stopfail	0.366	Go_O	0.0
18.256000000000007	1.0	go	0.456	Go_O	1.0
20.779999999999994	0.2	stopfail	0.308	Go_X	0.0
23.303999999999995	1.0	go	0.464	Go_X	1.0
25.827999999999996	1.0	go	0.419	Go_X	1.0
28.353	1.0	go	0.37	Go_O	1.0
30.877000000000002	0.15	stopsuccess	0.0	Go_O	1.0
33.418	1.0	go	0.547	Go_O	1.0
35.942	1.0	go	0.401	Go_X	1.0
38.466	0.2	stopsuccess	0.0	Go_X	1.0
40.992	0.25	stopsuccess	0.0	Go_O	1.0
43.547999999999995	1.0	go	0.327	Go_X	1.0
46.071999999999996	1.0	go	0.589	Go_O	1.0
48.597	0.3	stopfail	0.381	Go_X	0.0
51.13700000000001	1.0	go	0.472	Go_O	1.0
53.662	1.0	go	0.396	Go_X	1.0
56.186	0.25	stopsuccess	0.0	Go_O	1.0
58.727	1.0	go	0.374	Go_X	1.0
61.26800000000001	1.0	go	0.404	Go_O	1.0
63.809000000000005	0.3	stopfail	0.396	Go_X	0.0
66.35	1.0	go	0.423	Go_X	1.0
68.89099999999999	1.0	go	0.516	Go_O	1.0
71.41499999999999	0.25	stopsuccess	0.0	Go_O	1.0
73.95599999999999	1.0	go	0.463	Go_X	1.0
76.47999999999999	1.0	go	0.424	Go_O	1.0
79.02100000000002	1.0	go	0.406	Go_X	1.0
81.54500000000002	1.0	go	0.485	Go_O	1.0
84.06900000000002	1.0	go	0.473	Go_O	1.0
86.594	0.3	stopsuccess	0.0	Go_X	1.0
89.13500000000002	1.0	go	0.538	Go_X	1.0
91.65900000000002	1.0	go	0.521	Go_X	1.0
94.18300000000002	1.0	go	0.487	Go_O	1.0
96.70700000000002	1.0	go	0.435	Go_X	1.0
99.231	1.0	go	0.463	Go_O	1.0
101.756	0.35	stopsuccess	0.0	Go_O	1.0
104.28	1.0	go	0.428	Go_X	1.0
106.804	1.0	go	0.491	Go_O	1.0
109.328	1.0	go	0.444	Go_X	1.0
111.85300000000001	1.0	go	0.472	Go_O	1.0
114.37700000000001	1.0	go	0.618	Go_O	1.0
116.90100000000001	1.0	go	0.633	Go_X	1.0
119.44200000000001	0.4	stopsuccess	0.0	Go_X	1.0
121.96600000000001	1.0	go	0.584	Go_X	1.0
124.49000000000001	1.0	go	0.53	Go_O	1.0
127.01500000000001	0.45	stopsuccess	0.0	Go_O	1.0
129.556	1.0	go	0.516	Go_O	1.0
132.097	0.5	stopfail	0.439	Go_X	0.0
134.637	0.45	stopfail	0.549	Go_O	0.0
137.178	1.0	go	0.587	Go_X	1.0
139.703	1.0	go	0.514	Go_O	1.0
142.227	1.0	go	0.61	Go_X	1.0
144.751	1.0	go	0.476	Go_X	1.0
147.275	0.4	stopfail	0.447	Go_X	0.0
149.8	1.0	go	0.474	Go_O	1.0
152.324	0.35	stopfail	0.47	Go_O	0.0
154.865	1.0	go	0.566	Go_X	1.0
157.389	1.0	go	0.354	Go_O	1.0
159.913	1.0	go	0.362	Go_O	1.0
162.454	1.0	go	0.27	Go_X	1.0
164.978	1.0	go	0.319	Go_O	1.0
167.50300000000001	1.0	go	0.386	Go_X	1.0
170.02700000000002	1.0	go	0.432	Go_O	1.0
172.55100000000002	1.0	go	0.373	Go_X	1.0
175.092	1.0	go	0.366	Go_O	1.0
177.616	0.3	stopfail	0.375	Go_X	0.0
180.157	1.0	go	0.639	Go_X	1.0
182.681	1.0	go	0.441	Go_X	1.0
185.20600000000002	1.0	go	0.512	Go_O	1.0
187.747	0.25	stopsuccess	0.0	Go_O	1.0
190.287	1.0	go	0.537	Go_O	1.0
192.812	1.0	go	0.631	Go_X	1.0
195.336	1.0	go	0.47	Go_X	1.0
197.877	1.0	go	0.516	Go_O	1.0
200.401	1.0	go	0.472	Go_X	1.0
202.942	1.0	go	0.434	Go_O	1.0
205.466	0.3	stopsuccess	0.0	Go_X	1.0
207.98999999999998	1.0	go	0.486	Go_X	1.0
210.51500000000001	1.0	go	0.389	Go_O	1.0
213.03900000000002	0.35	stopfail	0.388	Go_O	0.0
215.58	1.0	go	0.409	Go_O	1.0
218.121	1.0	go	0.478	Go_X	1.0
220.645	0.3	stopfail	0.462	Go_X	0.0
223.186	1.0	go	0.689	Go_X	1.0
225.71	0.25	stopsuccess	0.0	Go_O	1.0
228.251	1.0	go	0.59	Go_O	1.0
230.775	1.0	go	0.438	Go_O	1.0
233.29999999999998	1.0	go	0.516	Go_X	1.0
235.82399999999998	1.0	go	0.433	Go_X	1.0
238.34799999999998	1.0	go	0.407	Go_O	1.0
240.87199999999999	0.3	stopsuccess	0.0	Go_X	1.0
243.396	0.35	stopsuccess	0.0	Go_O	1.0
245.92100000000002	1.0	go	0.501	Go_O	1.0
248.44500000000002	1.0	go	0.414	Go_X	1.0
250.98600000000002	0.4	stopfail	0.47	Go_X	0.0
253.52700000000002	1.0	go	0.433	Go_X	1.0
256.051	1.0	go	0.457	Go_O	1.0
258.575	1.0	go	0.46	Go_X	1.0
261.099	1.0	go	0.232	Go_O	1.0
263.62399999999997	1.0	go	0.126	Go_O	0.0
266.14799999999997	1.0	go	0.327	Go_X	1.0
268.68899999999996	0.35	stopfail	0.393	Go_O	0.0
271.22999999999996	1.0	go	0.444	Go_X	1.0
273.75399999999996	1.0	go	0.378	Go_O	1.0
276.27799999999996	1.0	go	0.369	Go_X	1.0
278.81899999999996	1.0	go	0.348	Go_O	1.0
281.35999999999996	1.0	go	0.439	Go_O	1.0
283.88399999999996	0.3	stopfail	0.442	Go_X	0.0
286.42499999999995	1.0	go	0.439	Go_X	1.0
288.95	1.0	go	0.379	Go_O	1.0
291.48999999999995	1.0	go	0.41	Go_X	1.0
294.015	1.0	go	0.405	Go_O	1.0
296.556	0.25	stopfail	0.412	Go_O	0.0
299.097	1.0	go	0.44	Go_X	1.0
301.621	1.0	go	0.375	Go_O	1.0
304.145	0.2	stopsuccess	0.0	Go_X	1.0
306.686	1.0	go	0.381	Go_X	1.0
309.227	0.25	stopsuccess	0.0	Go_O	1.0
311.751	1.0	go	0.416	Go_O	1.0
314.275	1.0	go	0.439	Go_X	1.0
316.79999999999995	1.0	go	0.426	Go_O	1.0
319.34099999999995	1.0	go	0.444	Go_X	1.0
321.86899999999997	1.0	go	0.543	Go_O	1.0
324.406	1.0	go	0.377	Go_X	1.0
326.93	1.0	go	0.479	Go_X	1.0
329.454	0.3	stopfail	0.501	Go_X	0.0
331.995	1.0	go	0.558	Go_O	1.0
334.536	1.0	go	0.502	Go_O	1.0
337.06	1.0	go	0.486	Go_X	1.0
339.584	0.25	stopsuccess	0.0	Go_O	1.0
342.109	1.0	go	0.694	Go_X	1.0
344.65	1.0	go	0.463	Go_O	1.0
347.174	1.0	go	0.263	Go_O	0.0
349.698	1.0	go	0.39	Go_X	1.0
352.222	0.3	stopfail	0.392	Go_X	0.0
354.763	1.0	go	0.361	Go_O	1.0
357.287	1.0	go	0.442	Go_X	1.0
359.81199999999995	0.25	stopfail	0.4	Go_O	0.0
362.35299999999995	1.0	go	0.408	Go_X	1.0
364.87699999999995	1.0	go	0.325	Go_O	1.0
367.40099999999995	0.2	stopfail	0.299	Go_X	0.0
369.92499999999995	1.0	go	0.446	Go_O	1.0
372.45	1.0	go	0.53	Go_X	1.0
374.974	0.15	stopsuccess	0.0	Go_O	1.0
377.515	1.0	go	0.335	Go_X	1.0
380.039	1.0	go	0.407	Go_O	1.0
382.58	1.0	go	0.432	Go_O	1.0
385.104	1.0	go	0.378	Go_X	1.0
387.628	1.0	go	0.424	Go_O	1.0
390.157	1.0	go	0.369	Go_X	1.0
392.693	0.2	stopfail	0.432	Go_X	0.0
395.234	1.0	go	0.464	Go_X	1.0
397.75899999999996	0.15	stopsuccess	0.0	Go_O	1.0
400.29999999999995	1.0	go	0.501	Go_O	1.0
402.82399999999996	1.0	go	0.418	Go_X	1.0
405.34799999999996	1.0	go	0.46	Go_O	1.0
407.87199999999996	1.0	go	0.489	Go_X	1.0
410.39599999999996	1.0	go	0.546	Go_O	1.0
412.921	0.2	stopfail	0.452	Go_X	0.0
415.462	1.0	go	0.449	Go_O	1.0
417.986	1.0	go	0.458	Go_X	1.0
420.51	1.0	go	0.486	Go_X	1.0
423.034	0.15	stopsuccess	0.0	Go_O	1.0
425.55899999999997	0.2	stopsuccess	0.0	Go_X	1.0
428.099	0.25	stopsuccess	0.0	Go_O	1.0
430.62399999999997	1.0	go	0.513	Go_O	1.0
433.14799999999997	0.3	stopsuccess	0.0	Go_X	1.0
435.68899999999996	1.0	go	0.4	Go_O	1.0
438.21299999999997	1.0	go	0.469	Go_X	1.0
440.73699999999997	1.0	go	0.391	Go_O	1.0
443.262	1.0	go	0.377	Go_X	1.0
445.786	1.0	go	0.356	Go_O	1.0
448.31	1.0	go	0.28	Go_X	1.0
450.851	1.0	go	0.292	Go_O	1.0
453.375	1.0	go	0.292	Go_X	1.0
455.899	0.35	stopfail	0.474	Go_O	0.0
458.424	1.0	go	0.282	Go_X	1.0
460.948	1.0	go	0.457	Go_O	1.0
463.4719999999999	0.3	stopsuccess	0.0	Go_X	1.0
466.013	1.0	go	0.417	Go_O	1.0
468.55400000000003	1.0	go	0.479	Go_X	1.0
471.07800000000003	1.0	go	0.398	Go_O	1.0
473.60200000000003	1.0	go	0.484	Go_X	1.0
476.127	1.0	go	0.435	Go_X	1.0
478.651	0.35	stopfail	0.325	Go_O	0.0
481.19199999999995	1.0	go	0.397	Go_O	1.0
483.71599999999995	1.0	go	0.485	Go_O	1.0
486.23999999999995	1.0	go	0.518	Go_X	1.0
488.76399999999995	0.3	stopfail	0.396	Go_X	0.0
491.28899999999993	1.0	go	0.369	Go_O	1.0
493.81299999999993	0.25	stopsuccess	0.0	Go_O	1.0
496.354	1.0	go	0.288	Go_X	1.0
498.878	1.0	go	0.388	Go_O	1.0
501.402	1.0	go	0.424	Go_X	1.0
503.92699999999996	1.0	go	0.502	Go_O	1.0
506.45099999999996	1.0	go	0.502	Go_X	1.0
508.992	1.0	go	0.44	Go_O	1.0
511.53299999999996	1.0	go	0.433	Go_X	1.0
514.057	0.3	stopfail	0.434	Go_X	0.0
516.5980000000001	1.0	go	0.512	Go_O	1.0
519.1220000000001	1.0	go	0.463	Go_X	1.0
521.663	1.0	go	0.443	Go_O	1.0
524.187	1.0	go	0.414	Go_X	1.0
526.711	0.25	stopsuccess	0.0	Go_O	1.0
529.2520000000001	1.0	go	0.482	Go_O	1.0
531.777	0.3	stopsuccess	0.0	Go_X	1.0
534.318	1.0	go	0.404	Go_X	1.0
536.842	1.0	go	0.338	Go_O	1.0
539.366	0.35	stopfail	0.411	Go_O	0.0
541.89	1.0	go	0.473	Go_X	1.0
544.414	1.0	go	0.449	Go_X	1.0
546.9390000000001	1.0	go	0.362	Go_O	1.0
549.484	1.0	go	0.377	Go_O	1.0
552.0210000000001	1.0	go	0.278	Go_X	1.0
554.561	1.0	go	0.426	Go_X	1.0
557.086	1.0	go	0.251	Go_O	1.0
559.6270000000001	1.0	go	0.254	Go_O	0.0
562.1510000000001	1.0	go	0.38	Go_X	1.0
564.6750000000001	1.0	go	0.437	Go_O	1.0
567.216	0.3	stopfail	0.298	Go_X	0.0
569.7570000000001	1.0	go	0.531	Go_X	1.0
572.2810000000001	1.0	go	0.28	Go_O	1.0
574.822	0.25	stopfail	0.386	Go_O	0.0
577.346	1.0	go	0.329	Go_X	1.0
579.871	0.2	stopsuccess	0.0	Go_X	1.0
582.395	1.0	go	0.365	Go_X	1.0
584.936	1.0	go	0.319	Go_O	1.0
587.46	0.25	stopsuccess	0.0	Go_O	1.0
590.0010000000001	1.0	go	0.31	Go_X	1.0
592.542	0.3	stopsuccess	0.0	Go_X	1.0
595.0830000000001	1.0	go	0.764	Go_O	1.0
597.624	1.0	go	0.455	Go_O	1.0
600.148	1.0	go	0.452	Go_X	1.0
602.672	0.35	stopfail	0.513	Go_O	0.0
605.2130000000001	1.0	go	0.416	Go_X	1.0
607.754	1.0	go	0.759	Go_O	1.0
610.278	1.0	go	0.689	Go_O	1.0
612.803	1.0	go	0.444	Go_X	1.0
615.327	0.3	stopsuccess	0.0	Go_X	1.0
617.868	1.0	go	0.486	Go_X	1.0
620.392	1.0	go	0.509	Go_O	1.0
622.916	0.35	stopfail	0.447	Go_O	0.0
625.457	1.0	go	0.369	Go_X	1.0
627.998	1.0	go	0.542	Go_O	1.0
630.539	1.0	go	0.427	Go_O	1.0
633.08	1.0	go	0.39	Go_X	1.0
635.604	0.3	stopfail	0.356	Go_X	0.0
638.145	1.0	go	0.464	Go_X	1.0
640.669	0.25	stopsuccess	0.0	Go_O	1.0
643.1940000000001	1.0	go	0.569	Go_O	1.0
645.7180000000001	1.0	go	0.542	Go_X	1.0
648.2420000000001	0.3	stopfail	0.423	Go_X	0.0
650.783	1.0	go	0.333	Go_O	1.0
653.307	1.0	go	0.453	Go_X	1.0
655.831	1.0	go	0.66	Go_O	1.0
658.356	1.0	go	0.38	Go_X	1.0
660.88	0.25	stopsuccess	0.0	Go_O	1.0
663.404	1.0	go	0.363	Go_O	1.0
665.928	0.3	stopfail	0.47	Go_X	0.0
668.452	1.0	go	0.391	Go_O	1.0
670.9770000000001	1.0	go	0.326	Go_X	1.0
673.5010000000001	1.0	go	0.438	Go_O	1.0
676.0250000000001	1.0	go	0.385	Go_X	1.0
678.5490000000001	1.0	go	0.373	Go_O	1.0
681.0740000000001	1.0	go	0.57	Go_X	1.0
683.5980000000001	0.25	stopsuccess	0.0	Go_O	1.0
686.139	1.0	go	0.439	Go_X	1.0
688.663	1.0	go	0.452	Go_O	1.0
691.2040000000001	0.3	stopsuccess	0.0	Go_X	1.0
693.745	1.0	go	0.547	Go_X	1.0
696.269	1.0	go	0.409	Go_O	1.0
698.793	0.35	stopsuccess	0.0	Go_O	1.0
701.318	1.0	go	0.381	Go_X	1.0
703.842	1.0	go	0.379	Go_O	1.0
706.366	1.0	go	0.349	Go_O	1.0
708.89	1.0	go	0.425	Go_X	1.0
711.414	0.4	stopfail	0.399	Go_X	0.0
713.9390000000001	1.0	go	0.462	Go_O	1.0
716.4630000000001	0.35	stopfail	0.431	Go_O	0.0
718.9870000000001	1.0	go	0.535	Go_X	1.0
721.5110000000001	1.0	go	0.594	Go_X	1.0
724.0360000000001	1.0	go	0.427	Go_O	1.0
726.5600000000001	1.0	go	0.424	Go_O	1.0
729.101	1.0	go	0.382	Go_X	1.0
731.625	0.3	stopsuccess	0.0	Go_X	1.0
734.166	1.0	go	0.536	Go_X	1.0
736.707	1.0	go	0.471	Go_O	1.0
739.231	0.35	stopfail	0.47	Go_O	0.0
741.772	0.3	stopsuccess	0.0	Go_X	1.0
744.296	1.0	go	0.473	Go_X	1.0
746.82	1.0	go	0.483	Go_O	1.0
749.345	1.0	go	0.414	Go_O	1.0
751.869	1.0	go	0.405	Go_X	1.0
754.393	0.35	stopfail	0.336	Go_O	0.0
756.917	1.0	go	0.381	Go_X	1.0
