onset	duration	trial_type	response_time	stim_file	accuracy
42.457	1.0	go	0.864	Go_O	1.0
44.981	1.0	go	0.503	Go_X	1.0
47.505	1.0	go	0.484	Go_O	1.0
50.029	1.0	go	0.486	Go_X	1.0
52.554	1.0	go	0.608	Go_X	1.0
55.078	1.0	go	0.523	Go_O	1.0
57.602	0.25	stop	0.0	Go_O	1.0
60.126	1.0	go	0.445	Go_X	1.0
62.65	0.3	stop	0.46	Go_X	0.0
65.175	1.0	go	0.502	Go_O	1.0
67.699	1.0	go	0.446	Go_X	1.0
70.223	1.0	go	0.53	Go_O	1.0
72.747	0.25	stop	0.0	Go_O	1.0
75.272	1.0	go	0.384	Go_X	1.0
77.796	1.0	go	0.582	Go_O	1.0
80.32	0.3	stop	0.422	Go_X	0.0
82.844	0.25	stop	0.0	Go_O	1.0
85.368	1.0	go	0.47	Go_O	1.0
87.893	1.0	go	0.469	Go_X	1.0
90.417	0.3	stop	0.0	Go_X	1.0
92.941	1.0	go	0.586	Go_X	1.0
95.465	1.0	go	0.492	Go_O	1.0
97.989	0.35	stop	0.0	Go_O	1.0
100.514	1.0	go	0.559	Go_O	1.0
103.038	1.0	go	0.468	Go_X	1.0
105.562	0.4	stop	0.437	Go_X	0.0
108.086	1.0	go	0.502	Go_O	1.0
110.611	1.0	go	0.775	Go_X	1.0
113.135	0.35	stop	0.414	Go_O	0.0
115.659	1.0	go	0.699	Go_O	1.0
118.183	1.0	go	0.481	Go_X	1.0
120.707	1.0	go	0.536	Go_O	1.0
123.232	1.0	go	0.418	Go_X	1.0
125.756	1.0	go	0.581	Go_O	1.0
128.28	0.3	stop	0.398	Go_X	0.0
130.804	1.0	go	0.656	Go_X	1.0
133.328	1.0	go	0.589	Go_O	1.0
135.853	1.0	go	0.453	Go_X	1.0
138.377	1.0	go	0.593	Go_X	1.0
140.901	1.0	go	0.621	Go_O	1.0
143.425	0.25	stop	0.0	Go_O	1.0
145.95	1.0	go	0.346	Go_O	1.0
148.474	1.0	go	0.404	Go_X	1.0
150.998	1.0	go	0.396	Go_O	1.0
153.522	1.0	go	0.417	Go_X	1.0
156.046	1.0	go	0.483	Go_X	1.0
158.571	1.0	go	0.508	Go_O	1.0
161.095	0.3	stop	0.447	Go_X	0.0
163.619	1.0	go	0.43	Go_O	1.0
166.143	1.0	go	0.625	Go_X	1.0
168.667	0.25	stop	0.356	Go_O	0.0
171.192	1.0	go	0.244	Go_X	1.0
173.716	0.2	stop	0.0	Go_X	1.0
176.24	0.25	stop	0.275	Go_O	0.0
178.764	1.0	go	0.757	Go_O	1.0
181.289	1.0	go	0.475	Go_O	1.0
183.813	1.0	go	0.354	Go_X	1.0
186.337	1.0	go	0.584	Go_X	1.0
188.861	0.2	stop	0.307	Go_X	0.0
191.385	1.0	go	0.478	Go_O	1.0
193.91	0.15	stop	0.0	Go_O	1.0
196.434	1.0	go	0.601	Go_O	1.0
198.958	1.0	go	0.315	Go_X	1.0
201.482	1.0	go	0.323	Go_X	1.0
204.006	1.0	go	0.314	Go_O	0.0
206.531	1.0	go	0.349	Go_X	1.0
209.055	1.0	go	0.442	Go_O	1.0
211.579	1.0	go	0.386	Go_O	1.0
214.103	1.0	go	0.419	Go_X	1.0
216.628	1.0	go	0.417	Go_X	1.0
219.152	0.2	stop	0.0	Go_X	1.0
221.676	1.0	go	0.48	Go_O	1.0
224.2	1.0	go	0.361	Go_X	1.0
226.724	1.0	go	0.416	Go_O	1.0
229.249	0.25	stop	0.533	Go_O	0.0
231.773	1.0	go	0.48	Go_X	0.0
234.297	1.0	go	0.397	Go_O	1.0
236.821	1.0	go	0.493	Go_O	1.0
239.345	1.0	go	0.411	Go_X	1.0
241.87	1.0	go	0.52	Go_O	1.0
244.394	1.0	go	0.404	Go_X	1.0
246.918	0.2	stop	0.497	Go_X	0.0
249.442	1.0	go	0.463	Go_X	1.0
251.967	1.0	go	0.499	Go_O	1.0
254.491	0.15	stop	0.0	Go_O	1.0
257.015	1.0	go	0.453	Go_X	1.0
259.539	1.0	go	0.42	Go_O	1.0
262.063	0.2	stop	0.265	Go_X	0.0
264.588	1.0	go	0.469	Go_X	1.0
267.112	0.15	stop	0.284	Go_O	0.0
269.636	1.0	go	0.313	Go_O	0.0
272.16	1.0	go	0.327	Go_X	1.0
274.684	1.0	go	0.738	Go_O	1.0
277.209	1.0	go	0.278	Go_X	1.0
279.733	1.0	go	0.422	Go_O	1.0
282.257	0.1	stop	0.0	Go_X	1.0
284.781	0.15	stop	0.0	Go_O	1.0
287.306	1.0	go	0.485	Go_O	1.0
289.83	1.0	go	0.366	Go_X	1.0
292.354	0.2	stop	0.0	Go_X	1.0
294.878	1.0	go	0.477	Go_O	1.0
297.402	1.0	go	0.38	Go_X	1.0
299.927	1.0	go	0.456	Go_X	1.0
302.451	1.0	go	0.345	Go_O	1.0
304.975	1.0	go	0.451	Go_O	1.0
307.499	1.0	go	0.385	Go_X	1.0
310.023	0.25	stop	0.372	Go_O	0.0
312.548	1.0	go	0.467	Go_X	1.0
315.072	1.0	go	0.579	Go_O	1.0
317.596	1.0	go	0.501	Go_O	1.0
320.12	1.0	go	0.377	Go_X	1.0
322.645	1.0	go	0.463	Go_X	1.0
325.169	0.2	stop	0.362	Go_X	0.0
327.693	1.0	go	0.455	Go_O	1.0
330.217	1.0	go	0.513	Go_X	1.0
332.741	1.0	go	0.558	Go_O	1.0
335.266	1.0	go	0.454	Go_X	1.0
337.79	0.15	stop	0.0	Go_O	1.0
340.314	1.0	go	0.395	Go_O	1.0
342.838	1.0	go	0.54	Go_X	1.0
345.362	0.2	stop	0.0	Go_X	1.0
347.887	1.0	go	0.406	Go_O	1.0
350.411	0.25	stop	0.0	Go_O	1.0
352.935	1.0	go	0.463	Go_O	1.0
355.459	1.0	go	0.376	Go_X	1.0
357.983	1.0	go	0.328	Go_X	1.0
360.508	1.0	go	0.536	Go_O	1.0
363.032	1.0	go	0.321	Go_X	1.0
365.556	1.0	go	0.415	Go_O	1.0
368.08	1.0	go	0.334	Go_X	1.0
370.605	0.3	stop	0.281	Go_X	0.0
373.129	1.0	go	0.374	Go_O	1.0
375.653	1.0	go	0.269	Go_O	0.0
378.177	1.0	go	0.273	Go_X	1.0
380.701	0.25	stop	0.321	Go_O	0.0
383.226	1.0	go	0.53	Go_O	1.0
385.75	1.0	go	0.483	Go_X	1.0
388.274	1.0	go	0.445	Go_X	1.0
390.798	1.0	go	0.604	Go_O	1.0
393.322	0.2	stop	0.0	Go_X	1.0
395.847	1.0	go	0.489	Go_X	1.0
398.371	1.0	go	0.461	Go_O	1.0
400.895	0.25	stop	0.507	Go_O	0.0
403.419	1.0	go	0.39	Go_O	1.0
405.944	1.0	go	0.343	Go_X	1.0
408.468	0.2	stop	0.0	Go_X	1.0
410.992	1.0	go	0.454	Go_X	1.0
413.516	1.0	go	0.502	Go_O	1.0
416.04	0.25	stop	0.337	Go_O	0.0
418.565	1.0	go	0.0	Go_X	0.0
421.089	1.0	go	0.311	Go_O	1.0
423.613	1.0	go	0.0	Go_X	0.0
426.137	1.0	go	0.291	Go_O	1.0
428.661	1.0	go	0.437	Go_X	1.0
431.186	1.0	go	0.229	Go_O	1.0
433.71	0.2	stop	0.296	Go_X	0.0
436.234	1.0	go	0.285	Go_O	1.0
438.758	0.15	stop	0.0	Go_O	1.0
441.283	1.0	go	0.438	Go_X	1.0
443.807	1.0	go	0.445	Go_X	1.0
446.331	1.0	go	0.442	Go_O	1.0
448.855	1.0	go	0.631	Go_X	1.0
451.379	1.0	go	0.446	Go_O	1.0
453.904	0.2	stop	0.0	Go_X	1.0
456.428	1.0	go	0.323	Go_X	1.0
458.952	1.0	go	0.25	Go_O	1.0
461.476	1.0	go	0.442	Go_X	1.0
464.0	0.25	stop	0.454	Go_O	0.0
466.525	0.2	stop	0.299	Go_X	0.0
469.049	0.15	stop	0.0	Go_O	1.0
471.573	1.0	go	0.568	Go_O	1.0
474.097	0.2	stop	0.0	Go_X	1.0
476.622	1.0	go	0.525	Go_O	1.0
479.146	1.0	go	0.453	Go_X	0.0
481.67	1.0	go	0.346	Go_O	1.0
484.194	1.0	go	0.393	Go_X	1.0
486.718	1.0	go	0.569	Go_X	1.0
489.243	1.0	go	0.348	Go_O	1.0
491.767	1.0	go	0.542	Go_O	1.0
494.291	1.0	go	0.492	Go_X	1.0
496.815	0.25	stop	0.0	Go_O	1.0
499.339	1.0	go	0.331	Go_X	1.0
501.864	1.0	go	0.436	Go_O	1.0
504.388	0.3	stop	0.0	Go_X	1.0
506.912	1.0	go	0.983	Go_X	1.0
509.436	1.0	go	0.26	Go_O	1.0
511.961	1.0	go	0.536	Go_O	1.0
514.485	1.0	go	0.466	Go_X	1.0
517.009	1.0	go	0.425	Go_O	1.0
519.533	0.35	stop	0.486	Go_O	0.0
522.057	1.0	go	0.431	Go_X	1.0
524.582	1.0	go	0.628	Go_O	0.0
527.106	1.0	go	0.307	Go_X	1.0
529.63	0.3	stop	0.407	Go_X	0.0
532.154	1.0	go	0.498	Go_X	1.0
534.678	0.25	stop	0.433	Go_O	0.0
537.203	1.0	go	0.57	Go_O	1.0
539.727	1.0	go	0.583	Go_O	1.0
542.251	1.0	go	0.306	Go_X	1.0
544.775	1.0	go	0.417	Go_O	1.0
547.3	1.0	go	0.579	Go_X	1.0
549.824	1.0	go	0.476	Go_X	1.0
552.348	1.0	go	0.432	Go_O	1.0
554.872	0.2	stop	0.409	Go_X	0.0
557.396	1.0	go	0.658	Go_O	1.0
559.921	1.0	go	0.496	Go_X	1.0
562.445	1.0	go	0.463	Go_X	1.0
564.969	1.0	go	0.417	Go_O	1.0
567.493	0.15	stop	0.0	Go_O	1.0
570.017	1.0	go	0.362	Go_X	1.0
572.542	0.2	stop	0.0	Go_X	1.0
575.066	1.0	go	0.486	Go_O	1.0
577.59	1.0	go	0.54	Go_O	1.0
580.114	0.25	stop	0.0	Go_O	1.0
582.639	1.0	go	0.35	Go_X	1.0
585.163	1.0	go	0.593	Go_O	1.0
587.687	1.0	go	0.321	Go_X	1.0
590.211	1.0	go	0.451	Go_O	1.0
592.735	1.0	go	0.302	Go_X	1.0
595.26	1.0	go	0.447	Go_O	1.0
597.784	1.0	go	0.58	Go_X	1.0
600.308	1.0	go	0.612	Go_X	1.0
602.832	1.0	go	0.419	Go_O	1.0
605.356	1.0	go	0.429	Go_O	1.0
607.881	0.3	stop	0.0	Go_X	1.0
610.405	1.0	go	0.6	Go_X	1.0
612.929	1.0	go	0.407	Go_X	1.0
615.453	0.35	stop	0.454	Go_O	0.0
617.978	1.0	go	0.37	Go_O	1.0
620.502	0.3	stop	0.475	Go_X	0.0
623.026	1.0	go	0.619	Go_X	1.0
625.55	1.0	go	0.59	Go_O	1.0
628.074	0.25	stop	0.562	Go_O	0.0
630.599	1.0	go	0.475	Go_X	1.0
633.123	0.2	stop	0.493	Go_X	0.0
635.647	1.0	go	0.351	Go_O	1.0
638.171	1.0	go	0.581	Go_X	1.0
640.695	1.0	go	0.406	Go_O	1.0
643.22	0.15	stop	0.0	Go_O	1.0
645.744	1.0	go	0.393	Go_X	1.0
648.268	1.0	go	0.359	Go_O	1.0
650.792	1.0	go	0.471	Go_O	1.0
653.317	1.0	go	0.499	Go_X	0.0
655.841	0.2	stop	0.511	Go_X	0.0
658.365	1.0	go	0.404	Go_X	1.0
660.889	1.0	go	0.411	Go_O	1.0
663.413	0.15	stop	0.0	Go_O	1.0
665.938	1.0	go	0.513	Go_X	1.0
668.462	1.0	go	0.405	Go_O	1.0
670.986	1.0	go	0.699	Go_O	1.0
673.51	1.0	go	0.547	Go_X	1.0
676.034	0.2	stop	0.0	Go_X	1.0
678.559	1.0	go	0.752	Go_X	1.0
681.083	0.25	stop	0.499	Go_O	0.0
683.607	1.0	go	0.593	Go_O	1.0
686.131	1.0	go	0.517	Go_X	1.0
688.656	0.2	stop	0.375	Go_X	0.0
691.18	1.0	go	0.535	Go_O	1.0
693.704	1.0	go	0.632	Go_X	1.0
696.228	1.0	go	0.581	Go_O	1.0
698.752	1.0	go	0.537	Go_O	1.0
701.277	0.15	stop	0.0	Go_O	1.0
703.801	1.0	go	0.429	Go_X	1.0
706.325	0.2	stop	0.0	Go_X	1.0
708.849	1.0	go	0.51	Go_X	1.0
711.373	1.0	go	0.335	Go_O	1.0
713.898	1.0	go	0.473	Go_X	1.0
716.422	1.0	go	0.357	Go_O	1.0
718.946	1.0	go	0.473	Go_O	1.0
721.47	1.0	go	0.391	Go_X	1.0
723.995	0.25	stop	0.379	Go_O	0.0
726.519	1.0	go	0.856	Go_O	1.0
729.043	1.0	go	0.383	Go_X	1.0
731.567	0.2	stop	0.0	Go_X	1.0
734.091	1.0	go	0.323	Go_X	1.0
736.616	1.0	go	0.609	Go_O	1.0
739.14	0.25	stop	0.782	Go_O	0.0
741.664	1.0	go	0.483	Go_O	1.0
744.188	1.0	go	0.385	Go_X	1.0
746.712	1.0	go	0.591	Go_X	1.0
749.237	1.0	go	0.269	Go_O	1.0
751.761	0.2	stop	0.299	Go_X	0.0
754.285	1.0	go	0.28	Go_O	1.0
756.809	0.15	stop	0.0	Go_O	1.0
759.333	1.0	go	0.316	Go_X	1.0
761.858	1.0	go	0.488	Go_X	1.0
764.382	1.0	go	0.386	Go_O	1.0
766.906	1.0	go	0.325	Go_X	1.0
769.43	1.0	go	0.35	Go_O	1.0
771.955	0.2	stop	0.255	Go_X	0.0
774.479	1.0	go	0.672	Go_O	1.0
777.003	1.0	go	0.338	Go_X	1.0
779.527	0.15	stop	0.31	Go_O	0.0
782.051	0.1	stop	0.281	Go_X	0.0
784.576	1.0	go	0.59	Go_X	1.0
787.1	1.0	go	0.295	Go_O	1.0
789.624	1.0	go	0.375	Go_X	1.0
792.148	1.0	go	0.536	Go_O	1.0
794.672	0.05	stop	0.0	Go_O	1.0
797.197	1.0	go	0.471	Go_O	1.0
