onset	duration	trial_type	response_time	stim_file	accuracy
85.48	1.0	go	0.0	Go_O	0.0
88.004	1.0	go	0.421	Go_X	1.0
90.528	1.0	go	0.473	Go_O	1.0
93.053	1.0	go	0.403	Go_X	1.0
95.577	1.0	go	0.524	Go_O	1.0
98.101	1.0	go	0.448	Go_X	1.0
100.625	0.25	stop	0.468	Go_O	0.0
103.149	1.0	go	0.463	Go_O	1.0
105.674	0.2	stop	0.339	Go_X	0.0
108.198	1.0	go	0.407	Go_X	1.0
110.722	1.0	go	0.524	Go_O	1.0
113.246	1.0	go	0.497	Go_X	1.0
115.77	0.15	stop	0.361	Go_O	0.0
118.295	1.0	go	0.53	Go_X	1.0
120.819	1.0	go	0.55	Go_O	1.0
123.343	0.1	stop	0.0	Go_X	1.0
125.867	0.15	stop	0.349	Go_O	0.0
128.391	1.0	go	0.572	Go_X	1.0
130.916	1.0	go	0.369	Go_O	1.0
133.44	0.1	stop	0.0	Go_X	1.0
135.964	1.0	go	0.431	Go_X	1.0
138.488	1.0	go	0.384	Go_O	1.0
141.012	0.15	stop	0.0	Go_O	1.0
143.536	1.0	go	0.424	Go_O	1.0
146.061	1.0	go	0.675	Go_X	1.0
148.585	0.2	stop	0.0	Go_X	1.0
151.109	1.0	go	0.404	Go_O	1.0
153.633	1.0	go	0.478	Go_X	1.0
156.157	0.25	stop	0.0	Go_O	1.0
158.682	1.0	go	0.621	Go_O	1.0
161.206	1.0	go	0.741	Go_X	1.0
163.73	1.0	go	0.462	Go_O	1.0
166.254	1.0	go	0.493	Go_X	1.0
168.778	1.0	go	0.411	Go_X	1.0
171.303	0.3	stop	0.435	Go_X	0.0
173.827	1.0	go	0.801	Go_O	1.0
176.351	1.0	go	0.771	Go_O	1.0
178.875	1.0	go	0.531	Go_X	1.0
181.399	1.0	go	0.424	Go_O	0.0
183.924	1.0	go	0.458	Go_X	1.0
186.448	0.25	stop	0.0	Go_O	1.0
188.972	1.0	go	0.489	Go_O	1.0
191.496	1.0	go	0.417	Go_X	1.0
194.02	1.0	go	0.549	Go_X	0.0
196.545	1.0	go	0.621	Go_O	1.0
199.069	1.0	go	0.572	Go_X	1.0
201.593	1.0	go	0.554	Go_O	1.0
204.117	0.3	stop	0.383	Go_X	0.0
206.641	1.0	go	0.717	Go_O	1.0
209.165	1.0	go	0.566	Go_X	1.0
211.69	0.25	stop	0.0	Go_O	1.0
214.214	1.0	go	0.505	Go_O	1.0
216.738	0.3	stop	0.597	Go_X	0.0
219.262	0.25	stop	0.0	Go_O	1.0
221.786	1.0	go	0.463	Go_X	1.0
224.311	1.0	go	0.0	Go_O	0.0
226.835	1.0	go	0.47	Go_X	1.0
229.359	1.0	go	0.537	Go_O	1.0
231.883	0.3	stop	0.515	Go_X	0.0
234.407	1.0	go	0.724	Go_X	1.0
236.932	0.25	stop	0.0	Go_O	1.0
239.456	1.0	go	0.422	Go_X	1.0
241.98	1.0	go	0.599	Go_O	1.0
244.504	1.0	go	0.555	Go_O	1.0
247.028	1.0	go	0.0	Go_X	0.0
249.553	1.0	go	0.365	Go_O	1.0
252.077	1.0	go	0.476	Go_X	1.0
254.601	1.0	go	0.368	Go_O	1.0
257.125	1.0	go	0.425	Go_X	1.0
259.649	1.0	go	0.582	Go_O	1.0
262.174	0.3	stop	0.574	Go_X	0.0
264.698	1.0	go	0.524	Go_X	0.0
267.222	1.0	go	0.391	Go_X	1.0
269.746	1.0	go	0.403	Go_O	1.0
272.27	0.25	stop	0.0	Go_O	1.0
274.794	1.0	go	0.477	Go_X	1.0
277.319	1.0	go	0.494	Go_O	1.0
279.843	1.0	go	0.626	Go_O	1.0
282.367	1.0	go	0.572	Go_X	1.0
284.891	1.0	go	0.557	Go_X	1.0
287.415	1.0	go	0.661	Go_O	1.0
289.94	0.3	stop	0.486	Go_X	0.0
292.464	1.0	go	0.878	Go_X	1.0
294.988	1.0	go	0.546	Go_O	1.0
297.512	0.25	stop	0.0	Go_O	1.0
300.036	1.0	go	0.573	Go_O	1.0
302.561	1.0	go	0.455	Go_X	1.0
305.085	0.3	stop	0.518	Go_X	0.0
307.609	1.0	go	0.44	Go_X	1.0
310.133	0.25	stop	0.429	Go_O	0.0
312.657	1.0	go	0.723	Go_O	1.0
315.182	1.0	go	0.449	Go_O	1.0
317.706	1.0	go	0.421	Go_X	1.0
320.23	1.0	go	0.419	Go_O	1.0
322.754	1.0	go	0.399	Go_X	1.0
325.278	0.2	stop	0.483	Go_X	0.0
327.803	0.15	stop	0.0	Go_O	1.0
330.327	1.0	go	0.492	Go_O	1.0
332.851	1.0	go	0.554	Go_X	1.0
335.375	0.2	stop	0.0	Go_X	1.0
337.916	1.0	go	0.492	Go_O	1.0
340.44	1.0	go	0.6	Go_X	1.0
342.964	1.0	go	0.444	Go_X	1.0
345.489	1.0	go	0.451	Go_O	1.0
348.013	1.0	go	0.66	Go_X	1.0
350.537	1.0	go	0.727	Go_O	1.0
353.061	0.25	stop	0.0	Go_O	1.0
355.585	1.0	go	0.486	Go_X	1.0
358.11	1.0	go	0.927	Go_O	1.0
360.634	1.0	go	0.425	Go_O	1.0
363.158	1.0	go	0.515	Go_X	1.0
365.682	1.0	go	0.411	Go_X	1.0
368.206	0.3	stop	0.484	Go_X	0.0
370.73	1.0	go	0.919	Go_O	1.0
373.255	1.0	go	0.441	Go_O	1.0
375.779	1.0	go	0.398	Go_X	1.0
378.303	1.0	go	0.46	Go_O	1.0
380.827	0.25	stop	0.454	Go_O	0.0
383.351	1.0	go	0.565	Go_X	1.0
385.876	1.0	go	0.702	Go_O	1.0
388.4	0.2	stop	0.0	Go_X	1.0
390.924	1.0	go	0.6	Go_X	1.0
393.448	0.25	stop	0.0	Go_O	1.0
395.972	1.0	go	0.512	Go_O	1.0
398.497	1.0	go	0.559	Go_X	1.0
401.021	1.0	go	0.671	Go_X	1.0
403.545	1.0	go	0.493	Go_O	1.0
406.069	1.0	go	0.561	Go_X	1.0
408.593	1.0	go	0.769	Go_O	1.0
411.118	1.0	go	0.627	Go_O	1.0
413.642	0.3	stop	0.616	Go_X	0.0
416.166	1.0	go	0.476	Go_X	1.0
418.69	1.0	go	0.647	Go_O	1.0
421.214	1.0	go	0.748	Go_X	1.0
423.739	0.25	stop	0.665	Go_O	0.0
426.263	1.0	go	0.753	Go_O	1.0
428.787	1.0	go	0.76	Go_X	1.0
431.311	1.0	go	0.628	Go_X	1.0
433.835	1.0	go	0.73	Go_O	1.0
436.36	0.2	stop	0.0	Go_X	1.0
438.884	1.0	go	0.769	Go_O	1.0
441.408	1.0	go	0.709	Go_X	1.0
443.932	0.25	stop	0.608	Go_O	0.0
446.456	1.0	go	0.0	Go_X	0.0
448.98	1.0	go	0.591	Go_O	1.0
451.505	0.2	stop	0.539	Go_X	0.0
454.029	1.0	go	0.739	Go_O	1.0
456.553	1.0	go	0.547	Go_X	0.0
459.077	0.15	stop	0.0	Go_O	1.0
461.601	1.0	go	0.632	Go_X	1.0
464.126	1.0	go	0.703	Go_O	1.0
466.65	1.0	go	0.933	Go_O	1.0
469.174	1.0	go	0.69	Go_X	1.0
471.698	1.0	go	0.565	Go_X	1.0
474.222	1.0	go	0.619	Go_O	1.0
476.747	0.2	stop	0.0	Go_X	1.0
479.271	1.0	go	0.683	Go_X	1.0
481.795	0.25	stop	0.0	Go_O	1.0
484.319	1.0	go	0.541	Go_O	1.0
486.843	1.0	go	0.649	Go_O	1.0
489.368	1.0	go	0.562	Go_X	1.0
491.892	1.0	go	0.389	Go_O	1.0
494.416	1.0	go	0.669	Go_X	1.0
496.94	0.3	stop	0.465	Go_X	0.0
499.464	1.0	go	0.662	Go_O	1.0
501.988	1.0	go	0.602	Go_X	1.0
504.513	1.0	go	0.6	Go_X	1.0
507.037	0.25	stop	0.6	Go_O	0.0
509.561	0.2	stop	0.59	Go_X	0.0
512.085	0.15	stop	0.0	Go_O	1.0
514.609	1.0	go	0.663	Go_O	1.0
517.134	0.2	stop	0.0	Go_X	1.0
519.658	1.0	go	0.587	Go_O	1.0
522.182	1.0	go	0.771	Go_X	1.0
524.706	1.0	go	0.511	Go_O	1.0
527.23	1.0	go	0.524	Go_X	0.0
529.755	1.0	go	0.605	Go_O	1.0
532.279	1.0	go	0.49	Go_X	1.0
534.803	1.0	go	0.719	Go_O	1.0
537.327	1.0	go	0.677	Go_X	1.0
539.851	0.25	stop	0.0	Go_O	1.0
542.376	1.0	go	0.507	Go_X	1.0
544.9	1.0	go	0.601	Go_O	1.0
547.424	0.3	stop	0.482	Go_X	0.0
549.948	1.0	go	0.711	Go_X	1.0
552.472	1.0	go	0.801	Go_O	1.0
554.997	1.0	go	0.763	Go_X	1.0
557.521	1.0	go	0.97	Go_O	1.0
560.045	1.0	go	0.603	Go_O	1.0
562.569	0.25	stop	0.0	Go_O	1.0
565.093	1.0	go	0.914	Go_X	1.0
567.617	1.0	go	0.632	Go_X	1.0
570.142	1.0	go	0.668	Go_O	1.0
572.666	0.3	stop	0.0	Go_X	1.0
575.19	1.0	go	0.539	Go_O	1.0
577.714	0.35	stop	0.0	Go_O	1.0
580.238	1.0	go	0.837	Go_X	1.0
582.763	1.0	go	0.568	Go_X	1.0
585.287	1.0	go	0.593	Go_O	1.0
587.811	1.0	go	0.749	Go_X	1.0
590.335	1.0	go	0.8	Go_O	1.0
592.859	1.0	go	0.631	Go_O	1.0
595.384	1.0	go	0.874	Go_X	1.0
597.908	0.4	stop	0.0	Go_X	1.0
600.432	1.0	go	0.556	Go_X	1.0
602.956	1.0	go	0.531	Go_O	1.0
605.48	1.0	go	0.468	Go_X	1.0
608.005	1.0	go	0.562	Go_O	1.0
610.529	0.45	stop	0.515	Go_O	0.0
613.053	1.0	go	0.792	Go_O	1.0
615.577	0.4	stop	0.612	Go_X	0.0
618.101	1.0	go	0.554	Go_X	1.0
620.626	1.0	go	0.413	Go_O	1.0
623.15	0.35	stop	0.478	Go_O	0.0
625.674	1.0	go	0.467	Go_X	1.0
628.198	1.0	go	0.496	Go_O	1.0
630.722	1.0	go	0.399	Go_X	1.0
633.246	1.0	go	0.795	Go_X	0.0
635.771	1.0	go	0.532	Go_O	1.0
638.295	1.0	go	0.586	Go_X	1.0
640.819	1.0	go	0.454	Go_O	1.0
643.343	1.0	go	0.567	Go_O	1.0
645.867	1.0	go	0.449	Go_X	1.0
648.392	1.0	go	0.397	Go_O	1.0
650.916	0.3	stop	0.713	Go_X	0.0
653.44	1.0	go	0.499	Go_X	1.0
655.964	1.0	go	0.479	Go_O	1.0
658.488	0.25	stop	0.438	Go_O	0.0
661.013	1.0	go	0.63	Go_X	1.0
663.537	0.2	stop	0.0	Go_X	1.0
666.061	1.0	go	0.659	Go_O	1.0
668.585	1.0	go	0.432	Go_X	1.0
671.109	0.25	stop	0.0	Go_O	1.0
673.634	1.0	go	0.524	Go_O	1.0
676.158	0.3	stop	0.0	Go_X	1.0
678.682	1.0	go	0.541	Go_X	1.0
681.206	1.0	go	0.596	Go_X	1.0
683.73	1.0	go	0.874	Go_O	1.0
686.255	0.35	stop	0.0	Go_O	1.0
688.779	1.0	go	0.476	Go_X	1.0
691.303	1.0	go	0.61	Go_O	1.0
693.827	1.0	go	0.502	Go_O	1.0
696.351	1.0	go	0.791	Go_X	1.0
698.875	0.4	stop	0.526	Go_X	0.0
701.4	1.0	go	0.775	Go_O	1.0
703.924	1.0	go	0.615	Go_X	0.0
706.448	0.35	stop	0.524	Go_O	0.0
708.972	1.0	go	0.482	Go_X	1.0
711.496	1.0	go	0.78	Go_O	1.0
714.021	1.0	go	0.618	Go_X	1.0
716.545	1.0	go	0.461	Go_O	1.0
719.069	0.3	stop	0.382	Go_X	0.0
721.593	1.0	go	0.625	Go_X	1.0
724.117	0.25	stop	0.0	Go_O	1.0
726.642	1.0	go	0.533	Go_O	1.0
729.166	1.0	go	0.733	Go_X	1.0
731.69	0.3	stop	0.46	Go_X	0.0
734.214	1.0	go	0.796	Go_O	1.0
736.738	1.0	go	0.506	Go_X	1.0
739.263	1.0	go	0.437	Go_O	1.0
741.787	1.0	go	0.589	Go_O	0.0
744.311	0.25	stop	0.0	Go_O	1.0
746.835	1.0	go	0.459	Go_X	1.0
749.359	0.3	stop	0.0	Go_X	1.0
751.884	1.0	go	0.479	Go_O	1.0
754.408	1.0	go	0.59	Go_X	1.0
756.932	1.0	go	0.833	Go_O	1.0
759.456	1.0	go	0.738	Go_X	1.0
761.98	1.0	go	0.481	Go_X	1.0
764.504	1.0	go	0.53	Go_O	1.0
767.029	0.35	stop	0.485	Go_O	0.0
769.553	1.0	go	0.0	Go_O	0.0
772.077	1.0	go	0.557	Go_X	1.0
774.601	0.3	stop	0.465	Go_X	0.0
777.125	1.0	go	0.595	Go_O	1.0
779.65	1.0	go	0.76	Go_X	1.0
782.174	0.25	stop	0.452	Go_O	0.0
784.698	1.0	go	0.542	Go_X	1.0
787.222	1.0	go	0.644	Go_O	1.0
789.746	1.0	go	0.625	Go_X	1.0
792.271	1.0	go	0.821	Go_O	1.0
794.795	0.2	stop	0.0	Go_X	1.0
797.319	1.0	go	0.911	Go_X	1.0
799.843	0.25	stop	0.551	Go_O	0.0
802.367	1.0	go	0.585	Go_O	1.0
804.892	1.0	go	0.522	Go_O	1.0
807.416	1.0	go	0.62	Go_X	1.0
809.94	1.0	go	0.56	Go_O	1.0
812.464	1.0	go	0.422	Go_X	1.0
814.988	0.2	stop	0.0	Go_X	1.0
817.513	1.0	go	0.543	Go_O	1.0
820.053	1.0	go	0.117	Go_X	1.0
822.578	0.25	stop	0.637	Go_O	0.0
825.102	0.2	stop	0.0	Go_X	1.0
827.626	1.0	go	0.626	Go_X	1.0
830.15	1.0	go	0.622	Go_O	1.0
832.674	1.0	go	0.471	Go_X	1.0
835.199	1.0	go	0.549	Go_O	1.0
837.723	0.25	stop	0.0	Go_O	1.0
840.247	1.0	go	0.824	Go_O	1.0
