onset	duration	trial_type	response_time	stim_file	accuracy
88.068	1.0	go	0.609	Go_X	1.0
90.602	1.0	go	0.56	Go_O	1.0
93.135	1.0	go	0.409	Go_X	1.0
95.668	1.0	go	0.621	Go_O	1.0
98.201	1.0	go	0.955	Go_X	1.0
100.735	1.0	go	0.427	Go_O	1.0
103.268	0.25	stopsuccess	0.0	Go_O	1.0
105.801	1.0	go	0.632	Go_X	1.0
108.334	0.3	stopsuccess	0.0	Go_X	1.0
110.868	1.0	go	0.501	Go_O	1.0
113.417	1.0	go	0.589	Go_X	1.0
115.951	1.0	go	0.476	Go_O	1.0
118.484	0.35	stopfail	0.426	Go_O	0.0
121.017	1.0	go	0.645	Go_X	1.0
123.55	1.0	go	0.691	Go_O	1.0
126.084	0.3	stopsuccess	0.0	Go_X	1.0
128.617	0.35	stopfail	0.401	Go_O	0.0
131.15	1.0	go	0.597	Go_O	1.0
133.683	1.0	go	0.694	Go_X	1.0
136.217	0.3	stopsuccess	0.0	Go_X	1.0
138.75	1.0	go	0.739	Go_O	1.0
141.283	1.0	go	0.448	Go_X	1.0
143.816	0.35	stopfail	0.277	Go_O	0.0
146.35	1.0	go	0.641	Go_O	1.0
148.883	1.0	go	0.703	Go_X	1.0
151.416	0.3	stopsuccess	0.0	Go_X	1.0
153.949	1.0	go	0.719	Go_O	1.0
156.483	1.0	go	0.462	Go_X	1.0
159.016	0.35	stopfail	0.477	Go_O	0.0
161.549	1.0	go	0.653	Go_O	1.0
164.082	1.0	go	0.668	Go_X	1.0
166.616	1.0	go	0.756	Go_X	1.0
169.165	1.0	go	0.686	Go_O	1.0
171.699	1.0	go	0.639	Go_O	1.0
174.232	0.3	stopsuccess	0.0	Go_X	1.0
176.765	1.0	go	0.619	Go_X	1.0
179.298	1.0	go	0.452	Go_O	1.0
181.832	1.0	go	0.662	Go_X	1.0
184.365	1.0	go	0.71	Go_X	1.0
186.898	1.0	go	0.628	Go_O	1.0
189.431	0.35	stopsuccess	0.0	Go_O	1.0
191.965	1.0	go	0.485	Go_O	1.0
194.498	1.0	go	0.617	Go_X	1.0
197.031	1.0	go	0.584	Go_O	1.0
199.564	1.0	go	0.668	Go_X	1.0
202.098	1.0	go	0.54	Go_X	1.0
204.631	1.0	go	0.497	Go_O	1.0
207.164	0.4	stopfail	0.544	Go_X	0.0
209.697	1.0	go	0.342	Go_O	1.0
212.231	1.0	go	0.375	Go_X	1.0
214.764	0.35	stopfail	0.421	Go_O	0.0
217.297	1.0	go	0.572	Go_X	1.0
219.83	0.3	stopsuccess	0.0	Go_X	1.0
222.364	0.35	stopfail	0.412	Go_O	0.0
224.897	1.0	go	0.487	Go_O	1.0
227.43	1.0	go	0.458	Go_X	1.0
229.963	1.0	go	0.749	Go_O	1.0
232.497	1.0	go	0.654	Go_X	1.0
235.046	0.3	stopsuccess	0.0	Go_X	1.0
237.58	1.0	go	0.363	Go_O	1.0
240.113	0.35	stopfail	0.407	Go_O	0.0
242.646	1.0	go	0.535	Go_O	1.0
245.179	1.0	go	0.651	Go_X	1.0
247.713	1.0	go	0.654	Go_O	1.0
250.246	1.0	go	0.497	Go_X	1.0
252.779	1.0	go	0.45	Go_O	1.0
255.312	1.0	go	0.548	Go_X	1.0
257.846	1.0	go	0.532	Go_O	1.0
260.379	1.0	go	0.611	Go_X	1.0
262.912	1.0	go	0.545	Go_X	1.0
265.445	0.3	stopsuccess	0.0	Go_X	1.0
267.979	1.0	go	0.511	Go_O	1.0
270.512	1.0	go	0.465	Go_O	1.0
273.045	1.0	go	0.432	Go_X	1.0
275.578	0.35	stopfail	0.414	Go_O	0.0
278.112	1.0	go	0.628	Go_X	1.0
280.645	1.0	go	0.467	Go_O	1.0
283.178	1.0	go	0.391	Go_O	1.0
285.711	1.0	go	0.364	Go_X	1.0
288.245	1.0	go	0.406	Go_X	1.0
290.794	1.0	go	0.38	Go_O	1.0
293.328	0.3	stopfail	0.366	Go_X	0.0
295.861	1.0	go	0.509	Go_O	1.0
298.394	1.0	go	0.59	Go_X	1.0
300.927	0.25	stopsuccess	0.0	Go_O	1.0
303.461	1.0	go	0.576	Go_O	1.0
305.994	1.0	go	0.386	Go_X	1.0
308.527	0.3	stopfail	0.414	Go_X	0.0
311.06	1.0	go	0.398	Go_O	1.0
313.594	0.25	stopsuccess	0.0	Go_O	1.0
316.127	1.0	go	0.504	Go_X	1.0
318.66	1.0	go	0.631	Go_X	1.0
321.193	1.0	go	0.655	Go_O	1.0
323.727	1.0	go	0.594	Go_X	1.0
326.26	1.0	go	0.516	Go_O	1.0
328.793	0.3	stopfail	0.451	Go_X	0.0
331.326	0.25	stopfail	0.395	Go_O	0.0
333.86	1.0	go	0.536	Go_O	1.0
336.393	1.0	go	0.698	Go_X	1.0
338.926	0.2	stopsuccess	0.0	Go_X	1.0
341.459	1.0	go	0.599	Go_X	1.0
343.993	1.0	go	0.581	Go_O	1.0
346.542	1.0	go	0.572	Go_X	1.0
349.076	1.0	go	0.554	Go_O	1.0
351.609	1.0	go	0.487	Go_O	1.0
354.142	1.0	go	0.711	Go_X	1.0
356.675	0.25	stopsuccess	0.0	Go_O	1.0
359.209	1.0	go	0.412	Go_X	1.0
361.742	1.0	go	0.886	Go_O	1.0
364.275	1.0	go	0.575	Go_X	1.0
366.808	1.0	go	0.514	Go_O	1.0
369.342	1.0	go	0.448	Go_X	1.0
371.875	0.3	stopfail	0.441	Go_X	0.0
374.408	1.0	go	0.424	Go_O	1.0
376.941	1.0	go	0.557	Go_O	1.0
379.475	1.0	go	0.506	Go_X	1.0
382.008	1.0	go	0.519	Go_X	1.0
384.541	0.25	stopsuccess	0.0	Go_O	1.0
387.074	1.0	go	0.404	Go_O	1.0
389.608	1.0	go	0.671	Go_X	1.0
392.141	0.3	stopsuccess	0.0	Go_X	1.0
394.674	1.0	go	0.442	Go_O	1.0
397.207	0.35	stopsuccess	0.0	Go_O	1.0
399.741	1.0	go	0.714	Go_X	1.0
402.274	1.0	go	0.839	Go_O	1.0
404.807	1.0	go	0.68	Go_X	1.0
407.34	1.0	go	0.558	Go_O	1.0
409.874	1.0	go	0.474	Go_O	1.0
412.423	1.0	go	0.633	Go_X	1.0
414.957	1.0	go	0.817	Go_X	1.0
417.49	0.4	stopfail	0.457	Go_X	0.0
420.023	1.0	go	0.493	Go_O	1.0
422.556	1.0	go	0.387	Go_O	1.0
425.09	1.0	go	0.498	Go_X	1.0
427.623	0.35	stopfail	0.529	Go_O	0.0
430.156	1.0	go	0.558	Go_O	1.0
432.689	1.0	go	0.633	Go_X	1.0
435.223	1.0	go	0.475	Go_X	1.0
437.756	1.0	go	0.387	Go_O	1.0
440.289	0.3	stopsuccess	0.0	Go_X	1.0
442.822	1.0	go	0.49	Go_X	1.0
445.356	1.0	go	0.462	Go_O	1.0
447.889	0.35	stopfail	0.536	Go_O	0.0
450.422	1.0	go	0.494	Go_O	1.0
452.955	1.0	go	0.448	Go_X	1.0
455.489	0.3	stopsuccess	0.0	Go_X	1.0
458.022	1.0	go	0.551	Go_X	1.0
460.555	1.0	go	0.419	Go_O	1.0
463.088	0.35	stopfail	0.427	Go_O	0.0
465.622	1.0	go	0.512	Go_O	1.0
468.171	1.0	go	0.398	Go_X	1.0
470.705	1.0	go	0.461	Go_O	1.0
473.238	1.0	go	0.375	Go_X	1.0
475.771	1.0	go	0.35	Go_X	1.0
478.304	1.0	go	0.37	Go_O	1.0
480.838	0.3	stopfail	0.392	Go_X	0.0
483.371	1.0	go	0.421	Go_O	1.0
485.904	0.25	stopfail	0.343	Go_O	0.0
488.437	1.0	go	0.428	Go_X	1.0
490.971	1.0	go	0.477	Go_O	1.0
493.504	1.0	go	0.566	Go_X	1.0
496.037	1.0	go	0.368	Go_X	1.0
498.57	1.0	go	0.603	Go_O	1.0
501.104	0.2	stopsuccess	0.0	Go_X	1.0
503.637	1.0	go	0.484	Go_O	1.0
506.17	1.0	go	0.606	Go_X	1.0
508.703	1.0	go	0.449	Go_O	1.0
511.237	0.25	stopfail	0.545	Go_O	0.0
513.77	0.2	stopsuccess	0.0	Go_X	1.0
516.303	0.25	stopsuccess	0.0	Go_O	1.0
518.836	1.0	go	0.362	Go_X	1.0
521.37	0.3	stopfail	0.425	Go_X	0.0
523.919	1.0	go	0.343	Go_O	1.0
526.453	1.0	go	0.482	Go_X	1.0
528.986	1.0	go	0.342	Go_O	1.0
531.519	1.0	go	0.431	Go_X	1.0
534.052	1.0	go	0.469	Go_O	1.0
536.586	1.0	go	0.563	Go_X	1.0
539.119	1.0	go	0.63	Go_X	1.0
541.652	1.0	go	0.608	Go_O	1.0
544.185	0.25	stopsuccess	0.0	Go_O	1.0
546.719	1.0	go	0.42	Go_X	1.0
549.252	1.0	go	0.466	Go_O	1.0
551.785	0.3	stopfail	0.465	Go_X	0.0
554.318	1.0	go	0.52	Go_X	1.0
556.852	1.0	go	0.382	Go_O	1.0
559.385	1.0	go	0.468	Go_O	1.0
561.918	1.0	go	0.375	Go_X	1.0
564.451	1.0	go	0.464	Go_O	1.0
566.985	0.25	stopsuccess	0.0	Go_O	1.0
569.518	1.0	go	0.394	Go_X	1.0
572.051	1.0	go	0.455	Go_O	1.0
574.584	1.0	go	0.47	Go_X	1.0
577.118	0.3	stopfail	0.443	Go_X	0.0
579.651	1.0	go	0.546	Go_X	1.0
582.184	0.25	stopsuccess	0.0	Go_O	1.0
584.717	1.0	go	0.416	Go_O	1.0
587.251	1.0	go	0.442	Go_X	1.0
589.8	1.0	go	0.499	Go_O	1.0
592.334	1.0	go	0.559	Go_X	1.0
594.867	1.0	go	0.531	Go_O	1.0
597.4	1.0	go	0.42	Go_O	1.0
599.933	1.0	go	0.407	Go_X	1.0
602.467	0.3	stopfail	0.478	Go_X	0.0
605.0	1.0	go	0.393	Go_X	1.0
607.533	1.0	go	0.531	Go_O	1.0
610.066	1.0	go	0.42	Go_X	1.0
612.6	1.0	go	0.38	Go_O	1.0
615.133	0.25	stopfail	0.542	Go_O	0.0
617.666	1.0	go	0.386	Go_O	1.0
620.199	0.2	stopfail	0.37	Go_X	0.0
622.733	1.0	go	0.314	Go_X	0.0
625.266	1.0	go	0.484	Go_O	1.0
627.799	0.15	stopsuccess	0.0	Go_O	1.0
630.332	1.0	go	0.272	Go_X	1.0
632.866	1.0	go	0.345	Go_X	1.0
635.399	1.0	go	0.511	Go_O	1.0
637.932	1.0	go	0.421	Go_O	1.0
640.465	1.0	go	0.371	Go_X	1.0
642.999	1.0	go	0.345	Go_O	1.0
645.548	1.0	go	0.539	Go_X	1.0
648.082	1.0	go	0.526	Go_X	1.0
650.615	1.0	go	0.602	Go_O	1.0
653.148	1.0	go	0.683	Go_X	1.0
655.681	0.2	stopsuccess	0.0	Go_X	1.0
658.215	1.0	go	0.361	Go_O	1.0
660.748	1.0	go	0.409	Go_O	1.0
663.281	0.25	stopfail	0.384	Go_O	0.0
665.814	1.0	go	0.442	Go_X	1.0
668.348	0.2	stopfail	0.33	Go_X	0.0
670.881	1.0	go	0.428	Go_O	1.0
673.414	1.0	go	0.352	Go_X	1.0
675.947	0.15	stopsuccess	0.0	Go_O	1.0
678.481	1.0	go	0.379	Go_O	1.0
681.014	0.2	stopfail	0.42	Go_X	0.0
683.547	1.0	go	0.55	Go_X	0.0
686.08	1.0	go	0.519	Go_X	1.0
688.614	1.0	go	0.44	Go_O	1.0
691.147	0.15	stopsuccess	0.0	Go_O	1.0
693.68	1.0	go	0.454	Go_X	1.0
696.213	1.0	go	0.505	Go_O	1.0
698.747	1.0	go	0.445	Go_X	1.0
701.28	1.0	go	0.378	Go_O	1.0
703.813	0.2	stopfail	0.442	Go_X	0.0
706.346	1.0	go	0.301	Go_X	1.0
708.88	1.0	go	0.439	Go_O	1.0
711.429	0.15	stopsuccess	0.0	Go_O	1.0
713.963	1.0	go	0.486	Go_X	1.0
716.496	1.0	go	0.518	Go_O	1.0
719.029	1.0	go	0.31	Go_X	1.0
721.562	1.0	go	0.51	Go_O	1.0
724.096	0.2	stopsuccess	0.0	Go_X	1.0
726.629	1.0	go	0.439	Go_O	1.0
729.162	0.25	stopsuccess	0.0	Go_O	1.0
731.695	1.0	go	0.236	Go_X	1.0
734.229	1.0	go	0.426	Go_X	1.0
736.762	0.3	stopfail	0.404	Go_X	0.0
739.295	1.0	go	0.473	Go_O	1.0
741.828	1.0	go	0.383	Go_O	1.0
744.362	1.0	go	0.366	Go_X	1.0
746.895	1.0	go	0.352	Go_X	1.0
749.428	0.25	stopsuccess	0.0	Go_O	1.0
751.961	1.0	go	0.524	Go_O	1.0
754.495	0.3	stopfail	0.426	Go_X	0.0
757.028	1.0	go	0.256	Go_O	1.0
759.561	1.0	go	0.369	Go_X	1.0
762.094	1.0	go	0.462	Go_O	1.0
764.628	1.0	go	0.4	Go_X	1.0
767.177	1.0	go	0.542	Go_O	1.0
769.711	1.0	go	0.542	Go_X	1.0
772.244	0.25	stopsuccess	0.0	Go_O	1.0
774.777	1.0	go	0.434	Go_O	1.0
777.31	1.0	go	0.482	Go_X	1.0
779.844	0.3	stopsuccess	0.0	Go_X	1.0
782.377	1.0	go	0.498	Go_O	1.0
784.91	1.0	go	0.358	Go_X	1.0
787.443	0.35	stopsuccess	0.0	Go_O	1.0
789.977	1.0	go	0.476	Go_O	1.0
792.51	1.0	go	0.404	Go_X	1.0
795.043	1.0	go	0.375	Go_X	1.0
797.576	1.0	go	0.53	Go_O	1.0
800.11	0.4	stopfail	0.454	Go_X	0.0
802.643	1.0	go	0.44	Go_X	1.0
805.176	0.35	stopfail	0.336	Go_O	0.0
807.709	1.0	go	0.453	Go_O	1.0
810.243	1.0	go	0.231	Go_O	0.0
812.776	1.0	go	0.594	Go_X	1.0
815.309	1.0	go	0.383	Go_O	1.0
817.842	1.0	go	0.341	Go_X	1.0
820.376	0.3	stopfail	0.427	Go_X	0.0
822.925	1.0	go	0.37	Go_X	1.0
825.459	1.0	go	0.28	Go_O	1.0
827.992	0.25	stopfail	0.431	Go_O	0.0
830.525	0.2	stopfail	0.385	Go_X	0.0
833.058	1.0	go	0.433	Go_X	1.0
835.592	1.0	go	0.408	Go_O	1.0
838.125	1.0	go	0.391	Go_X	1.0
840.658	1.0	go	0.443	Go_O	1.0
843.191	0.15	stopfail	0.355	Go_O	0.0
845.725	1.0	go	0.382	Go_O	1.0
