onset	duration	trial_type	response_time	stim_file	accuracy
76.149	1.0	go	0.0	Go_O	0.0
78.673	1.0	go	0.488	Go_X	1.0
81.2	1.0	go	0.471	Go_X	1.0
83.738	1.0	go	0.399	Go_O	1.0
86.279	1.0	go	0.682	Go_O	1.0
88.803	1.0	go	0.682	Go_X	1.0
91.327	0.25	stop	0.0	Go_O	1.0
93.868	1.0	go	0.386	Go_X	1.0
96.392	0.3	stop	0.0	Go_X	1.0
98.918	1.0	go	0.383	Go_O	1.0
101.441	1.0	go	0.7	Go_X	1.0
103.965	1.0	go	0.601	Go_O	1.0
106.489	0.35	stop	0.0	Go_O	1.0
109.013	1.0	go	0.404	Go_X	1.0
111.538	1.0	go	0.862	Go_O	1.0
114.079	0.4	stop	0.413	Go_X	0.0
116.62	0.35	stop	0.466	Go_O	0.0
119.144	1.0	go	0.423	Go_X	1.0
121.668	1.0	go	0.005	Go_O	1.0
124.209	0.3	stop	0.0	Go_X	1.0
126.75	1.0	go	0.668	Go_O	1.0
129.274	1.0	go	0.824	Go_X	1.0
131.815	0.35	stop	0.0	Go_O	1.0
134.356	1.0	go	0.692	Go_X	1.0
136.88	1.0	go	0.69	Go_O	1.0
139.404	0.4	stop	0.0	Go_X	1.0
141.928	1.0	go	0.0	Go_X	0.0
144.453	1.0	go	0.494	Go_O	1.0
146.994	0.45	stop	0.0	Go_O	1.0
149.534	1.0	go	0.71	Go_O	1.0
152.075	1.0	go	0.0	Go_X	0.0
154.6	1.0	go	0.755	Go_O	1.0
157.124	1.0	go	0.525	Go_X	1.0
159.648	1.0	go	0.699	Go_O	1.0
162.172	0.5	stop	0.0	Go_X	1.0
164.713	1.0	go	0.951	Go_X	0.0
167.237	1.0	go	0.451	Go_X	1.0
169.761	1.0	go	0.781	Go_O	1.0
172.286	1.0	go	0.7	Go_X	1.0
174.81	1.0	go	0.943	Go_O	1.0
177.334	0.55	stop	0.0	Go_O	1.0
179.858	1.0	go	0.0	Go_X	0.0
182.383	1.0	go	0.494	Go_O	1.0
184.907	1.0	go	0.72	Go_X	0.0
187.431	1.0	go	0.499	Go_O	1.0
189.972	1.0	go	0.634	Go_X	1.0
192.496	1.0	go	0.0	Go_O	0.0
195.02	0.6	stop	0.447	Go_X	0.0
197.561	1.0	go	0.473	Go_O	1.0
200.085	1.0	go	0.448	Go_X	1.0
202.61	0.55	stop	0.431	Go_O	0.0
205.15	1.0	go	0.506	Go_O	1.0
207.675	0.5	stop	0.253	Go_X	0.0
210.216	0.45	stop	0.678	Go_O	0.0
212.757	1.0	go	0.269	Go_X	1.0
215.281	1.0	go	0.461	Go_X	1.0
217.805	1.0	go	0.799	Go_O	1.0
220.329	1.0	go	0.0	Go_O	0.0
222.853	0.4	stop	0.645	Go_X	0.0
225.378	1.0	go	0.0	Go_X	0.0
227.918	0.35	stop	0.0	Go_O	1.0
230.459	1.0	go	0.897	Go_X	1.0
232.984	1.0	go	0.0	Go_O	0.0
235.508	1.0	go	0.0	Go_X	0.0
238.049	1.0	go	0.0	Go_O	0.0
240.573	1.0	go	0.3	Go_X	1.0
243.114	1.0	go	0.345	Go_O	1.0
245.638	1.0	go	0.21	Go_O	1.0
248.179	1.0	go	0.0	Go_X	0.0
250.703	1.0	go	0.405	Go_X	1.0
253.244	0.4	stop	0.0	Go_X	1.0
255.785	1.0	go	0.694	Go_O	1.0
258.309	1.0	go	0.47	Go_O	1.0
260.833	1.0	go	0.585	Go_X	1.0
263.358	0.45	stop	0.0	Go_O	1.0
265.899	1.0	go	0.843	Go_O	1.0
268.423	1.0	go	0.648	Go_X	1.0
270.947	1.0	go	0.669	Go_X	1.0
273.471	1.0	go	0.0	Go_O	0.0
276.012	1.0	go	0.0	Go_O	0.0
278.536	1.0	go	0.0	Go_X	0.0
281.06	0.5	stop	0.0	Go_X	1.0
283.585	1.0	go	0.0	Go_X	0.0
286.109	1.0	go	0.0	Go_O	0.0
288.633	0.55	stop	0.0	Go_O	1.0
291.174	1.0	go	0.0	Go_X	0.0
293.698	1.0	go	0.0	Go_O	0.0
296.222	0.6	stop	0.868	Go_X	0.0
298.747	1.0	go	0.244	Go_O	1.0
301.271	0.55	stop	0.342	Go_O	0.0
303.812	1.0	go	0.503	Go_X	1.0
306.336	1.0	go	0.315	Go_O	1.0
308.86	1.0	go	0.34	Go_X	1.0
311.401	1.0	go	0.462	Go_X	1.0
313.925	1.0	go	0.585	Go_O	1.0
316.45	0.5	stop	0.553	Go_X	0.0
318.99	0.45	stop	0.0	Go_O	1.0
321.515	1.0	go	0.308	Go_X	1.0
324.039	1.0	go	0.61	Go_O	1.0
326.563	0.5	stop	0.489	Go_X	0.0
329.104	1.0	go	0.0	Go_X	0.0
331.628	1.0	go	0.0	Go_O	0.0
334.152	1.0	go	0.428	Go_X	1.0
336.677	1.0	go	0.475	Go_O	1.0
339.201	1.0	go	0.324	Go_O	0.0
341.742	1.0	go	0.453	Go_X	0.0
344.266	0.45	stop	0.651	Go_O	0.0
346.807	1.0	go	0.794	Go_O	1.0
349.331	1.0	go	0.386	Go_X	1.0
351.855	1.0	go	0.531	Go_O	1.0
354.396	1.0	go	0.0	Go_X	0.0
356.92	1.0	go	0.0	Go_O	0.0
359.444	0.4	stop	0.0	Go_X	1.0
361.985	1.0	go	0.454	Go_X	1.0
364.51	1.0	go	0.533	Go_O	1.0
367.034	1.0	go	0.0	Go_X	0.0
369.558	1.0	go	0.768	Go_X	1.0
372.082	0.45	stop	0.0	Go_O	1.0
374.606	1.0	go	0.0	Go_O	0.0
377.131	1.0	go	0.008	Go_O	1.0
379.655	0.5	stop	0.0	Go_X	1.0
382.196	1.0	go	0.0	Go_X	0.0
384.72	0.55	stop	0.0	Go_O	1.0
387.261	1.0	go	0.0	Go_X	0.0
389.785	1.0	go	0.0	Go_O	0.0
392.309	1.0	go	0.0	Go_X	0.0
394.833	1.0	go	0.399	Go_O	0.0
397.358	1.0	go	0.42	Go_O	1.0
399.882	1.0	go	0.359	Go_X	1.0
402.406	1.0	go	0.492	Go_O	1.0
404.93	0.6	stop	0.411	Go_X	0.0
407.455	1.0	go	0.681	Go_X	1.0
409.979	1.0	go	0.295	Go_O	1.0
412.503	1.0	go	0.0	Go_X	0.0
415.027	0.55	stop	0.0	Go_O	1.0
417.568	1.0	go	0.0	Go_X	0.0
420.092	1.0	go	0.372	Go_O	1.0
422.633	1.0	go	0.346	Go_X	1.0
425.157	1.0	go	0.488	Go_O	1.0
427.682	0.6	stop	0.91	Go_X	0.0
430.222	1.0	go	0.672	Go_O	1.0
432.747	1.0	go	0.0	Go_X	0.0
435.271	0.55	stop	0.514	Go_O	0.0
437.812	1.0	go	0.553	Go_O	1.0
440.336	1.0	go	0.615	Go_X	1.0
442.86	0.5	stop	0.625	Go_X	0.0
445.384	1.0	go	0.892	Go_O	1.0
447.909	1.0	go	0.0	Go_X	0.0
450.433	0.45	stop	0.517	Go_O	0.0
452.974	1.0	go	0.814	Go_O	1.0
455.498	1.0	go	0.0	Go_X	0.0
458.022	1.0	go	0.555	Go_O	1.0
460.546	1.0	go	0.0	Go_X	0.0
463.071	1.0	go	0.538	Go_X	1.0
465.595	1.0	go	0.0	Go_O	0.0
468.119	0.4	stop	0.0	Go_X	1.0
470.643	1.0	go	0.0	Go_O	0.0
473.167	0.45	stop	0.418	Go_O	0.0
475.692	1.0	go	0.0	Go_X	0.0
478.216	1.0	go	0.0	Go_O	0.0
480.74	1.0	go	0.572	Go_X	1.0
483.264	1.0	go	0.0	Go_O	0.0
485.788	1.0	go	0.0	Go_X	0.0
488.329	0.4	stop	0.0	Go_X	1.0
490.853	1.0	go	0.449	Go_X	1.0
493.378	1.0	go	0.296	Go_O	1.0
495.902	1.0	go	0.714	Go_X	1.0
498.443	0.45	stop	0.0	Go_O	1.0
500.984	0.5	stop	0.0	Go_X	1.0
503.525	0.55	stop	0.0	Go_O	1.0
506.066	1.0	go	0.0	Go_O	0.0
508.607	0.6	stop	0.0	Go_X	1.0
511.131	1.0	go	0.0	Go_O	0.0
513.655	1.0	go	0.0	Go_X	0.0
516.179	1.0	go	0.0	Go_X	0.0
518.703	1.0	go	0.0	Go_O	0.0
521.227	1.0	go	0.437	Go_X	1.0
523.752	1.0	go	0.566	Go_O	1.0
526.276	1.0	go	0.0	Go_O	0.0
528.8	1.0	go	0.0	Go_X	0.0
531.341	0.65	stop	0.0	Go_O	1.0
533.865	1.0	go	0.697	Go_X	1.0
536.406	1.0	go	0.0	Go_O	0.0
538.93	0.7	stop	0.0	Go_X	1.0
541.455	1.0	go	0.0	Go_O	0.0
543.979	1.0	go	0.636	Go_X	1.0
546.503	1.0	go	0.0	Go_O	0.0
549.027	1.0	go	0.0	Go_X	0.0
551.551	1.0	go	0.0	Go_X	0.0
554.076	0.75	stop	0.0	Go_O	1.0
556.617	1.0	go	0.0	Go_O	0.0
559.141	1.0	go	0.0	Go_O	0.0
561.682	1.0	go	0.0	Go_X	0.0
564.206	0.8	stop	0.914	Go_X	0.0
566.747	1.0	go	0.0	Go_O	0.0
569.271	0.75	stop	0.0	Go_O	1.0
571.795	1.0	go	0.0	Go_X	0.0
574.319	1.0	go	0.0	Go_O	0.0
576.844	1.0	go	0.0	Go_X	0.0
579.368	1.0	go	0.0	Go_X	0.0
581.892	1.0	go	0.0	Go_O	0.0
584.416	1.0	go	0.0	Go_O	0.0
586.94	1.0	go	0.0	Go_X	0.0
589.465	0.8	stop	0.0	Go_X	1.0
592.005	1.0	go	0.0	Go_X	0.0
594.53	1.0	go	0.0	Go_O	0.0
597.054	1.0	go	0.0	Go_O	0.0
599.578	1.0	go	0.0	Go_X	0.0
602.102	0.85	stop	0.0	Go_O	1.0
604.627	1.0	go	0.0	Go_X	0.0
607.151	0.9	stop	0.0	Go_X	1.0
609.692	1.0	go	0.0	Go_O	0.0
612.216	1.0	go	0.0	Go_X	0.0
614.757	0.95	stop	0.0	Go_O	1.0
617.281	1.0	go	0.0	Go_O	0.0
619.805	1.0	go	0.0	Go_O	0.0
622.329	1.0	go	0.0	Go_X	0.0
624.854	1.0	go	0.0	Go_O	0.0
627.378	1.0	go	0.0	Go_X	0.0
629.902	1.0	go	0.644	Go_O	1.0
632.426	1.0	go	0.274	Go_X	1.0
634.967	1.0	go	0.303	Go_O	1.0
637.491	1.0	go	0.456	Go_X	1.0
640.015	1.0	go	0.515	Go_O	1.0
642.54	1.0	stop	0.624	Go_X	0.0
645.081	1.0	go	0.0	Go_X	0.0
647.605	1.0	go	0.0	Go_O	0.0
650.129	0.95	stop	0.0	Go_O	1.0
652.653	1.0	go	0.993	Go_X	1.0
655.177	1.0	stop	0.0	Go_X	1.0
657.735	1.0	go	0.0	Go_X	0.0
660.259	1.0	go	0.0	Go_O	0.0
662.783	1.05	stop	0.0	Go_O	1.0
665.375	1.0	go	0.597	Go_O	1.0
667.899	1.1	stop	0.0	Go_X	1.0
670.557	1.0	go	0.497	Go_X	1.0
673.098	1.0	go	0.0	Go_X	0.0
675.622	1.0	go	0.0	Go_O	0.0
678.146	1.15	stop	0.0	Go_O	1.0
680.854	1.0	go	0.0	Go_X	0.0
683.378	1.0	go	0.0	Go_O	0.0
685.903	1.0	go	0.0	Go_X	0.0
688.443	1.0	go	0.834	Go_O	1.0
690.984	1.2	stop	0.676	Go_X	0.0
693.743	1.0	go	0.0	Go_O	0.0
696.267	1.0	go	0.0	Go_X	0.0
698.808	1.15	stop	0.0	Go_O	1.0
701.516	1.0	go	0.0	Go_X	0.0
704.04	1.0	go	0.0	Go_O	0.0
706.581	1.0	go	0.0	Go_O	0.0
709.105	1.0	go	0.0	Go_X	0.0
711.646	1.2	stop	0.0	Go_X	1.0
714.388	1.0	go	0.0	Go_X	0.0
716.912	1.25	stop	0.0	Go_O	1.0
719.703	1.0	go	0.0	Go_O	0.0
722.228	1.0	go	0.0	Go_X	0.0
724.769	1.3	stop	0.0	Go_X	1.0
727.61	1.0	go	0.0	Go_O	0.0
730.135	1.0	go	0.0	Go_O	0.0
732.659	1.0	go	0.0	Go_X	0.0
735.183	1.0	go	0.0	Go_X	0.0
737.707	1.35	stop	0.0	Go_O	1.0
740.616	1.0	go	0.0	Go_O	0.0
743.14	1.4	stop	0.0	Go_X	1.0
746.099	1.0	go	0.0	Go_O	0.0
748.623	1.0	go	0.0	Go_X	0.0
751.164	1.0	go	0.0	Go_O	0.0
753.688	1.0	go	0.0	Go_X	0.0
756.212	1.0	go	0.0	Go_X	0.0
758.737	1.0	go	0.0	Go_O	0.0
761.261	1.45	stop	0.0	Go_O	1.0
764.27	1.0	go	0.0	Go_X	0.0
766.794	1.0	go	0.0	Go_O	0.0
769.318	1.5	stop	0.0	Go_X	1.0
772.361	1.0	go	0.0	Go_O	0.0
774.885	1.0	go	0.0	Go_X	0.0
777.409	1.55	stop	0.0	Go_O	1.0
780.502	1.0	go	0.0	Go_X	0.0
783.026	1.0	go	0.0	Go_O	0.0
785.567	1.0	go	0.0	Go_X	0.0
788.091	1.0	go	0.0	Go_O	0.0
790.615	1.6	stop	0.0	Go_X	1.0
793.775	1.0	go	0.0	Go_O	0.0
796.299	1.65	stop	0.0	Go_O	1.0
799.492	1.0	go	0.0	Go_X	0.0
802.016	1.0	go	0.0	Go_O	0.0
804.557	1.0	go	0.0	Go_X	0.0
807.085	1.0	go	0.0	Go_O	0.0
809.622	1.0	go	0.0	Go_X	0.0
812.146	1.7	stop	0.0	Go_X	1.0
815.389	1.0	go	0.0	Go_O	0.0
817.913	1.0	go	0.0	Go_X	0.0
820.438	1.75	stop	0.0	Go_O	1.0
823.731	1.8	stop	0.0	Go_X	1.0
827.074	1.0	go	0.0	Go_X	0.0
829.615	1.0	go	0.0	Go_O	0.0
832.139	1.0	go	0.0	Go_O	0.0
834.663	1.0	go	0.0	Go_X	0.0
837.188	1.85	stop	0.0	Go_O	1.0
840.598	1.0	go	0.0	Go_X	0.0
