onset	duration	trial_type	response_time	stim_file	accuracy
0.5300000000000011	1.0	go	0.0	Go_O	0.0
3.054000000000002	1.0	go	0.488	Go_X	1.0
5.581000000000003	1.0	go	0.471	Go_X	1.0
8.119	1.0	go	0.399	Go_O	1.0
10.659999999999997	1.0	go	0.682	Go_O	1.0
13.183999999999997	1.0	go	0.682	Go_X	1.0
15.707999999999998	0.25	stopsuccess	0.0	Go_O	1.0
18.248999999999995	1.0	go	0.386	Go_X	1.0
20.772999999999996	0.3	stopsuccess	0.0	Go_X	1.0
23.299000000000007	1.0	go	0.383	Go_O	1.0
25.822000000000003	1.0	go	0.7	Go_X	1.0
28.346000000000004	1.0	go	0.601	Go_O	1.0
30.870000000000005	0.35	stopsuccess	0.0	Go_O	1.0
33.394000000000005	1.0	go	0.404	Go_X	1.0
35.919	1.0	go	0.862	Go_O	1.0
38.459999999999994	0.4	stopfail	0.413	Go_X	0.0
41.001000000000005	0.35	stopfail	0.466	Go_O	0.0
43.525000000000006	1.0	go	0.423	Go_X	1.0
46.04900000000001	1.0	go	0.005	Go_O	1.0
48.59	0.3	stopsuccess	0.0	Go_X	1.0
51.131	1.0	go	0.668	Go_O	1.0
53.655	1.0	go	0.824	Go_X	1.0
56.196	0.35	stopsuccess	0.0	Go_O	1.0
58.736999999999995	1.0	go	0.692	Go_X	1.0
61.260999999999996	1.0	go	0.69	Go_O	1.0
63.785	0.4	stopsuccess	0.0	Go_X	1.0
66.309	1.0	go	0.0	Go_X	0.0
68.834	1.0	go	0.494	Go_O	1.0
71.375	0.45	stopsuccess	0.0	Go_O	1.0
73.91499999999999	1.0	go	0.71	Go_O	1.0
76.45599999999999	1.0	go	0.0	Go_X	0.0
78.981	1.0	go	0.755	Go_O	1.0
81.505	1.0	go	0.525	Go_X	1.0
84.029	1.0	go	0.699	Go_O	1.0
86.553	0.5	stopsuccess	0.0	Go_X	1.0
89.094	1.0	go	0.951	Go_X	0.0
91.618	1.0	go	0.451	Go_X	1.0
94.142	1.0	go	0.781	Go_O	1.0
96.667	1.0	go	0.7	Go_X	1.0
99.191	1.0	go	0.943	Go_O	1.0
101.715	0.55	stopsuccess	0.0	Go_O	1.0
104.239	1.0	go	0.0	Go_X	0.0
106.76400000000001	1.0	go	0.494	Go_O	1.0
109.28800000000001	1.0	go	0.72	Go_X	0.0
111.81200000000001	1.0	go	0.499	Go_O	1.0
114.35300000000001	1.0	go	0.634	Go_X	1.0
116.87700000000001	1.0	go	0.0	Go_O	0.0
119.40100000000001	0.6	stopfail	0.447	Go_X	0.0
121.94200000000001	1.0	go	0.473	Go_O	1.0
124.46600000000001	1.0	go	0.448	Go_X	1.0
126.99100000000001	0.55	stopfail	0.431	Go_O	0.0
129.531	1.0	go	0.506	Go_O	1.0
132.056	0.5	stopfail	0.253	Go_X	0.0
134.597	0.45	stopfail	0.678	Go_O	0.0
137.138	1.0	go	0.269	Go_X	1.0
139.662	1.0	go	0.461	Go_X	1.0
142.186	1.0	go	0.799	Go_O	1.0
144.71	1.0	go	0.0	Go_O	0.0
147.234	0.4	stopfail	0.645	Go_X	0.0
149.759	1.0	go	0.0	Go_X	0.0
152.299	0.35	stopsuccess	0.0	Go_O	1.0
154.84	1.0	go	0.897	Go_X	1.0
157.365	1.0	go	0.0	Go_O	0.0
159.889	1.0	go	0.0	Go_X	0.0
162.43	1.0	go	0.0	Go_O	0.0
164.954	1.0	go	0.3	Go_X	1.0
167.495	1.0	go	0.345	Go_O	1.0
170.019	1.0	go	0.21	Go_O	1.0
172.56	1.0	go	0.0	Go_X	0.0
175.084	1.0	go	0.405	Go_X	1.0
177.625	0.4	stopsuccess	0.0	Go_X	1.0
180.166	1.0	go	0.694	Go_O	1.0
182.69000000000003	1.0	go	0.47	Go_O	1.0
185.21400000000003	1.0	go	0.585	Go_X	1.0
187.739	0.45	stopsuccess	0.0	Go_O	1.0
190.28	1.0	go	0.843	Go_O	1.0
192.804	1.0	go	0.648	Go_X	1.0
195.328	1.0	go	0.669	Go_X	1.0
197.852	1.0	go	0.0	Go_O	0.0
200.393	1.0	go	0.0	Go_O	0.0
202.917	1.0	go	0.0	Go_X	0.0
205.441	0.5	stopsuccess	0.0	Go_X	1.0
207.96599999999998	1.0	go	0.0	Go_X	0.0
210.48999999999998	1.0	go	0.0	Go_O	0.0
213.01399999999998	0.55	stopsuccess	0.0	Go_O	1.0
215.55499999999998	1.0	go	0.0	Go_X	0.0
218.07899999999998	1.0	go	0.0	Go_O	0.0
220.60299999999998	0.6	stopfail	0.868	Go_X	0.0
223.12800000000001	1.0	go	0.244	Go_O	1.0
225.65200000000002	0.55	stopfail	0.342	Go_O	0.0
228.193	1.0	go	0.503	Go_X	1.0
230.717	1.0	go	0.315	Go_O	1.0
233.241	1.0	go	0.34	Go_X	1.0
235.782	1.0	go	0.462	Go_X	1.0
238.306	1.0	go	0.585	Go_O	1.0
240.831	0.5	stopfail	0.553	Go_X	0.0
243.371	0.45	stopsuccess	0.0	Go_O	1.0
245.896	1.0	go	0.308	Go_X	1.0
248.42	1.0	go	0.61	Go_O	1.0
250.944	0.5	stopfail	0.489	Go_X	0.0
253.48499999999999	1.0	go	0.0	Go_X	0.0
256.009	1.0	go	0.0	Go_O	0.0
258.533	1.0	go	0.428	Go_X	1.0
261.058	1.0	go	0.475	Go_O	1.0
263.582	1.0	go	0.324	Go_O	0.0
266.12300000000005	1.0	go	0.453	Go_X	0.0
268.64700000000005	0.45	stopfail	0.651	Go_O	0.0
271.188	1.0	go	0.794	Go_O	1.0
273.712	1.0	go	0.386	Go_X	1.0
276.236	1.0	go	0.531	Go_O	1.0
278.77700000000004	1.0	go	0.0	Go_X	0.0
281.30100000000004	1.0	go	0.0	Go_O	0.0
283.82500000000005	0.4	stopsuccess	0.0	Go_X	1.0
286.366	1.0	go	0.454	Go_X	1.0
288.89099999999996	1.0	go	0.533	Go_O	1.0
291.41499999999996	1.0	go	0.0	Go_X	0.0
293.93899999999996	1.0	go	0.768	Go_X	1.0
296.46299999999997	0.45	stopsuccess	0.0	Go_O	1.0
298.98699999999997	1.0	go	0.0	Go_O	0.0
301.51199999999994	1.0	go	0.008	Go_O	1.0
304.03599999999994	0.5	stopsuccess	0.0	Go_X	1.0
306.577	1.0	go	0.0	Go_X	0.0
309.101	0.55	stopsuccess	0.0	Go_O	1.0
311.64200000000005	1.0	go	0.0	Go_X	0.0
314.16600000000005	1.0	go	0.0	Go_O	0.0
316.69000000000005	1.0	go	0.0	Go_X	0.0
319.21400000000006	1.0	go	0.399	Go_O	0.0
321.73900000000003	1.0	go	0.42	Go_O	1.0
324.26300000000003	1.0	go	0.359	Go_X	1.0
326.78700000000003	1.0	go	0.492	Go_O	1.0
329.31100000000004	0.6	stopfail	0.411	Go_X	0.0
331.836	1.0	go	0.681	Go_X	1.0
334.36	1.0	go	0.295	Go_O	1.0
336.884	1.0	go	0.0	Go_X	0.0
339.408	0.55	stopsuccess	0.0	Go_O	1.0
341.94899999999996	1.0	go	0.0	Go_X	0.0
344.47299999999996	1.0	go	0.372	Go_O	1.0
347.014	1.0	go	0.346	Go_X	1.0
349.538	1.0	go	0.488	Go_O	1.0
352.063	0.6	stopfail	0.91	Go_X	0.0
354.60299999999995	1.0	go	0.672	Go_O	1.0
357.12800000000004	1.0	go	0.0	Go_X	0.0
359.65200000000004	0.55	stopfail	0.514	Go_O	0.0
362.193	1.0	go	0.553	Go_O	1.0
364.717	1.0	go	0.615	Go_X	1.0
367.241	0.5	stopfail	0.625	Go_X	0.0
369.765	1.0	go	0.892	Go_O	1.0
372.28999999999996	1.0	go	0.0	Go_X	0.0
374.81399999999996	0.45	stopfail	0.517	Go_O	0.0
377.355	1.0	go	0.814	Go_O	1.0
379.879	1.0	go	0.0	Go_X	0.0
382.403	1.0	go	0.555	Go_O	1.0
384.927	1.0	go	0.0	Go_X	0.0
387.452	1.0	go	0.538	Go_X	1.0
389.976	1.0	go	0.0	Go_O	0.0
392.5	0.4	stopsuccess	0.0	Go_X	1.0
395.024	1.0	go	0.0	Go_O	0.0
397.548	0.45	stopfail	0.418	Go_O	0.0
400.073	1.0	go	0.0	Go_X	0.0
402.597	1.0	go	0.0	Go_O	0.0
405.121	1.0	go	0.572	Go_X	1.0
407.645	1.0	go	0.0	Go_O	0.0
410.169	1.0	go	0.0	Go_X	0.0
412.71000000000004	0.4	stopsuccess	0.0	Go_X	1.0
415.23400000000004	1.0	go	0.449	Go_X	1.0
417.759	1.0	go	0.296	Go_O	1.0
420.283	1.0	go	0.714	Go_X	1.0
422.82399999999996	0.45	stopsuccess	0.0	Go_O	1.0
425.365	0.5	stopsuccess	0.0	Go_X	1.0
427.90599999999995	0.55	stopsuccess	0.0	Go_O	1.0
430.447	1.0	go	0.0	Go_O	0.0
432.98800000000006	0.6	stopsuccess	0.0	Go_X	1.0
435.51199999999994	1.0	go	0.0	Go_O	0.0
438.03599999999994	1.0	go	0.0	Go_X	0.0
440.55999999999995	1.0	go	0.0	Go_X	0.0
443.08399999999995	1.0	go	0.0	Go_O	0.0
445.60799999999995	1.0	go	0.437	Go_X	1.0
448.1329999999999	1.0	go	0.566	Go_O	1.0
450.6569999999999	1.0	go	0.0	Go_O	0.0
453.1809999999999	1.0	go	0.0	Go_X	0.0
455.722	0.65	stopsuccess	0.0	Go_O	1.0
458.246	1.0	go	0.697	Go_X	1.0
460.7869999999999	1.0	go	0.0	Go_O	0.0
463.3109999999999	0.7	stopsuccess	0.0	Go_X	1.0
465.836	1.0	go	0.0	Go_O	0.0
468.36	1.0	go	0.636	Go_X	1.0
470.884	1.0	go	0.0	Go_O	0.0
473.408	1.0	go	0.0	Go_X	0.0
475.932	1.0	go	0.0	Go_X	0.0
478.457	0.75	stopsuccess	0.0	Go_O	1.0
480.99799999999993	1.0	go	0.0	Go_O	0.0
483.52199999999993	1.0	go	0.0	Go_O	0.0
486.063	1.0	go	0.0	Go_X	0.0
488.587	0.8	stopfail	0.914	Go_X	0.0
491.12799999999993	1.0	go	0.0	Go_O	0.0
493.65199999999993	0.75	stopsuccess	0.0	Go_O	1.0
496.17599999999993	1.0	go	0.0	Go_X	0.0
498.69999999999993	1.0	go	0.0	Go_O	0.0
501.225	1.0	go	0.0	Go_X	0.0
503.749	1.0	go	0.0	Go_X	0.0
506.273	1.0	go	0.0	Go_O	0.0
508.797	1.0	go	0.0	Go_O	0.0
511.321	1.0	go	0.0	Go_X	0.0
513.846	0.8	stopsuccess	0.0	Go_X	1.0
516.386	1.0	go	0.0	Go_X	0.0
518.911	1.0	go	0.0	Go_O	0.0
521.435	1.0	go	0.0	Go_O	0.0
523.959	1.0	go	0.0	Go_X	0.0
526.483	0.85	stopsuccess	0.0	Go_O	1.0
529.0079999999999	1.0	go	0.0	Go_X	0.0
531.5319999999999	0.9	stopsuccess	0.0	Go_X	1.0
534.073	1.0	go	0.0	Go_O	0.0
536.597	1.0	go	0.0	Go_X	0.0
539.1379999999999	0.95	stopsuccess	0.0	Go_O	1.0
541.6619999999999	1.0	go	0.0	Go_O	0.0
544.1859999999999	1.0	go	0.0	Go_O	0.0
546.7099999999999	1.0	go	0.0	Go_X	0.0
549.235	1.0	go	0.0	Go_O	0.0
551.759	1.0	go	0.0	Go_X	0.0
554.283	1.0	go	0.644	Go_O	1.0
556.807	1.0	go	0.274	Go_X	1.0
559.348	1.0	go	0.303	Go_O	1.0
561.872	1.0	go	0.456	Go_X	1.0
564.396	1.0	go	0.515	Go_O	1.0
566.9209999999999	1.0	stopfail	0.624	Go_X	0.0
569.462	1.0	go	0.0	Go_X	0.0
571.986	1.0	go	0.0	Go_O	0.0
574.51	0.95	stopsuccess	0.0	Go_O	1.0
577.034	1.0	go	0.993	Go_X	1.0
579.558	1.0	stopsuccess	0.0	Go_X	1.0
582.116	1.0	go	0.0	Go_X	0.0
584.64	1.0	go	0.0	Go_O	0.0
587.164	1.05	stopsuccess	0.0	Go_O	1.0
589.756	1.0	go	0.597	Go_O	1.0
592.28	1.1	stopsuccess	0.0	Go_X	1.0
594.938	1.0	go	0.497	Go_X	1.0
597.4789999999999	1.0	go	0.0	Go_X	0.0
600.0029999999999	1.0	go	0.0	Go_O	0.0
602.5269999999999	1.15	stopsuccess	0.0	Go_O	1.0
605.235	1.0	go	0.0	Go_X	0.0
607.759	1.0	go	0.0	Go_O	0.0
610.284	1.0	go	0.0	Go_X	0.0
612.824	1.0	go	0.834	Go_O	1.0
615.365	1.2	stopfail	0.676	Go_X	0.0
618.124	1.0	go	0.0	Go_O	0.0
620.648	1.0	go	0.0	Go_X	0.0
623.189	1.15	stopsuccess	0.0	Go_O	1.0
625.8969999999999	1.0	go	0.0	Go_X	0.0
628.4209999999999	1.0	go	0.0	Go_O	0.0
630.962	1.0	go	0.0	Go_O	0.0
633.486	1.0	go	0.0	Go_X	0.0
636.0269999999999	1.2	stopsuccess	0.0	Go_X	1.0
638.769	1.0	go	0.0	Go_X	0.0
641.293	1.25	stopsuccess	0.0	Go_O	1.0
644.084	1.0	go	0.0	Go_O	0.0
646.6089999999999	1.0	go	0.0	Go_X	0.0
649.15	1.3	stopsuccess	0.0	Go_X	1.0
651.991	1.0	go	0.0	Go_O	0.0
654.516	1.0	go	0.0	Go_O	0.0
657.04	1.0	go	0.0	Go_X	0.0
659.564	1.0	go	0.0	Go_X	0.0
662.088	1.35	stopsuccess	0.0	Go_O	1.0
664.997	1.0	go	0.0	Go_O	0.0
667.521	1.4	stopsuccess	0.0	Go_X	1.0
670.48	1.0	go	0.0	Go_O	0.0
673.004	1.0	go	0.0	Go_X	0.0
675.545	1.0	go	0.0	Go_O	0.0
678.069	1.0	go	0.0	Go_X	0.0
680.593	1.0	go	0.0	Go_X	0.0
683.1179999999999	1.0	go	0.0	Go_O	0.0
685.6419999999999	1.45	stopsuccess	0.0	Go_O	1.0
688.651	1.0	go	0.0	Go_X	0.0
691.175	1.0	go	0.0	Go_O	0.0
693.699	1.5	stopsuccess	0.0	Go_X	1.0
696.742	1.0	go	0.0	Go_O	0.0
699.266	1.0	go	0.0	Go_X	0.0
701.79	1.55	stopsuccess	0.0	Go_O	1.0
704.8829999999999	1.0	go	0.0	Go_X	0.0
707.4069999999999	1.0	go	0.0	Go_O	0.0
709.948	1.0	go	0.0	Go_X	0.0
712.472	1.0	go	0.0	Go_O	0.0
714.996	1.6	stopsuccess	0.0	Go_X	1.0
718.156	1.0	go	0.0	Go_O	0.0
720.68	1.65	stopsuccess	0.0	Go_O	1.0
723.8729999999999	1.0	go	0.0	Go_X	0.0
726.3969999999999	1.0	go	0.0	Go_O	0.0
728.938	1.0	go	0.0	Go_X	0.0
731.466	1.0	go	0.0	Go_O	0.0
734.0029999999999	1.0	go	0.0	Go_X	0.0
736.5269999999999	1.7	stopsuccess	0.0	Go_X	1.0
739.77	1.0	go	0.0	Go_O	0.0
742.294	1.0	go	0.0	Go_X	0.0
744.819	1.75	stopsuccess	0.0	Go_O	1.0
748.112	1.8	stopsuccess	0.0	Go_X	1.0
751.4549999999999	1.0	go	0.0	Go_X	0.0
753.996	1.0	go	0.0	Go_O	0.0
756.52	1.0	go	0.0	Go_O	0.0
759.044	1.0	go	0.0	Go_X	0.0
761.569	1.85	stopsuccess	0.0	Go_O	1.0
764.9789999999999	1.0	go	0.0	Go_X	0.0
