frame	onset	duration	trial_type	event_type	response_type	response_time	stim_file	accuracy
0	228.585		loss-noreward	ImageDisplay1		0.0		
0	230.574	0.75	loss-noreward	StartDisplay				
0	231.326		loss-noreward	ImageDisplay2		0.0		
0	234.569	1.6	loss-noreward	ChoiceDisplay		0.0		
0	236.174	0.0	loss-noreward	ChosenDisplay		0.0		
0	236.191	0.25	loss-noreward	TurnDisplay				
0	236.425	0.75	loss-noreward	OutcomeDisplay				
1	237.177		control-reward	ImageDisplay1		0.0		
1	239.166	0.75	control-reward	StartDisplay				
1	239.919		control-reward	ImageDisplay2		0.0		
1	243.162	1.6	control-reward	ChoiceDisplay		0.0		
1	244.766	0.0	control-reward	ChosenDisplay		0.0		
1	244.783	0.25	control-reward	TurnDisplay				
1	245.017	0.75	control-reward	OutcomeDisplay				
2	245.769		win-reward	ImageDisplay1		0.0		
2	247.775	0.75	win-reward	StartDisplay				
2	248.528		win-reward	ImageDisplay2		0.0		
2	251.771	1.6	win-reward	ChoiceDisplay	1	1.469	1	1
2	253.259	0.131	win-reward	ChosenDisplay		0.0		
2	253.376	0.25	win-reward	TurnDisplay				
2	253.626	0.75	win-reward	OutcomeDisplay				
3	254.379		control-noreward	ImageDisplay1		0.0		
3	256.368	0.75	control-noreward	StartDisplay				
3	257.12		control-noreward	ImageDisplay2		0.0		
3	260.38	1.6	control-noreward	ChoiceDisplay	1	1.329	1	1
3	261.734	0.271	control-noreward	ChosenDisplay		0.0		
3	261.985	0.25	control-noreward	TurnDisplay				
3	262.235	0.75	control-noreward	OutcomeDisplay				
4	262.988		control-noreward	ImageDisplay1		0.0		
4	265.228	0.75	control-noreward	StartDisplay				
4	265.98		control-noreward	ImageDisplay2		0.0		
4	268.989	1.6	control-noreward	ChoiceDisplay		0.0		
4	270.577	0.0	control-noreward	ChosenDisplay		0.0		
4	270.594	0.25	control-noreward	TurnDisplay				
4	270.828	0.75	control-noreward	OutcomeDisplay				
5	271.58		control-noreward	ImageDisplay1		0.0		
5	273.837	0.75	control-noreward	StartDisplay				
5	274.589		control-noreward	ImageDisplay2		0.0		
5	277.581	1.6	control-noreward	ChoiceDisplay	1	1.462	1	1
5	279.069	0.138	control-noreward	ChosenDisplay		0.0		
5	279.186	0.25	control-noreward	TurnDisplay				
5	279.437	0.75	control-noreward	OutcomeDisplay				
6	280.189		control-reward	ImageDisplay1		0.0		
6	282.429	0.75	control-reward	StartDisplay				
6	283.181		control-reward	ImageDisplay2		0.0		
6	286.19	1.6	control-reward	ChoiceDisplay		0.0		
6	287.778	0.0	control-reward	ChosenDisplay		0.0		
6	287.795	0.25	control-reward	TurnDisplay				
6	288.029	0.75	control-reward	OutcomeDisplay				
7	288.781		loss-reward	ImageDisplay1		0.0		
7	291.038	0.75	loss-reward	StartDisplay				
7	291.79		loss-reward	ImageDisplay2		0.0		
7	294.782	1.6	loss-reward	ChoiceDisplay		0.0		
7	296.387	0.0	loss-reward	ChosenDisplay		0.0		
7	296.404	0.25	loss-reward	TurnDisplay				
7	296.638	0.75	loss-reward	OutcomeDisplay				
8	297.39		win-noreward	ImageDisplay1		0.0		
8	299.63	0.75	win-noreward	StartDisplay				
8	300.383		win-noreward	ImageDisplay2		0.0		
8	303.392	1.6	win-noreward	ChoiceDisplay	1	0.925	1	1
8	304.344	0.675	win-noreward	ChosenDisplay		0.0		
8	304.996	0.25	win-noreward	TurnDisplay				
8	305.247	0.75	win-noreward	OutcomeDisplay				
9	305.999		control-reward	ImageDisplay1		0.0		
9	307.989	0.75	control-reward	StartDisplay				
9	308.741		control-reward	ImageDisplay2		0.0		
9	312.001	1.6	control-reward	ChoiceDisplay	1	0.782	1	1
9	312.803	0.818	control-reward	ChosenDisplay		0.0		
9	313.605	0.25	control-reward	TurnDisplay				
9	313.856	0.75	control-reward	OutcomeDisplay				
10	314.608		win-reward	ImageDisplay1		0.0		
10	316.848	0.75	win-reward	StartDisplay				
10	317.601		win-reward	ImageDisplay2		0.0		
10	320.61	1.6	win-reward	ChoiceDisplay	1	0.867	1	1
10	321.496	0.733	win-reward	ChosenDisplay		0.0		
10	322.214	0.25	win-reward	TurnDisplay				
10	322.465	0.75	win-reward	OutcomeDisplay				
11	323.217		loss-reward	ImageDisplay1		0.0		
11	325.207	0.75	loss-reward	StartDisplay				
11	325.959		loss-reward	ImageDisplay2		0.0		
11	329.219	1.6	loss-reward	ChoiceDisplay	1	1.366	1	1
11	330.606	0.234	loss-reward	ChosenDisplay		0.0		
11	330.823	0.25	loss-reward	TurnDisplay				
11	331.074	0.75	loss-reward	OutcomeDisplay				
12	331.826		control-noreward	ImageDisplay1		0.0		
12	334.066	0.75	control-noreward	StartDisplay				
12	334.819		control-noreward	ImageDisplay2		0.0		
12	337.828	1.6	control-noreward	ChoiceDisplay		0.0		
12	339.416	0.0	control-noreward	ChosenDisplay		0.0		
12	339.432	0.25	control-noreward	TurnDisplay				
12	339.666	0.75	control-noreward	OutcomeDisplay				
13	340.419		control-reward	ImageDisplay1		0.0		
13	342.425	0.75	control-reward	StartDisplay				
13	343.177		control-reward	ImageDisplay2		0.0		
13	346.42	1.6	control-reward	ChoiceDisplay	1	1.021	1	1
13	347.456	0.579	control-reward	ChosenDisplay		0.0		
13	348.025	0.25	control-reward	TurnDisplay				
13	348.276	0.75	control-reward	OutcomeDisplay				
14	349.028		control-reward	ImageDisplay1		0.0		
14	351.268	0.75	control-reward	StartDisplay				
14	352.02		control-reward	ImageDisplay2		0.0		
14	355.029	1.6	control-reward	ChoiceDisplay	1	0.834	1	1
14	355.882	0.766	control-reward	ChosenDisplay		0.0		
14	356.634	0.25	control-reward	TurnDisplay				
14	356.885	0.75	control-reward	OutcomeDisplay				
15	357.637		loss-noreward	ImageDisplay1		0.0		
15	359.877	0.75	loss-noreward	StartDisplay				
15	360.629		loss-noreward	ImageDisplay2		0.0		
15	363.638	1.6	loss-noreward	ChoiceDisplay	1	0.972	1	1
15	364.624	0.628	loss-noreward	ChosenDisplay		0.0		
15	365.243	0.25	loss-noreward	TurnDisplay				
15	365.494	0.75	loss-noreward	OutcomeDisplay				
16	366.246		win-reward	ImageDisplay1		0.0		
16	368.486	0.75	win-reward	StartDisplay				
16	369.238		win-reward	ImageDisplay2		0.0		
16	372.247	1.6	win-reward	ChoiceDisplay	1	1.293	1	1
16	373.568	0.307	win-reward	ChosenDisplay		0.0		
16	373.852	0.25	win-reward	TurnDisplay				
16	374.103	0.75	win-reward	OutcomeDisplay				
17	374.855		control-noreward	ImageDisplay1		0.0		
17	376.844	0.75	control-noreward	StartDisplay				
17	377.596		control-noreward	ImageDisplay2		0.0		
17	380.856	1.6	control-noreward	ChoiceDisplay	1	0.722	1	1
17	381.592	0.878	control-noreward	ChosenDisplay		0.0		
17	382.461	0.25	control-noreward	TurnDisplay				
17	382.712	0.75	control-noreward	OutcomeDisplay				
18	383.464		win-noreward	ImageDisplay1		0.0		
18	385.453	0.75	win-noreward	StartDisplay				
18	386.205		win-noreward	ImageDisplay2		0.0		
18	389.465	1.6	win-noreward	ChoiceDisplay	1	1.018	1	1
18	390.502	0.582	win-noreward	ChosenDisplay		0.0		
18	391.07	0.25	win-noreward	TurnDisplay				
18	391.321	0.75	win-noreward	OutcomeDisplay				
19	392.073		loss-noreward	ImageDisplay1		0.0		
19	394.062	0.75	loss-noreward	StartDisplay				
19	394.814		loss-noreward	ImageDisplay2		0.0		
19	398.074	1.6	loss-noreward	ChoiceDisplay	1	0.754	1	1
19	398.843	0.846	loss-noreward	ChosenDisplay		0.0		
19	399.679	0.25	loss-noreward	TurnDisplay				
19	399.93	0.75	loss-noreward	OutcomeDisplay				
20	400.682		loss-reward	ImageDisplay1		0.0		
20	402.922	0.75	loss-reward	StartDisplay				
20	403.674		loss-reward	ImageDisplay2		0.0		
20	406.683	1.6	loss-reward	ChoiceDisplay	1	1.398	1	1
20	408.104	0.202	loss-reward	ChosenDisplay		0.0		
20	408.288	0.25	loss-reward	TurnDisplay				
20	408.539	0.75	loss-reward	OutcomeDisplay				
21	409.291		win-noreward	ImageDisplay1		0.0		
21	411.531	0.75	win-noreward	StartDisplay				
21	412.283		win-noreward	ImageDisplay2		0.0		
21	415.292	1.6	win-noreward	ChoiceDisplay	1	1.495	1	1
21	416.797	0.0	win-noreward	ChosenDisplay		0.0		
21	416.897	0.25	win-noreward	TurnDisplay				
21	417.048	0.75	win-noreward	OutcomeDisplay				
22	417.783		win-noreward	ImageDisplay1		0.0		
22	419.789	0.75	win-noreward	StartDisplay				
22	420.541		win-noreward	ImageDisplay2		0.0		
22	423.784	1.6	win-noreward	ChoiceDisplay	1	0.637	1	1
22	424.436	0.963	win-noreward	ChosenDisplay		0.0		
22	425.389	0.25	win-noreward	TurnDisplay				
22	425.64	0.75	win-noreward	OutcomeDisplay				
23	426.392		win-noreward	ImageDisplay1		0.0		
23	428.632	0.75	win-noreward	StartDisplay				
23	429.384		win-noreward	ImageDisplay2		0.0		
23	432.393	1.6	win-noreward	ChoiceDisplay	1	0.502	1	1
23	432.912	1.098	win-noreward	ChosenDisplay		0.0		
23	433.998	0.25	win-noreward	TurnDisplay				
23	434.249	0.75	win-noreward	OutcomeDisplay				
24	435.001		loss-reward	ImageDisplay1		0.0		
24	437.241	0.75	loss-reward	StartDisplay				
24	437.993		loss-reward	ImageDisplay2		0.0		
24	441.002	1.6	loss-reward	ChoiceDisplay	1	0.902	1	1
24	441.922	0.698	loss-reward	ChosenDisplay		0.0		
24	442.607	0.25	loss-reward	TurnDisplay				
24	442.858	0.75	loss-reward	OutcomeDisplay				
25	443.61		control-reward	ImageDisplay1		0.0		
25	445.599	0.75	control-reward	StartDisplay				
25	446.352		control-reward	ImageDisplay2		0.0		
25	449.611	1.6	control-reward	ChoiceDisplay	1	1.497	1	1
25	451.116	0.0	control-reward	ChosenDisplay		0.0		
25	451.216	0.25	control-reward	TurnDisplay				
25	451.367	0.75	control-reward	OutcomeDisplay				
26	452.119		win-reward	ImageDisplay1		0.0		
26	454.359	0.75	win-reward	StartDisplay				
26	455.111		win-reward	ImageDisplay2		0.0		
26	458.103	1.6	win-reward	ChoiceDisplay	1	0.629	1	1
26	458.755	0.971	win-reward	ChosenDisplay		0.0		
26	459.708	0.25	win-reward	TurnDisplay				
26	459.959	0.75	win-reward	OutcomeDisplay				
27	460.711		control-noreward	ImageDisplay1		0.0		
27	462.7	0.75	control-noreward	StartDisplay				
27	463.453		control-noreward	ImageDisplay2		0.0		
27	466.712	1.6	control-noreward	ChoiceDisplay	1	0.74	1	1
27	467.465	0.86	control-noreward	ChosenDisplay		0.0		
27	468.317	0.25	control-noreward	TurnDisplay				
27	468.568	0.75	control-noreward	OutcomeDisplay				
28	469.32		loss-reward	ImageDisplay1		0.0		
28	471.31	0.75	loss-reward	StartDisplay				
28	472.062		loss-reward	ImageDisplay2		0.0		
28	475.322	1.6	loss-reward	ChoiceDisplay	1	0.83	1	1
28	476.174	0.77	loss-reward	ChosenDisplay		0.0		
28	476.926	0.25	loss-reward	TurnDisplay				
28	477.177	0.75	loss-reward	OutcomeDisplay				
29	477.929		win-reward	ImageDisplay1		0.0		
29	479.919	0.75	win-reward	StartDisplay				
29	480.671		win-reward	ImageDisplay2		0.0		
29	483.931	1.6	win-reward	ChoiceDisplay	1	1.393	1	1
29	485.351	0.207	win-reward	ChosenDisplay		0.0		
29	485.535	0.25	win-reward	TurnDisplay				
29	485.786	0.75	win-reward	OutcomeDisplay				
30	486.538		control-noreward	ImageDisplay1		0.0		
30	488.778	0.75	control-noreward	StartDisplay				
30	489.531		control-noreward	ImageDisplay2		0.0		
30	492.54	1.6	control-noreward	ChoiceDisplay	1	0.961	1	1
30	493.526	0.639	control-noreward	ChosenDisplay		0.0		
30	494.144	0.25	control-noreward	TurnDisplay				
30	494.395	0.75	control-noreward	OutcomeDisplay				
31	495.147		win-noreward	ImageDisplay1		0.0		
31	497.137	0.75	win-noreward	StartDisplay				
31	497.889		win-noreward	ImageDisplay2		0.0		
31	501.149	1.6	win-noreward	ChoiceDisplay	1	1.454	1	1
31	502.62	0.146	win-noreward	ChosenDisplay		0.0		
31	502.753	0.25	win-noreward	TurnDisplay				
31	503.004	0.75	win-noreward	OutcomeDisplay				
32	503.756		loss-reward	ImageDisplay1		0.0		
32	505.746	0.75	loss-reward	StartDisplay				
32	506.498		loss-reward	ImageDisplay2		0.0		
32	509.758	1.6	loss-reward	ChoiceDisplay	1	0.849	1	1
32	510.627	0.751	loss-reward	ChosenDisplay		0.0		
32	511.362	0.25	loss-reward	TurnDisplay				
32	511.613	0.75	loss-reward	OutcomeDisplay				
33	512.365		win-reward	ImageDisplay1		0.0		
33	514.355	0.75	win-reward	StartDisplay				
33	515.107		win-reward	ImageDisplay2		0.0		
33	518.367	1.6	win-reward	ChoiceDisplay	1	0.818	1	1
33	519.203	0.782	win-reward	ChosenDisplay		0.0		
33	519.971	0.25	win-reward	TurnDisplay				
33	520.222	0.75	win-reward	OutcomeDisplay				
34	520.974		loss-noreward	ImageDisplay1		0.0		
34	523.214	0.75	loss-noreward	StartDisplay				
34	523.967		loss-noreward	ImageDisplay2		0.0		
34	526.976	1.6	loss-noreward	ChoiceDisplay	1	1.372	1	1
34	528.363	0.228	loss-noreward	ChosenDisplay		0.0		
34	528.581	0.25	loss-noreward	TurnDisplay				
34	528.831	0.75	loss-noreward	OutcomeDisplay				
35	529.584		loss-noreward	ImageDisplay1		0.0		
35	531.824	0.75	loss-noreward	StartDisplay				
35	532.576		loss-noreward	ImageDisplay2		0.0		
35	535.585	1.6	loss-noreward	ChoiceDisplay	1	0.544	1	1
35	536.153	1.056	loss-noreward	ChosenDisplay		0.0		
35	537.19	0.25	loss-noreward	TurnDisplay				
35	537.44	0.75	loss-noreward	OutcomeDisplay				
36	538.193		control-noreward	ImageDisplay1		0.0		
36	540.182	0.75	control-noreward	StartDisplay				
36	540.934		control-noreward	ImageDisplay2		0.0		
36	544.194	1.6	control-noreward	ChoiceDisplay	1	0.743	1	1
36	544.963	0.857	control-noreward	ChosenDisplay		0.0		
36	545.799	0.25	control-noreward	TurnDisplay				
36	546.049	0.75	control-noreward	OutcomeDisplay				
37	546.802		control-reward	ImageDisplay1		0.0		
37	549.042	0.75	control-reward	StartDisplay				
37	549.794		control-reward	ImageDisplay2		0.0		
37	552.803	1.6	control-reward	ChoiceDisplay	1	0.905	1	1
37	553.722	0.695	control-reward	ChosenDisplay		0.0		
37	554.408	0.25	control-reward	TurnDisplay				
37	554.658	0.75	control-reward	OutcomeDisplay				
38	555.411		win-reward	ImageDisplay1		0.0		
38	557.4	0.75	win-reward	StartDisplay				
38	558.152		win-reward	ImageDisplay2		0.0		
38	561.412	1.6	win-reward	ChoiceDisplay	1	1.094	1	1
38	562.532	0.506	win-reward	ChosenDisplay		0.0		
38	563.017	0.25	win-reward	TurnDisplay				
38	563.267	0.75	win-reward	OutcomeDisplay				
39	564.02		loss-noreward	ImageDisplay1		0.0		
39	566.009	0.75	loss-noreward	StartDisplay				
39	566.761		loss-noreward	ImageDisplay2		0.0		
39	570.021	1.6	loss-noreward	ChoiceDisplay	1	0.528	1	1
39	570.573	1.072	loss-noreward	ChosenDisplay		0.0		
39	571.626	0.25	loss-noreward	TurnDisplay				
39	571.876	0.75	loss-noreward	OutcomeDisplay				
40	572.629		control-noreward	ImageDisplay1		0.0		
40	574.869	0.75	control-noreward	StartDisplay				
40	575.621		control-noreward	ImageDisplay2		0.0		
40	578.63	1.6	control-noreward	ChoiceDisplay	1	0.79	1	1
40	579.432	0.81	control-noreward	ChosenDisplay		0.0		
40	580.235	0.25	control-noreward	TurnDisplay				
40	580.485	0.75	control-noreward	OutcomeDisplay				
41	581.238		win-noreward	ImageDisplay1		0.0		
41	583.478	0.75	win-noreward	StartDisplay				
41	584.23		win-noreward	ImageDisplay2		0.0		
41	587.239	1.6	win-noreward	ChoiceDisplay	1	0.449	1	1
41	587.707	1.151	win-noreward	ChosenDisplay		0.0		
41	588.844	0.25	win-noreward	TurnDisplay				
41	589.095	0.75	win-noreward	OutcomeDisplay				
42	589.847		control-noreward	ImageDisplay1		0.0		
42	592.087	0.75	control-noreward	StartDisplay				
42	592.839		control-noreward	ImageDisplay2		0.0		
42	595.848	1.6	control-noreward	ChoiceDisplay	1	1.033	1	1
42	596.901	0.567	control-noreward	ChosenDisplay		0.0		
42	597.453	0.25	control-noreward	TurnDisplay				
42	597.704	0.75	control-noreward	OutcomeDisplay				
43	598.456		loss-reward	ImageDisplay1		0.0		
43	600.445	0.75	loss-reward	StartDisplay				
43	601.197		loss-reward	ImageDisplay2		0.0		
43	604.457	1.6	loss-reward	ChoiceDisplay	1	1.082	1	1
43	605.56	0.518	loss-reward	ChosenDisplay		0.0		
43	606.062	0.25	loss-reward	TurnDisplay				
43	606.313	0.75	loss-reward	OutcomeDisplay				
44	607.065		control-reward	ImageDisplay1		0.0		
44	609.054	0.75	control-reward	StartDisplay				
44	609.806		control-reward	ImageDisplay2		0.0		
44	613.066	1.6	control-reward	ChoiceDisplay	1	0.805	1	1
44	613.885	0.795	control-reward	ChosenDisplay		0.0		
44	614.671	0.25	control-reward	TurnDisplay				
44	614.922	0.75	control-reward	OutcomeDisplay				
45	615.674		control-reward	ImageDisplay1		0.0		
45	617.663	0.75	control-reward	StartDisplay				
45	618.415		control-reward	ImageDisplay2		0.0		
45	621.675	1.6	control-reward	ChoiceDisplay	1	0.992	1	1
45	622.695	0.608	control-reward	ChosenDisplay		0.0		
45	623.28	0.25	control-reward	TurnDisplay				
45	623.531	0.75	control-reward	OutcomeDisplay				
46	624.283		loss-noreward	ImageDisplay1		0.0		
46	626.523	0.75	loss-noreward	StartDisplay				
46	627.275		loss-noreward	ImageDisplay2		0.0		
46	630.284	1.6	loss-noreward	ChoiceDisplay	1	1.324	1	1
46	631.621	0.276	loss-noreward	ChosenDisplay		0.0		
46	631.889	0.25	loss-noreward	TurnDisplay				
46	632.14	0.75	loss-noreward	OutcomeDisplay				
47	632.892		win-noreward	ImageDisplay1		0.0		
47	634.881	0.75	win-noreward	StartDisplay				
47	635.633		win-noreward	ImageDisplay2		0.0		
47	638.893	1.6	win-noreward	ChoiceDisplay	1	0.977	1	1
47	639.896	0.623	win-noreward	ChosenDisplay		0.0		
47	640.498	0.25	win-noreward	TurnDisplay				
47	640.749	0.75	win-noreward	OutcomeDisplay				
48	641.501		control-reward	ImageDisplay1		0.0		
48	643.741	0.75	control-reward	StartDisplay				
48	644.493		control-reward	ImageDisplay2		0.0		
48	647.502	1.6	control-reward	ChoiceDisplay	1	1.038	1	1
48	648.555	0.562	control-reward	ChosenDisplay		0.0		
48	649.107	0.25	control-reward	TurnDisplay				
48	649.358	0.75	control-reward	OutcomeDisplay				
49	650.11		loss-reward	ImageDisplay1		0.0		
49	652.099	0.75	loss-reward	StartDisplay				
49	652.852		loss-reward	ImageDisplay2		0.0		
49	656.111	1.6	loss-reward	ChoiceDisplay	1	0.7	1	1
49	656.83	0.9	loss-reward	ChosenDisplay		0.0		
49	657.716	0.25	loss-reward	TurnDisplay				
49	657.967	0.75	loss-reward	OutcomeDisplay				
50	658.719		loss-noreward	ImageDisplay1		0.0		
50	660.708	0.75	loss-noreward	StartDisplay				
50	661.461		loss-noreward	ImageDisplay2		0.0		
50	664.72	1.6	loss-noreward	ChoiceDisplay	1	0.878	1	1
50	665.623	0.722	loss-noreward	ChosenDisplay		0.0		
50	666.325	0.25	loss-noreward	TurnDisplay				
50	666.576	0.75	loss-noreward	OutcomeDisplay				
51	667.328		win-reward	ImageDisplay1		0.0		
51	669.568	0.75	win-reward	StartDisplay				
51	670.32		win-reward	ImageDisplay2		0.0		
51	673.329	1.6	win-reward	ChoiceDisplay	1	0.802	1	1
51	674.148	0.798	win-reward	ChosenDisplay		0.0		
51	674.934	0.25	win-reward	TurnDisplay				
51	675.185	0.75	win-reward	OutcomeDisplay				
52	675.937		win-reward	ImageDisplay1		0.0		
52	677.926	0.75	win-reward	StartDisplay				
52	678.679		win-reward	ImageDisplay2		0.0		
52	681.938	1.6	win-reward	ChoiceDisplay	1	1.158	1	1
52	683.109	0.442	win-reward	ChosenDisplay		0.0		
52	683.543	0.25	win-reward	TurnDisplay				
52	683.794	0.75	win-reward	OutcomeDisplay				
53	684.546		loss-reward	ImageDisplay1		0.0		
53	686.535	0.75	loss-reward	StartDisplay				
53	687.288		loss-reward	ImageDisplay2		0.0		
53	690.547	1.6	loss-reward	ChoiceDisplay	1	1.128	1	1
53	691.701	0.472	loss-reward	ChosenDisplay		0.0		
53	692.152	0.25	loss-reward	TurnDisplay				
53	692.403	0.75	loss-reward	OutcomeDisplay				
54	693.155		control-noreward	ImageDisplay1		0.0		
54	695.144	0.75	control-noreward	StartDisplay				
54	695.897		control-noreward	ImageDisplay2		0.0		
54	699.156	1.6	control-noreward	ChoiceDisplay	1	0.792	1	1
54	699.976	0.808	control-noreward	ChosenDisplay		0.0		
54	700.761	0.25	control-noreward	TurnDisplay				
54	701.012	0.75	control-noreward	OutcomeDisplay				
55	701.764		loss-noreward	ImageDisplay1		0.0		
55	704.004	0.75	loss-noreward	StartDisplay				
55	704.757		loss-noreward	ImageDisplay2		0.0		
55	707.765	1.6	loss-noreward	ChoiceDisplay	1	1.261	1	1
55	709.053	0.339	loss-noreward	ChosenDisplay		0.0		
55	709.37	0.25	loss-noreward	TurnDisplay				
55	709.621	0.75	loss-noreward	OutcomeDisplay				
56	710.373		control-reward	ImageDisplay1		0.0		
56	712.613	0.75	control-reward	StartDisplay				
56	713.366		control-reward	ImageDisplay2		0.0		
56	716.375	1.6	control-reward	ChoiceDisplay	1	0.889	1	1
56	717.277	0.711	control-reward	ChosenDisplay		0.0		
56	717.979	0.25	control-reward	TurnDisplay				
56	718.23	0.75	control-reward	OutcomeDisplay				
57	718.982		control-reward	ImageDisplay1		0.0		
57	721.222	0.75	control-reward	StartDisplay				
57	721.975		control-reward	ImageDisplay2		0.0		
57	724.984	1.6	control-reward	ChoiceDisplay	1	0.802	1	1
57	725.803	0.798	control-reward	ChosenDisplay		0.0		
57	726.588	0.25	control-reward	TurnDisplay				
57	726.839	0.75	control-reward	OutcomeDisplay				
58	727.591		win-reward	ImageDisplay1		0.0		
58	729.831	0.75	win-reward	StartDisplay				
58	730.584		win-reward	ImageDisplay2		0.0		
58	733.593	1.6	win-reward	ChoiceDisplay	1	1.019	1	1
58	734.629	0.581	win-reward	ChosenDisplay		0.0		
58	735.197	0.25	win-reward	TurnDisplay				
58	735.448	0.75	win-reward	OutcomeDisplay				
59	736.2		control-noreward	ImageDisplay1		0.0		
59	738.44	0.75	control-noreward	StartDisplay				
59	739.193		control-noreward	ImageDisplay2		0.0		
59	742.202	1.6	control-noreward	ChoiceDisplay	1	0.55	1	1
59	742.77	1.05	control-noreward	ChosenDisplay		0.0		
59	743.806	0.25	control-noreward	TurnDisplay				
59	744.057	0.75	control-noreward	OutcomeDisplay				
60	744.809		control-noreward	ImageDisplay1		0.0		
60	746.799	0.75	control-noreward	StartDisplay				
60	747.551		control-noreward	ImageDisplay2		0.0		
60	750.811	1.6	control-noreward	ChoiceDisplay	1	1.232	1	1
60	752.064	0.368	control-noreward	ChosenDisplay		0.0		
60	752.415	0.25	control-noreward	TurnDisplay				
60	752.666	0.75	control-noreward	OutcomeDisplay				
61	753.418		control-reward	ImageDisplay1		0.0		
61	755.659	0.75	control-reward	StartDisplay				
61	756.411		control-reward	ImageDisplay2		0.0		
61	759.42	1.6	control-reward	ChoiceDisplay	1	0.437	1	1
61	759.871	1.163	control-reward	ChosenDisplay		0.0		
61	761.025	0.25	control-reward	TurnDisplay				
61	761.275	0.75	control-reward	OutcomeDisplay				
62	762.028		loss-noreward	ImageDisplay1		0.0		
62	764.017	0.75	loss-noreward	StartDisplay				
62	764.769		loss-noreward	ImageDisplay2		0.0		
62	768.029	1.6	loss-noreward	ChoiceDisplay		0.0		
62	769.617	0.0	loss-noreward	ChosenDisplay		0.0		
62	769.634	0.25	loss-noreward	TurnDisplay				
62	769.868	0.75	loss-noreward	OutcomeDisplay				
63	770.62		control-noreward	ImageDisplay1		0.0		
63	772.626	0.75	control-noreward	StartDisplay				
63	773.378		control-noreward	ImageDisplay2		0.0		
63	776.621	1.6	control-noreward	ChoiceDisplay	1	0.894	1	1
63	777.541	0.706	control-noreward	ChosenDisplay		0.0		
63	778.226	0.25	control-noreward	TurnDisplay				
63	778.477	0.75	control-noreward	OutcomeDisplay				
64	779.229		control-noreward	ImageDisplay1		0.0		
64	781.218	0.75	control-noreward	StartDisplay				
64	781.97		control-noreward	ImageDisplay2		0.0		
64	785.23	1.6	control-noreward	ChoiceDisplay	1	0.742	1	1
64	785.999	0.858	control-noreward	ChosenDisplay		0.0		
64	786.835	0.25	control-noreward	TurnDisplay				
64	787.086	0.75	control-noreward	OutcomeDisplay				
65	787.838		win-reward	ImageDisplay1		0.0		
65	790.078	0.75	win-reward	StartDisplay				
65	790.83		win-reward	ImageDisplay2		0.0		
65	793.839	1.6	win-reward	ChoiceDisplay	1	0.932	1	1
65	794.792	0.668	win-reward	ChosenDisplay		0.0		
65	795.444	0.25	win-reward	TurnDisplay				
65	795.695	0.75	win-reward	OutcomeDisplay				
66	796.447		loss-reward	ImageDisplay1		0.0		
66	798.436	0.75	loss-reward	StartDisplay				
66	799.188		loss-reward	ImageDisplay2		0.0		
66	802.448	1.6	loss-reward	ChoiceDisplay	1	1.028	1	1
66	803.501	0.572	loss-reward	ChosenDisplay		0.0		
66	804.053	0.25	loss-reward	TurnDisplay				
66	804.304	0.75	loss-reward	OutcomeDisplay				
67	805.056		loss-noreward	ImageDisplay1		0.0		
67	807.045	0.75	loss-noreward	StartDisplay				
67	807.797		loss-noreward	ImageDisplay2		0.0		
67	811.057	1.6	loss-noreward	ChoiceDisplay	1	1.065	1	1
67	812.144	0.535	loss-noreward	ChosenDisplay		0.0		
67	812.662	0.25	loss-noreward	TurnDisplay				
67	812.913	0.75	loss-noreward	OutcomeDisplay				
68	813.665		control-reward	ImageDisplay1		0.0		
68	815.905	0.75	control-reward	StartDisplay				
68	816.657		control-reward	ImageDisplay2		0.0		
68	819.666	1.6	control-reward	ChoiceDisplay	1	0.716	1	1
68	820.402	0.884	control-reward	ChosenDisplay		0.0		
68	821.271	0.25	control-reward	TurnDisplay				
68	821.522	0.75	control-reward	OutcomeDisplay				
69	822.274		win-reward	ImageDisplay1		0.0		
69	824.514	0.75	win-reward	StartDisplay				
69	825.266		win-reward	ImageDisplay2		0.0		
69	828.275	1.6	win-reward	ChoiceDisplay	1	0.986	1	1
69	829.278	0.614	win-reward	ChosenDisplay		0.0		
69	829.88	0.25	win-reward	TurnDisplay				
69	830.131	0.75	win-reward	OutcomeDisplay				
70	830.883		win-noreward	ImageDisplay1		0.0		
70	833.123	0.75	win-noreward	StartDisplay				
70	833.875		win-noreward	ImageDisplay2		0.0		
70	836.884	1.6	win-noreward	ChoiceDisplay	1	1.238	1	1
70	838.138	0.362	win-noreward	ChosenDisplay		0.0		
70	838.489	0.25	win-noreward	TurnDisplay				
70	838.74	0.75	win-noreward	OutcomeDisplay				
71	839.492		win-reward	ImageDisplay1		0.0		
71	841.481	0.75	win-reward	StartDisplay				
71	842.234		win-reward	ImageDisplay2		0.0		
71	845.493	1.6	win-reward	ChoiceDisplay	1	1.201	1	1
71	846.714	0.399	win-reward	ChosenDisplay		0.0		
71	847.098	0.25	win-reward	TurnDisplay				
71	847.349	0.75	win-reward	OutcomeDisplay				
72	848.101		loss-noreward	ImageDisplay1		0.0		
72	850.09	0.75	loss-noreward	StartDisplay				
72	850.843		loss-noreward	ImageDisplay2		0.0		
72	854.102	1.6	loss-noreward	ChoiceDisplay	1	1.009	1	1
72	855.122	0.591	loss-noreward	ChosenDisplay		0.0		
72	855.707	0.25	loss-noreward	TurnDisplay				
72	855.958	0.75	loss-noreward	OutcomeDisplay				
73	856.71		win-reward	ImageDisplay1		0.0		
73	858.699	0.75	win-reward	StartDisplay				
73	859.452		win-reward	ImageDisplay2		0.0		
73	862.711	1.6	win-reward	ChoiceDisplay	1	0.876	1	1
73	863.614	0.724	win-reward	ChosenDisplay		0.0		
73	864.316	0.25	win-reward	TurnDisplay				
73	864.567	0.75	win-reward	OutcomeDisplay				
74	865.319		win-reward	ImageDisplay1		0.0		
74	867.559	0.75	win-reward	StartDisplay				
74	868.311		win-reward	ImageDisplay2		0.0		
74	871.321	1.6	win-reward	ChoiceDisplay	1	0.764	1	1
74	872.106	0.836	win-reward	ChosenDisplay		0.0		
74	872.925	0.25	win-reward	TurnDisplay				
74	873.176	0.75	win-reward	OutcomeDisplay				
75	873.928		win-reward	ImageDisplay1		0.0		
75	876.168	0.75	win-reward	StartDisplay				
75	876.921		win-reward	ImageDisplay2		0.0		
75	879.93	1.6	win-reward	ChoiceDisplay	1	0.59	1	1
75	880.531	1.01	win-reward	ChosenDisplay		0.0		
75	881.534	0.25	win-reward	TurnDisplay				
75	881.785	0.75	win-reward	OutcomeDisplay				
76	882.537		win-reward	ImageDisplay1		0.0		
76	884.527	0.75	win-reward	StartDisplay				
76	885.279		win-reward	ImageDisplay2		0.0		
76	888.539	1.6	win-reward	ChoiceDisplay	1	1.096	1	1
76	889.659	0.504	win-reward	ChosenDisplay		0.0		
76	890.143	0.25	win-reward	TurnDisplay				
76	890.394	0.75	win-reward	OutcomeDisplay				
77	891.146		win-noreward	ImageDisplay1		0.0		
77	893.386	0.75	win-noreward	StartDisplay				
77	894.139		win-noreward	ImageDisplay2		0.0		
77	897.148	1.6	win-noreward	ChoiceDisplay	1	1.283	1	1
77	898.451	0.317	win-noreward	ChosenDisplay		0.0		
77	898.752	0.25	win-noreward	TurnDisplay				
77	899.003	0.75	win-noreward	OutcomeDisplay				
78	899.755		win-noreward	ImageDisplay1		0.0		
78	901.995	0.75	win-noreward	StartDisplay				
78	902.748		win-noreward	ImageDisplay2		0.0		
78	905.757	1.6	win-noreward	ChoiceDisplay	1	0.895	1	1
78	906.676	0.705	win-noreward	ChosenDisplay		0.0		
78	907.361	0.25	win-noreward	TurnDisplay				
78	907.612	0.75	win-noreward	OutcomeDisplay				
79	908.364		win-reward	ImageDisplay1		0.0		
79	910.354	0.75	win-reward	StartDisplay				
79	911.106		win-reward	ImageDisplay2		0.0		
79	914.366	1.6	win-reward	ChoiceDisplay	1	0.941	1	1
79	915.319	0.659	win-reward	ChosenDisplay		0.0		
79	915.97	0.25	win-reward	TurnDisplay				
79	916.221	0.75	win-reward	OutcomeDisplay				
80	916.973		loss-reward	ImageDisplay1		0.0		
80	919.213	0.75	loss-reward	StartDisplay				
80	919.966		loss-reward	ImageDisplay2		0.0		
80	922.975	1.6	loss-reward	ChoiceDisplay	1	1.494	1	1
80	924.479	0.0	loss-reward	ChosenDisplay		0.0		
80	924.579	0.25	loss-reward	TurnDisplay				
80	924.73	0.75	loss-reward	OutcomeDisplay				
81	925.465		control-reward	ImageDisplay1		0.0		
81	927.471	0.75	control-reward	StartDisplay				
81	928.224		control-reward	ImageDisplay2		0.0		
81	931.467	1.6	control-reward	ChoiceDisplay	1	1.129	1	1
81	932.62	0.471	control-reward	ChosenDisplay		0.0		
81	933.072	0.25	control-reward	TurnDisplay				
81	933.322	0.75	control-reward	OutcomeDisplay				
82	934.075		win-noreward	ImageDisplay1		0.0		
82	936.064	0.75	win-noreward	StartDisplay				
82	936.816		win-noreward	ImageDisplay2		0.0		
82	940.076	1.6	win-noreward	ChoiceDisplay	1	0.918	1	1
82	941.012	0.682	win-noreward	ChosenDisplay		0.0		
82	941.681	0.25	win-noreward	TurnDisplay				
82	941.931	0.75	win-noreward	OutcomeDisplay				
83	942.684		loss-reward	ImageDisplay1		0.0		
83	944.924	0.75	loss-reward	StartDisplay				
83	945.676		loss-reward	ImageDisplay2		0.0		
83	948.685	1.6	loss-reward	ChoiceDisplay		0.0		
83	950.273	0.0	loss-reward	ChosenDisplay		0.0		
83	950.29	0.25	loss-reward	TurnDisplay				
83	950.524	0.75	loss-reward	OutcomeDisplay				
84	951.276		loss-noreward	ImageDisplay1		0.0		
84	953.533	0.75	loss-noreward	StartDisplay				
84	954.285		loss-noreward	ImageDisplay2		0.0		
84	957.277	1.6	loss-noreward	ChoiceDisplay	1	0.933	1	1
84	958.23	0.667	loss-noreward	ChosenDisplay		0.0		
84	958.882	0.25	loss-noreward	TurnDisplay				
84	959.133	0.75	loss-noreward	OutcomeDisplay				
85	959.885		control-reward	ImageDisplay1		0.0		
85	961.874	0.75	control-reward	StartDisplay				
85	962.626		control-reward	ImageDisplay2		0.0		
85	965.886	1.6	control-reward	ChoiceDisplay	1	0.984	1	1
85	966.889	0.616	control-reward	ChosenDisplay		0.0		
85	967.491	0.25	control-reward	TurnDisplay				
85	967.742	0.75	control-reward	OutcomeDisplay				
86	968.494		win-noreward	ImageDisplay1		0.0		
86	970.483	0.75	win-noreward	StartDisplay				
86	971.235		win-noreward	ImageDisplay2		0.0		
86	974.495	1.6	win-noreward	ChoiceDisplay	1	1.016	1	1
86	975.532	0.584	win-noreward	ChosenDisplay		0.0		
86	976.1	0.25	win-noreward	TurnDisplay				
86	976.351	0.75	win-noreward	OutcomeDisplay				
87	977.103		loss-reward	ImageDisplay1		0.0		
87	979.092	0.75	loss-reward	StartDisplay				
87	979.845		loss-reward	ImageDisplay2		0.0		
87	983.104	1.6	loss-reward	ChoiceDisplay	1	1.114	1	1
87	984.241	0.486	loss-reward	ChosenDisplay		0.0		
87	984.709	0.25	loss-reward	TurnDisplay				
87	984.96	0.75	loss-reward	OutcomeDisplay				
88	985.712		control-noreward	ImageDisplay1		0.0		
88	987.952	0.75	control-noreward	StartDisplay				
88	988.704		control-noreward	ImageDisplay2		0.0		
88	991.713	1.6	control-noreward	ChoiceDisplay	1	0.999	1	1
88	992.733	0.601	control-noreward	ChosenDisplay		0.0		
88	993.318	0.25	control-noreward	TurnDisplay				
88	993.569	0.75	control-noreward	OutcomeDisplay				
89	994.321		loss-noreward	ImageDisplay1		0.0		
89	996.561	0.75	loss-noreward	StartDisplay				
89	997.313		loss-noreward	ImageDisplay2		0.0		
89	1000.322	1.6	loss-noreward	ChoiceDisplay	1	0.545	1	1
89	1000.891	1.055	loss-noreward	ChosenDisplay		0.0		
89	1001.927	0.25	loss-noreward	TurnDisplay				
89	1002.178	0.75	loss-noreward	OutcomeDisplay				
90	1002.93		loss-reward	ImageDisplay1		0.0		
90	1005.17	0.75	loss-reward	StartDisplay				
90	1005.922		loss-reward	ImageDisplay2		0.0		
90	1008.931	1.6	loss-reward	ChoiceDisplay	1	1.103	1	1
90	1010.051	0.497	loss-reward	ChosenDisplay		0.0		
90	1010.536	0.25	loss-reward	TurnDisplay				
90	1010.787	0.75	loss-reward	OutcomeDisplay				
91	1011.539		loss-reward	ImageDisplay1		0.0		
91	1013.779	0.75	loss-reward	StartDisplay				
91	1014.531		loss-reward	ImageDisplay2		0.0		
91	1017.54	1.6	loss-reward	ChoiceDisplay		0.0		
91	1019.128	0.0	loss-reward	ChosenDisplay		0.0		
91	1019.145	0.25	loss-reward	TurnDisplay				
91	1019.379	0.75	loss-reward	OutcomeDisplay				
92	1020.131		loss-reward	ImageDisplay1		0.0		
92	1022.137	0.75	loss-reward	StartDisplay				
92	1022.89		loss-reward	ImageDisplay2		0.0		
92	1026.133	1.6	loss-reward	ChoiceDisplay	1	0.518	1	1
92	1026.668	1.082	loss-reward	ChosenDisplay		0.0		
92	1027.737	0.25	loss-reward	TurnDisplay				
92	1027.988	0.75	loss-reward	OutcomeDisplay				
93	1028.74		loss-reward	ImageDisplay1		0.0		
93	1030.981	0.75	loss-reward	StartDisplay				
93	1031.733		loss-reward	ImageDisplay2		0.0		
93	1034.742	1.6	loss-reward	ChoiceDisplay	1	1.02	1	1
93	1035.778	0.58	loss-reward	ChosenDisplay		0.0		
93	1036.347	0.25	loss-reward	TurnDisplay				
93	1036.597	0.75	loss-reward	OutcomeDisplay				
94	1037.35		win-noreward	ImageDisplay1		0.0		
94	1039.339	0.75	win-noreward	StartDisplay				
94	1040.091		win-noreward	ImageDisplay2		0.0		
94	1043.351	1.6	win-noreward	ChoiceDisplay	1	0.895	1	1
94	1044.27	0.705	win-noreward	ChosenDisplay		0.0		
94	1044.956	0.25	win-noreward	TurnDisplay				
94	1045.206	0.75	win-noreward	OutcomeDisplay				
95	1045.959		loss-reward	ImageDisplay1		0.0		
95	1048.199	0.75	loss-reward	StartDisplay				
95	1048.951		loss-reward	ImageDisplay2		0.0		
95	1051.96	1.6	loss-reward	ChoiceDisplay	1	0.558	1	1
95	1052.545	1.042	loss-reward	ChosenDisplay		0.0		
95	1053.565	0.25	loss-reward	TurnDisplay				
95	1053.815	0.75	loss-reward	OutcomeDisplay				
