onset	duration	trial_type	response_time	stim_file	accuracy
100.536	1.0	go	0.861	Go_O	1.0
103.127	1.0	go	0.393	Go_X	1.0
105.651	1.0	go	0.419	Go_X	1.0
108.175	1.0	go	0.402	Go_O	1.0
110.699	1.0	go	0.347	Go_X	1.0
113.223	1.0	go	0.284	Go_O	1.0
115.747	0.25	stopsuccess	0.0	Go_O	1.0
118.272	1.0	go	0.306	Go_X	1.0
120.796	0.3	stopfail	0.385	Go_X	0.0
123.32	1.0	go	0.37	Go_O	1.0
125.844	1.0	go	0.434	Go_X	1.0
128.368	1.0	go	0.447	Go_O	1.0
130.892	0.25	stopsuccess	0.0	Go_O	1.0
133.417	1.0	go	0.39	Go_O	1.0
135.941	1.0	go	0.513	Go_X	1.0
138.465	0.3	stopsuccess	0.0	Go_X	1.0
140.989	0.35	stopfail	0.512	Go_O	0.0
143.513	1.0	go	0.743	Go_X	1.0
146.037	1.0	go	0.605	Go_O	1.0
148.562	0.3	stopfail	0.436	Go_X	0.0
151.086	1.0	go	0.723	Go_X	1.0
153.61	1.0	go	0.758	Go_O	1.0
156.134	0.25	stopsuccess	0.0	Go_O	1.0
158.658	1.0	go	0.574	Go_O	1.0
161.182	1.0	go	0.563	Go_X	1.0
163.707	0.3	stopsuccess	0.0	Go_X	1.0
166.231	1.0	go	0.725	Go_X	1.0
168.755	1.0	go	0.835	Go_O	1.0
171.279	0.35	stopfail	0.527	Go_O	0.0
173.803	1.0	go	0.412	Go_O	1.0
176.327	1.0	go	0.702	Go_X	1.0
178.852	1.0	go	0.659	Go_X	1.0
181.376	1.0	go	0.631	Go_O	1.0
183.9	1.0	go	0.717	Go_O	1.0
186.424	0.3	stopsuccess	0.0	Go_X	1.0
188.965	1.0	go	0.528	Go_X	1.0
191.489	1.0	go	0.69	Go_O	1.0
194.013	1.0	go	0.583	Go_X	1.0
196.537	1.0	go	0.562	Go_O	1.0
199.062	1.0	go	0.729	Go_X	1.0
201.586	0.35	stopsuccess	0.0	Go_O	1.0
204.11	1.0	go	0.55	Go_X	1.0
206.634	1.0	go	0.67	Go_O	1.0
209.158	1.0	go	0.827	Go_X	1.0
211.682	1.0	go	0.611	Go_O	1.0
214.206	1.0	go	0.559	Go_X	1.0
216.731	1.0	go	0.664	Go_O	1.0
219.255	0.4	stopsuccess	0.0	Go_X	1.0
221.779	1.0	go	0.638	Go_X	1.0
224.303	1.0	go	0.0	Go_O	0.0
226.827	0.45	stopsuccess	0.0	Go_O	1.0
229.351	1.0	go	0.407	Go_X	1.0
231.876	0.5	stopsuccess	0.0	Go_X	1.0
234.4	0.55	stopsuccess	0.0	Go_O	1.0
236.924	1.0	go	0.54	Go_O	1.0
239.448	1.0	go	0.507	Go_X	1.0
241.972	1.0	go	0.547	Go_O	1.0
244.496	1.0	go	0.726	Go_X	1.0
247.021	0.6	stopsuccess	0.0	Go_X	1.0
249.545	1.0	go	0.741	Go_O	1.0
252.069	0.65	stopfail	0.681	Go_O	0.0
254.593	1.0	go	0.722	Go_X	1.0
257.117	1.0	go	0.693	Go_O	1.0
259.641	1.0	go	0.634	Go_X	1.0
262.166	1.0	go	0.628	Go_O	1.0
264.69	1.0	go	0.681	Go_X	1.0
267.214	1.0	go	0.738	Go_O	1.0
269.738	1.0	go	0.561	Go_X	1.0
272.262	1.0	go	0.434	Go_O	1.0
274.786	1.0	go	0.578	Go_X	1.0
277.311	0.6	stopfail	0.59	Go_X	0.0
279.835	1.0	go	0.533	Go_O	1.0
282.359	1.0	go	0.683	Go_O	1.0
284.883	1.0	go	0.552	Go_X	1.0
287.407	0.55	stopfail	0.598	Go_O	0.0
289.931	1.0	go	0.515	Go_O	1.0
292.455	1.0	go	0.55	Go_X	1.0
294.98	1.0	go	0.74	Go_O	1.0
297.504	1.0	go	0.255	Go_X	1.0
300.028	1.0	go	0.573	Go_X	1.0
302.552	1.0	go	0.874	Go_O	1.0
305.076	0.5	stopfail	0.48	Go_X	0.0
307.6	1.0	go	0.877	Go_O	1.0
310.125	1.0	go	0.662	Go_X	1.0
312.649	0.45	stopfail	0.581	Go_O	0.0
315.173	1.0	go	0.588	Go_O	1.0
317.697	1.0	go	0.382	Go_X	1.0
320.221	0.4	stopfail	0.398	Go_X	0.0
322.745	1.0	go	0.593	Go_X	1.0
325.27	0.35	stopfail	0.37	Go_O	0.0
327.794	1.0	go	0.798	Go_O	1.0
330.318	1.0	go	0.349	Go_X	1.0
332.842	1.0	go	0.444	Go_O	1.0
335.366	1.0	go	0.648	Go_O	1.0
337.89	1.0	go	0.514	Go_X	1.0
340.415	0.3	stopfail	0.481	Go_X	0.0
342.939	0.25	stopsuccess	0.0	Go_O	1.0
345.463	1.0	go	0.615	Go_X	1.0
347.987	1.0	go	0.434	Go_O	1.0
350.511	0.3	stopsuccess	0.0	Go_X	1.0
353.035	1.0	go	0.556	Go_O	1.0
355.559	1.0	go	0.695	Go_X	1.0
358.084	1.0	go	0.686	Go_O	1.0
360.608	1.0	go	0.812	Go_X	1.0
363.132	1.0	go	0.652	Go_X	1.0
365.656	1.0	go	0.762	Go_O	1.0
368.18	0.35	stopsuccess	0.0	Go_O	1.0
370.704	1.0	go	0.392	Go_O	1.0
373.229	1.0	go	0.574	Go_X	1.0
375.753	1.0	go	0.514	Go_X	1.0
378.277	1.0	go	0.501	Go_O	1.0
380.801	1.0	go	0.486	Go_O	1.0
383.325	0.4	stopfail	0.407	Go_X	0.0
385.849	1.0	go	0.662	Go_X	1.0
388.374	1.0	go	0.723	Go_X	1.0
390.898	1.0	go	0.473	Go_O	1.0
393.422	1.0	go	0.468	Go_O	0.0
395.946	0.35	stopsuccess	0.0	Go_O	1.0
398.47	1.0	go	0.348	Go_X	1.0
400.994	1.0	go	0.588	Go_O	1.0
403.519	0.4	stopsuccess	0.0	Go_X	1.0
406.043	1.0	go	0.476	Go_X	1.0
408.567	0.45	stopfail	0.521	Go_O	0.0
411.091	1.0	go	0.702	Go_O	1.0
413.615	1.0	go	0.712	Go_X	1.0
416.139	1.0	go	0.572	Go_O	1.0
418.664	1.0	go	0.662	Go_X	1.0
421.188	1.0	go	0.877	Go_X	1.0
423.712	1.0	go	0.442	Go_O	1.0
426.236	1.0	go	0.787	Go_O	1.0
428.76	0.4	stopsuccess	0.0	Go_X	1.0
431.284	1.0	go	0.666	Go_X	1.0
433.808	1.0	go	0.742	Go_X	1.0
436.333	1.0	go	0.479	Go_O	1.0
438.857	0.45	stopsuccess	0.0	Go_O	1.0
441.381	1.0	go	0.495	Go_X	1.0
443.905	1.0	go	0.0	Go_O	0.0
446.429	1.0	go	0.532	Go_X	1.0
448.953	1.0	go	0.398	Go_O	1.0
451.478	0.5	stopfail	0.342	Go_X	0.0
454.002	1.0	go	0.466	Go_X	0.0
456.526	1.0	go	0.391	Go_O	1.0
459.05	0.45	stopfail	0.552	Go_O	0.0
461.574	1.0	go	0.447	Go_O	1.0
464.098	1.0	go	0.594	Go_X	1.0
466.623	0.4	stopfail	0.575	Go_X	0.0
469.147	1.0	go	0.489	Go_X	1.0
471.671	1.0	go	0.703	Go_O	1.0
474.195	0.35	stopsuccess	0.0	Go_O	1.0
476.719	1.0	go	0.589	Go_O	1.0
479.243	1.0	go	0.728	Go_X	1.0
481.768	1.0	go	0.612	Go_X	1.0
484.292	1.0	go	0.739	Go_O	1.0
486.816	1.0	go	0.0	Go_O	0.0
489.34	1.0	go	0.718	Go_X	1.0
491.864	0.4	stopfail	0.411	Go_X	0.0
494.388	1.0	go	0.419	Go_O	1.0
496.913	0.35	stopfail	0.445	Go_O	0.0
499.437	1.0	go	0.372	Go_X	1.0
501.961	1.0	go	0.392	Go_O	1.0
504.485	1.0	go	0.318	Go_X	1.0
507.009	1.0	go	0.794	Go_X	1.0
509.533	1.0	go	0.439	Go_O	1.0
512.057	0.3	stopsuccess	0.0	Go_X	1.0
514.582	1.0	go	0.619	Go_X	1.0
517.106	1.0	go	0.545	Go_O	1.0
519.63	1.0	go	0.0	Go_O	0.0
522.154	0.35	stopfail	0.65	Go_O	0.0
524.678	0.3	stopfail	0.628	Go_X	0.0
527.202	0.25	stopsuccess	0.0	Go_O	1.0
529.727	1.0	go	0.702	Go_X	1.0
532.251	0.3	stopfail	0.81	Go_X	0.0
534.775	1.0	go	0.319	Go_O	1.0
537.299	1.0	go	0.404	Go_X	1.0
539.823	1.0	go	0.909	Go_X	1.0
542.347	1.0	go	0.845	Go_O	1.0
544.872	1.0	go	0.377	Go_X	1.0
547.396	1.0	go	0.544	Go_O	1.0
549.92	1.0	go	0.554	Go_X	1.0
552.444	1.0	go	0.374	Go_O	1.0
554.968	0.25	stopsuccess	0.0	Go_O	1.0
557.492	1.0	go	0.642	Go_O	1.0
560.017	1.0	go	0.672	Go_X	1.0
562.541	0.3	stopfail	0.651	Go_X	0.0
565.065	1.0	go	0.531	Go_X	1.0
567.589	1.0	go	0.571	Go_O	1.0
570.113	1.0	go	0.382	Go_X	1.0
572.637	1.0	go	0.436	Go_O	0.0
575.161	1.0	go	0.0	Go_X	0.0
577.686	0.25	stopfail	0.464	Go_O	0.0
580.21	1.0	go	0.0	Go_O	0.0
582.734	1.0	go	0.0	Go_X	0.0
585.258	1.0	go	0.555	Go_O	1.0
587.782	0.2	stopfail	0.345	Go_X	0.0
590.306	1.0	go	0.444	Go_X	1.0
592.831	0.15	stopsuccess	0.0	Go_O	1.0
595.355	1.0	go	0.557	Go_O	1.0
597.879	1.0	go	0.667	Go_O	1.0
600.403	1.0	go	0.53	Go_X	1.0
602.927	1.0	go	0.5	Go_O	1.0
605.451	1.0	go	0.42	Go_X	1.0
607.976	1.0	go	0.568	Go_X	1.0
610.5	1.0	go	0.646	Go_O	1.0
613.024	0.2	stopsuccess	0.0	Go_X	1.0
615.548	1.0	go	0.468	Go_O	1.0
618.072	1.0	go	0.558	Go_X	1.0
620.596	1.0	go	0.0	Go_O	0.0
623.121	1.0	go	0.0	Go_X	0.0
625.645	0.25	stopsuccess	0.0	Go_O	1.0
628.169	1.0	go	0.0	Go_X	0.0
630.693	0.3	stopsuccess	0.0	Go_X	1.0
633.217	1.0	go	0.666	Go_O	1.0
635.741	1.0	go	0.0	Go_X	0.0
638.266	0.35	stopfail	0.345	Go_O	0.0
640.79	1.0	go	0.418	Go_O	1.0
643.314	1.0	go	0.353	Go_O	1.0
645.838	1.0	go	0.383	Go_X	1.0
648.362	1.0	go	0.0	Go_O	0.0
650.886	1.0	go	0.46	Go_X	1.0
653.41	1.0	go	0.539	Go_O	1.0
655.935	1.0	go	0.341	Go_X	1.0
658.459	1.0	go	0.397	Go_O	1.0
660.983	1.0	go	0.366	Go_X	1.0
663.507	1.0	go	0.611	Go_O	1.0
666.031	0.3	stopfail	0.319	Go_X	0.0
668.555	1.0	go	0.39	Go_X	1.0
671.08	1.0	go	0.445	Go_O	1.0
673.604	0.25	stopsuccess	0.0	Go_O	1.0
676.128	1.0	go	0.47	Go_X	1.0
678.652	0.3	stopfail	0.657	Go_X	0.0
681.176	1.0	go	0.696	Go_O	1.0
683.7	1.0	go	0.598	Go_X	1.0
686.225	0.25	stopsuccess	0.0	Go_O	1.0
688.749	1.0	go	0.57	Go_X	1.0
691.273	0.3	stopsuccess	0.0	Go_X	1.0
693.797	1.0	go	0.458	Go_O	1.0
696.321	1.0	go	0.534	Go_O	1.0
698.845	1.0	go	0.498	Go_X	1.0
701.37	0.35	stopsuccess	0.0	Go_O	1.0
703.894	1.0	go	0.408	Go_O	1.0
706.418	1.0	go	0.612	Go_X	1.0
708.942	1.0	go	0.555	Go_X	1.0
711.466	1.0	go	0.421	Go_O	1.0
713.99	0.4	stopfail	0.384	Go_X	0.0
716.515	1.0	go	0.585	Go_O	1.0
719.039	1.0	go	0.574	Go_X	1.0
721.563	0.35	stopsuccess	0.0	Go_O	1.0
724.087	1.0	go	0.0	Go_X	0.0
726.611	1.0	go	0.44	Go_O	1.0
729.135	1.0	go	0.396	Go_O	1.0
731.659	1.0	go	0.0	Go_X	0.0
734.184	0.4	stopsuccess	0.0	Go_X	1.0
736.708	1.0	go	0.352	Go_O	1.0
739.232	0.45	stopfail	0.416	Go_O	0.0
741.756	1.0	go	0.0	Go_X	0.0
744.28	1.0	go	0.398	Go_O	1.0
746.804	0.4	stopfail	0.446	Go_X	0.0
749.329	1.0	go	0.69	Go_X	1.0
751.853	1.0	go	0.0	Go_O	0.0
754.377	1.0	go	0.412	Go_X	1.0
756.901	1.0	go	0.32	Go_X	1.0
759.425	0.35	stopsuccess	0.0	Go_O	1.0
761.949	1.0	go	0.0	Go_O	0.0
764.474	0.4	stopfail	0.529	Go_X	0.0
766.998	1.0	go	0.559	Go_O	1.0
769.522	1.0	go	0.314	Go_X	1.0
772.046	1.0	go	0.57	Go_O	1.0
774.57	1.0	go	0.298	Go_X	1.0
777.094	1.0	go	0.572	Go_O	1.0
779.619	1.0	go	0.405	Go_X	1.0
782.143	0.35	stopfail	0.271	Go_O	0.0
784.667	1.0	go	0.319	Go_X	1.0
787.191	1.0	go	0.209	Go_O	1.0
789.715	0.3	stopfail	0.398	Go_X	0.0
792.239	1.0	go	0.567	Go_O	1.0
794.763	1.0	go	0.415	Go_X	1.0
797.288	0.25	stopfail	0.481	Go_O	0.0
799.812	1.0	go	0.0	Go_X	0.0
802.336	1.0	go	0.467	Go_O	1.0
804.86	1.0	go	0.63	Go_X	1.0
807.384	1.0	go	0.243	Go_O	1.0
809.908	0.2	stopfail	0.271	Go_X	0.0
812.433	1.0	go	0.6	Go_O	1.0
814.957	0.15	stopsuccess	0.0	Go_O	1.0
817.481	1.0	go	0.302	Go_X	1.0
820.005	1.0	go	0.591	Go_X	1.0
822.529	1.0	go	0.394	Go_O	1.0
825.053	1.0	go	0.569	Go_O	1.0
827.578	1.0	go	0.0	Go_X	0.0
830.102	0.2	stopsuccess	0.0	Go_X	1.0
832.626	1.0	go	0.687	Go_O	1.0
835.15	1.0	go	0.716	Go_X	1.0
837.674	0.25	stopfail	0.321	Go_O	0.0
840.198	0.2	stopfail	0.297	Go_X	0.0
842.723	1.0	go	0.491	Go_X	1.0
845.247	1.0	go	0.341	Go_O	1.0
847.771	1.0	go	0.341	Go_X	1.0
850.295	1.0	go	0.72	Go_O	1.0
852.819	0.15	stopsuccess	0.0	Go_O	1.0
855.343	1.0	go	0.475	Go_O	1.0
