onset	duration	trial_type	response_time	stim_file	accuracy
67.062	1.0	go	0.7	Go_X	0.0
69.636	1.0	go	0.381	Go_O	1.0
72.16	1.0	go	0.415	Go_O	1.0
74.684	1.0	go	0.449	Go_X	1.0
77.209	1.0	go	0.56	Go_O	1.0
79.75	1.0	go	0.562	Go_X	1.0
82.291	0.25	stopsuccess	0.0	Go_O	1.0
84.832	1.0	go	0.52	Go_O	1.0
87.356	0.3	stopfail	0.317	Go_X	0.0
89.897	1.0	go	0.61	Go_X	1.0
92.438	1.0	go	0.388	Go_O	1.0
94.979	1.0	go	0.529	Go_X	1.0
97.503	0.25	stopsuccess	0.0	Go_O	1.0
100.044	1.0	go	0.655	Go_O	1.0
102.585	1.0	go	0.508	Go_X	1.0
105.109	0.3	stopsuccess	0.0	Go_X	1.0
107.65	0.35	stopfail	0.426	Go_O	0.0
110.191	1.0	go	0.644	Go_X	1.0
112.732	1.0	go	0.575	Go_O	1.0
115.256	0.3	stopsuccess	0.0	Go_X	1.0
117.797	1.0	go	0.511	Go_O	1.0
120.338	1.0	go	0.464	Go_X	1.0
122.879	0.35	stopfail	0.38	Go_O	0.0
125.42	1.0	go	0.488	Go_O	1.0
127.944	1.0	go	0.496	Go_X	1.0
130.468	0.3	stopsuccess	0.0	Go_X	1.0
132.993	1.0	go	0.872	Go_X	1.0
135.534	1.0	go	0.64	Go_O	1.0
138.074	0.35	stopfail	0.486	Go_O	0.0
140.615	1.0	go	0.448	Go_O	1.0
143.14	1.0	go	0.582	Go_X	1.0
145.681	1.0	go	0.475	Go_O	1.0
148.222	1.0	go	0.49	Go_X	1.0
150.746	1.0	go	0.498	Go_X	1.0
153.287	0.3	stopsuccess	0.0	Go_X	1.0
155.828	1.0	go	0.469	Go_O	1.0
158.352	1.0	go	0.523	Go_O	1.0
160.893	1.0	go	0.719	Go_X	1.0
163.417	1.0	go	0.53	Go_X	1.0
165.941	1.0	go	0.411	Go_O	1.0
168.466	0.35	stopfail	0.406	Go_O	0.0
171.007	1.0	go	0.58	Go_X	1.0
173.548	1.0	go	0.36	Go_O	1.0
176.088	1.0	go	0.332	Go_X	1.0
178.613	1.0	go	0.344	Go_O	1.0
181.154	1.0	go	0.576	Go_O	1.0
183.695	1.0	go	0.403	Go_X	1.0
186.236	0.3	stopsuccess	0.0	Go_X	1.0
188.776	1.0	go	0.288	Go_O	1.0
191.301	1.0	go	0.509	Go_X	1.0
193.825	0.35	stopfail	0.286	Go_O	0.0
196.349	1.0	go	0.395	Go_O	1.0
198.873	0.3	stopfail	0.388	Go_X	0.0
201.414	0.25	stopsuccess	0.0	Go_O	1.0
203.955	1.0	go	0.464	Go_X	1.0
206.48	1.0	go	0.543	Go_X	1.0
209.021	1.0	go	0.446	Go_O	1.0
211.561	1.0	go	0.485	Go_O	1.0
214.086	0.3	stopsuccess	0.0	Go_X	1.0
216.627	1.0	go	0.43	Go_X	1.0
219.168	0.35	stopfail	0.42	Go_O	0.0
221.709	1.0	go	0.529	Go_O	1.0
224.25	1.0	go	0.374	Go_X	1.0
226.79	1.0	go	0.525	Go_X	1.0
229.315	1.0	go	0.378	Go_O	1.0
231.839	1.0	go	0.372	Go_O	1.0
234.38	1.0	go	0.361	Go_X	1.0
236.921	1.0	go	0.52	Go_X	1.0
239.462	1.0	go	0.567	Go_O	1.0
241.986	1.0	go	0.468	Go_O	1.0
244.527	0.3	stopfail	0.443	Go_X	0.0
247.068	1.0	go	0.647	Go_X	1.0
249.609	1.0	go	0.494	Go_O	1.0
252.133	1.0	go	0.54	Go_X	1.0
254.674	0.25	stopsuccess	0.0	Go_O	1.0
257.215	1.0	go	0.388	Go_X	1.0
259.756	1.0	go	0.395	Go_O	1.0
262.28	1.0	go	0.336	Go_X	1.0
264.821	1.0	go	0.527	Go_O	1.0
267.345	1.0	go	0.452	Go_X	1.0
269.87	1.0	go	0.5	Go_O	1.0
272.411	0.3	stopsuccess	0.0	Go_X	1.0
274.952	1.0	go	0.451	Go_X	1.0
277.476	1.0	go	0.432	Go_O	1.0
280.0	0.35	stopfail	0.466	Go_O	0.0
282.524	1.0	go	0.496	Go_X	1.0
285.048	1.0	go	0.459	Go_O	1.0
287.589	0.3	stopsuccess	0.0	Go_X	1.0
290.13	1.0	go	0.458	Go_X	1.0
292.671	0.35	stopfail	0.318	Go_O	0.0
295.196	1.0	go	0.379	Go_O	1.0
297.736	1.0	go	0.303	Go_X	1.0
300.261	1.0	go	0.412	Go_O	1.0
302.802	1.0	go	0.362	Go_O	1.0
305.343	1.0	go	0.496	Go_X	1.0
307.884	0.3	stopsuccess	0.0	Go_X	1.0
310.424	0.35	stopfail	0.203	Go_O	0.0
312.949	1.0	go	0.451	Go_X	1.0
315.49	1.0	go	0.436	Go_O	1.0
318.014	0.3	stopsuccess	0.0	Go_X	1.0
320.555	1.0	go	0.299	Go_O	1.0
323.096	1.0	go	0.338	Go_X	1.0
325.637	1.0	go	0.453	Go_O	1.0
328.178	1.0	go	0.372	Go_X	1.0
330.719	1.0	go	0.298	Go_O	1.0
333.26	1.0	go	0.431	Go_X	1.0
335.801	0.35	stopfail	0.369	Go_O	0.0
338.342	1.0	go	0.414	Go_X	1.0
340.866	1.0	go	0.293	Go_O	0.0
343.407	1.0	go	0.249	Go_X	1.0
345.948	1.0	go	0.193	Go_O	1.0
348.489	1.0	go	0.304	Go_X	1.0
351.03	0.3	stopsuccess	0.0	Go_X	1.0
353.571	1.0	go	0.295	Go_O	1.0
356.111	1.0	go	0.399	Go_X	1.0
358.636	1.0	go	0.355	Go_O	1.0
361.177	1.0	go	0.427	Go_X	1.0
363.701	0.35	stopfail	0.358	Go_O	0.0
366.242	1.0	go	0.281	Go_O	1.0
368.783	1.0	go	0.274	Go_X	1.0
371.324	0.3	stopfail	0.416	Go_X	0.0
373.865	1.0	go	0.278	Go_O	1.0
376.406	0.25	stopfail	0.346	Go_O	0.0
378.947	1.0	go	0.541	Go_X	1.0
381.471	1.0	go	0.439	Go_O	1.0
384.012	1.0	go	0.549	Go_X	1.0
386.553	1.0	go	0.38	Go_O	1.0
389.077	1.0	go	0.457	Go_O	1.0
391.618	1.0	go	0.448	Go_X	1.0
394.142	1.0	go	0.352	Go_O	1.0
396.666	0.2	stopsuccess	0.0	Go_X	1.0
399.207	1.0	go	0.47	Go_X	1.0
401.732	1.0	go	0.292	Go_X	0.0
404.273	1.0	go	0.416	Go_O	1.0
406.813	0.25	stopsuccess	0.0	Go_O	1.0
409.354	1.0	go	0.484	Go_X	1.0
411.895	1.0	go	0.377	Go_O	1.0
414.42	1.0	go	0.434	Go_O	1.0
416.961	1.0	go	0.597	Go_X	1.0
419.502	0.3	stopfail	0.407	Go_X	0.0
422.042	1.0	go	0.638	Go_X	1.0
424.583	1.0	go	0.355	Go_O	1.0
427.124	0.25	stopfail	0.311	Go_O	0.0
429.665	1.0	go	0.398	Go_X	1.0
432.206	1.0	go	0.427	Go_O	1.0
434.747	0.2	stopsuccess	0.0	Go_X	1.0
437.288	1.0	go	0.338	Go_O	1.0
439.812	1.0	go	0.508	Go_X	1.0
442.353	0.25	stopsuccess	0.0	Go_O	1.0
444.894	1.0	go	0.383	Go_O	1.0
447.419	1.0	go	0.346	Go_X	1.0
449.96	1.0	go	0.44	Go_X	1.0
452.5	1.0	go	0.367	Go_O	1.0
455.025	1.0	go	0.523	Go_O	1.0
457.549	1.0	go	0.421	Go_X	1.0
460.073	0.3	stopfail	0.468	Go_X	0.0
462.614	1.0	go	0.491	Go_X	1.0
465.138	0.25	stopsuccess	0.0	Go_O	1.0
467.679	1.0	go	0.384	Go_O	1.0
470.204	1.0	go	0.513	Go_X	1.0
472.744	1.0	go	0.483	Go_O	1.0
475.269	1.0	go	0.538	Go_X	1.0
477.81	1.0	go	0.401	Go_O	1.0
480.351	0.3	stopsuccess	0.0	Go_X	1.0
482.892	1.0	go	0.637	Go_X	1.0
485.433	1.0	go	0.561	Go_O	1.0
487.973	1.0	go	0.497	Go_O	1.0
490.498	0.35	stopsuccess	0.0	Go_O	1.0
493.039	0.4	stopsuccess	0.0	Go_X	1.0
495.58	0.45	stopsuccess	0.0	Go_O	1.0
498.121	1.0	go	0.0	Go_X	0.0
500.662	0.5	stopfail	0.473	Go_X	0.0
503.202	1.0	go	0.304	Go_O	1.0
505.727	1.0	go	0.523	Go_X	1.0
508.268	1.0	go	0.307	Go_O	1.0
510.792	1.0	go	0.525	Go_X	1.0
513.333	1.0	go	0.499	Go_O	1.0
515.874	1.0	go	0.426	Go_X	0.0
518.398	1.0	go	0.358	Go_O	1.0
520.922	1.0	go	0.403	Go_X	1.0
523.463	0.45	stopfail	0.429	Go_O	0.0
526.004	1.0	go	0.376	Go_X	0.0
528.528	1.0	go	0.375	Go_O	1.0
531.053	0.4	stopfail	0.224	Go_X	0.0
533.594	1.0	go	0.424	Go_X	1.0
536.135	1.0	go	0.375	Go_O	1.0
538.66	1.0	go	0.492	Go_O	1.0
541.2	1.0	go	0.457	Go_X	1.0
543.741	1.0	go	0.453	Go_O	1.0
546.282	0.35	stopfail	0.319	Go_O	0.0
548.823	1.0	go	0.426	Go_X	1.0
551.364	1.0	go	0.417	Go_X	1.0
553.904	1.0	go	0.425	Go_O	1.0
556.429	0.3	stopfail	0.423	Go_X	0.0
558.97	1.0	go	0.298	Go_O	1.0
561.511	0.25	stopfail	0.352	Go_O	0.0
564.052	1.0	go	0.415	Go_X	1.0
566.593	1.0	go	0.467	Go_X	1.0
569.133	1.0	go	0.592	Go_O	1.0
571.674	1.0	go	0.322	Go_O	1.0
574.199	1.0	go	0.541	Go_X	1.0
576.74	1.0	go	0.496	Go_X	1.0
579.281	1.0	go	0.488	Go_O	1.0
581.822	0.2	stopsuccess	0.0	Go_X	1.0
584.363	1.0	go	0.449	Go_X	1.0
586.903	1.0	go	0.435	Go_O	1.0
589.428	1.0	go	0.461	Go_O	1.0
591.969	1.0	go	0.302	Go_X	1.0
594.51	0.25	stopsuccess	0.0	Go_O	1.0
597.051	1.0	go	0.391	Go_X	1.0
599.591	0.3	stopfail	0.468	Go_X	0.0
602.116	1.0	go	0.342	Go_O	1.0
604.657	1.0	go	0.427	Go_O	1.0
607.198	0.25	stopsuccess	0.0	Go_O	1.0
609.739	1.0	go	0.384	Go_X	1.0
612.279	1.0	go	0.499	Go_X	1.0
614.804	1.0	go	0.417	Go_O	1.0
617.345	1.0	go	0.572	Go_X	1.0
619.869	1.0	go	0.278	Go_O	1.0
622.41	1.0	go	0.379	Go_O	1.0
624.951	1.0	go	0.479	Go_X	1.0
627.492	1.0	go	0.462	Go_X	1.0
630.033	1.0	go	0.595	Go_O	0.0
632.574	1.0	go	0.433	Go_X	1.0
635.115	0.3	stopfail	0.465	Go_X	0.0
637.639	1.0	go	0.325	Go_O	1.0
640.18	1.0	go	0.385	Go_O	1.0
642.721	0.25	stopsuccess	0.0	Go_O	1.0
645.262	1.0	go	0.537	Go_X	1.0
647.803	0.3	stopsuccess	0.0	Go_X	1.0
650.344	1.0	go	0.544	Go_O	1.0
652.885	1.0	go	0.536	Go_X	1.0
655.425	0.35	stopsuccess	0.0	Go_O	1.0
657.967	1.0	go	0.624	Go_O	1.0
660.507	0.4	stopsuccess	0.0	Go_X	1.0
663.032	1.0	go	0.41	Go_X	1.0
665.556	1.0	go	0.424	Go_O	1.0
668.097	1.0	go	0.628	Go_X	1.0
670.638	0.45	stopfail	0.359	Go_O	0.0
673.179	1.0	go	0.417	Go_O	1.0
675.72	1.0	go	0.414	Go_X	1.0
678.261	1.0	go	0.359	Go_O	1.0
680.802	1.0	go	0.576	Go_X	1.0
683.326	0.4	stopfail	0.536	Go_X	0.0
685.867	1.0	go	0.426	Go_O	1.0
688.391	1.0	go	0.614	Go_X	0.0
690.932	0.35	stopfail	0.403	Go_O	0.0
693.473	1.0	go	0.442	Go_O	1.0
696.014	1.0	go	0.364	Go_X	1.0
698.555	1.0	go	0.436	Go_O	1.0
701.079	1.0	go	0.67	Go_X	1.0
703.62	0.3	stopsuccess	0.0	Go_X	1.0
706.161	1.0	go	0.688	Go_O	1.0
708.702	0.35	stopfail	0.417	Go_O	0.0
711.243	1.0	go	0.5	Go_X	1.0
713.784	1.0	go	0.387	Go_X	1.0
716.308	0.3	stopsuccess	0.0	Go_X	1.0
718.832	1.0	go	0.408	Go_O	1.0
721.357	1.0	go	0.433	Go_X	1.0
723.897	1.0	go	0.598	Go_O	1.0
726.438	1.0	go	0.375	Go_X	1.0
728.963	0.35	stopfail	0.273	Go_O	0.0
731.504	1.0	go	0.348	Go_O	1.0
734.045	0.3	stopfail	0.416	Go_X	0.0
736.585	1.0	go	0.543	Go_X	1.0
739.11	1.0	go	0.244	Go_O	1.0
741.651	1.0	go	0.411	Go_O	1.0
744.192	1.0	go	0.516	Go_X	1.0
746.716	1.0	go	0.374	Go_X	0.0
749.257	1.0	go	0.523	Go_O	1.0
751.798	0.25	stopfail	0.44	Go_O	0.0
754.339	1.0	go	0.397	Go_O	1.0
756.88	1.0	go	0.376	Go_X	1.0
759.421	0.2	stopsuccess	0.0	Go_X	1.0
761.962	1.0	go	0.468	Go_X	0.0
764.486	1.0	go	0.322	Go_O	0.0
767.027	0.25	stopfail	0.358	Go_O	0.0
769.568	1.0	go	0.313	Go_O	1.0
772.109	1.0	go	0.243	Go_X	1.0
774.65	1.0	go	0.799	Go_X	1.0
777.191	1.0	go	0.483	Go_O	1.0
779.732	0.2	stopsuccess	0.0	Go_X	1.0
782.272	1.0	go	0.588	Go_O	1.0
784.813	0.25	stopsuccess	0.0	Go_O	1.0
787.354	1.0	go	0.716	Go_X	1.0
789.879	1.0	go	0.473	Go_O	1.0
792.42	1.0	go	0.0	Go_X	0.0
794.961	1.0	go	0.475	Go_X	1.0
797.502	1.0	go	0.362	Go_O	1.0
800.026	0.3	stopfail	0.434	Go_X	0.0
802.567	1.0	go	0.395	Go_O	1.0
805.108	1.0	go	0.388	Go_X	1.0
807.649	0.25	stopfail	0.294	Go_O	0.0
810.19	0.2	stopsuccess	0.0	Go_X	1.0
812.73	1.0	go	0.552	Go_X	1.0
815.255	1.0	go	0.397	Go_O	1.0
817.796	1.0	go	0.326	Go_O	1.0
820.337	1.0	go	0.415	Go_X	1.0
822.878	0.25	stopsuccess	0.0	Go_O	1.0
825.418	1.0	go	0.382	Go_X	1.0
