frame	onset	duration	trial_type	event_type	response_type	response_time	stim_file	accuracy
0	82.541		win-reward	ImageDisplay1		0.0		
0	84.781	0.75	win-reward	StartDisplay				
0	85.533		win-reward	ImageDisplay2		0.0		
0	88.526	1.6	win-reward	ChoiceDisplay	1	0.588	1	1
0	89.127	1.012	win-reward	ChosenDisplay		0.0		
0	90.13	0.25	win-reward	TurnDisplay				
0	90.381	0.75	win-reward	OutcomeDisplay				
1	91.133		loss-reward	ImageDisplay1		0.0		
1	93.373	0.75	loss-reward	StartDisplay				
1	94.126		loss-reward	ImageDisplay2		0.0		
1	97.135	1.6	loss-reward	ChoiceDisplay	1	0.911	1	1
1	98.071	0.689	loss-reward	ChosenDisplay		0.0		
1	98.739	0.25	loss-reward	TurnDisplay				
1	98.99	0.75	loss-reward	OutcomeDisplay				
2	99.742		control-reward	ImageDisplay1		0.0		
2	101.982	0.75	control-reward	StartDisplay				
2	102.735		control-reward	ImageDisplay2		0.0		
2	105.744	1.6	control-reward	ChoiceDisplay	1	0.753	1	1
2	106.512	0.847	control-reward	ChosenDisplay		0.0		
2	107.348	0.25	control-reward	TurnDisplay				
2	107.599	0.75	control-reward	OutcomeDisplay				
3	108.351		win-noreward	ImageDisplay1		0.0		
3	110.341	0.75	win-noreward	StartDisplay				
3	111.093		win-noreward	ImageDisplay2		0.0		
3	114.353	1.6	win-noreward	ChoiceDisplay	1	0.588	1	1
3	114.954	1.012	win-noreward	ChosenDisplay		0.0		
3	115.957	0.25	win-noreward	TurnDisplay				
3	116.208	0.75	win-noreward	OutcomeDisplay				
4	116.96		loss-reward	ImageDisplay1		0.0		
4	119.2	0.75	loss-reward	StartDisplay				
4	119.953		loss-reward	ImageDisplay2		0.0		
4	122.961	1.6	loss-reward	ChoiceDisplay		0.0		
4	124.55	0.0	loss-reward	ChosenDisplay		0.0		
4	124.566	0.25	loss-reward	TurnDisplay				
4	124.8	0.75	loss-reward	OutcomeDisplay				
5	125.553		loss-reward	ImageDisplay1		0.0		
5	127.809	0.75	loss-reward	StartDisplay				
5	128.561		loss-reward	ImageDisplay2		0.0		
5	131.554	1.6	loss-reward	ChoiceDisplay	1	0.605	1	1
5	132.172	0.995	loss-reward	ChosenDisplay		0.0		
5	133.158	0.25	loss-reward	TurnDisplay				
5	133.409	0.75	loss-reward	OutcomeDisplay				
6	134.161		win-reward	ImageDisplay1		0.0		
6	136.401	0.75	win-reward	StartDisplay				
6	137.154		win-reward	ImageDisplay2		0.0		
6	140.163	1.6	win-reward	ChoiceDisplay	1	0.844	1	1
6	141.032	0.756	win-reward	ChosenDisplay		0.0		
6	141.767	0.25	win-reward	TurnDisplay				
6	142.018	0.75	win-reward	OutcomeDisplay				
7	142.77		control-reward	ImageDisplay1		0.0		
7	145.01	0.75	control-reward	StartDisplay				
7	145.763		control-reward	ImageDisplay2		0.0		
7	148.772	1.6	control-reward	ChoiceDisplay	1	0.614	1	1
7	149.407	0.986	control-reward	ChosenDisplay		0.0		
7	150.376	0.25	control-reward	TurnDisplay				
7	150.627	0.75	control-reward	OutcomeDisplay				
8	151.379		win-reward	ImageDisplay1		0.0		
8	153.619	0.75	win-reward	StartDisplay				
8	154.372		win-reward	ImageDisplay2		0.0		
8	157.381	1.6	win-reward	ChoiceDisplay	1	0.498	1	1
8	157.899	1.102	win-reward	ChosenDisplay		0.0		
8	158.985	0.25	win-reward	TurnDisplay				
8	159.236	0.75	win-reward	OutcomeDisplay				
9	159.988		loss-noreward	ImageDisplay1		0.0		
9	161.978	0.75	loss-noreward	StartDisplay				
9	162.73		loss-noreward	ImageDisplay2		0.0		
9	165.99	1.6	loss-noreward	ChoiceDisplay	1	0.681	1	1
9	166.692	0.919	loss-noreward	ChosenDisplay		0.0		
9	167.594	0.25	loss-noreward	TurnDisplay				
9	167.845	0.75	loss-noreward	OutcomeDisplay				
10	168.597		control-reward	ImageDisplay1		0.0		
10	170.837	0.75	control-reward	StartDisplay				
10	171.59		control-reward	ImageDisplay2		0.0		
10	174.599	1.6	control-reward	ChoiceDisplay	1	0.656	1	1
10	175.267	0.944	control-reward	ChosenDisplay		0.0		
10	176.203	0.25	control-reward	TurnDisplay				
10	176.454	0.75	control-reward	OutcomeDisplay				
11	177.206		win-reward	ImageDisplay1		0.0		
11	179.446	0.75	win-reward	StartDisplay				
11	180.199		win-reward	ImageDisplay2		0.0		
11	183.208	1.6	win-reward	ChoiceDisplay	1	0.495	1	1
11	183.726	1.105	win-reward	ChosenDisplay		0.0		
11	184.812	0.25	win-reward	TurnDisplay				
11	185.063	0.75	win-reward	OutcomeDisplay				
12	185.815		win-noreward	ImageDisplay1		0.0		
12	187.805	0.75	win-noreward	StartDisplay				
12	188.557		win-noreward	ImageDisplay2		0.0		
12	191.816	1.6	win-noreward	ChoiceDisplay	1	0.72	1	1
12	192.552	0.88	win-noreward	ChosenDisplay		0.0		
12	193.421	0.25	win-noreward	TurnDisplay				
12	193.672	0.75	win-noreward	OutcomeDisplay				
13	194.424		loss-reward	ImageDisplay1		0.0		
13	196.664	0.75	loss-reward	StartDisplay				
13	197.417		loss-reward	ImageDisplay2		0.0		
13	200.425	1.6	loss-reward	ChoiceDisplay		0.0		
13	202.014	0.0	loss-reward	ChosenDisplay		0.0		
13	202.03	0.25	loss-reward	TurnDisplay				
13	202.264	0.75	loss-reward	OutcomeDisplay				
14	203.017		win-noreward	ImageDisplay1		0.0		
14	205.022	0.75	win-noreward	StartDisplay				
14	205.775		win-noreward	ImageDisplay2		0.0		
14	209.018	1.6	win-noreward	ChoiceDisplay	1	0.285	1	1
14	209.319	1.315	win-noreward	ChosenDisplay		0.0		
14	210.622	0.25	win-noreward	TurnDisplay				
14	210.873	0.75	win-noreward	OutcomeDisplay				
15	211.625		control-noreward	ImageDisplay1		0.0		
15	213.615	0.75	control-noreward	StartDisplay				
15	214.367		control-noreward	ImageDisplay2		0.0		
15	217.627	1.6	control-noreward	ChoiceDisplay	1	0.486	1	1
15	218.128	1.114	control-noreward	ChosenDisplay		0.0		
15	219.231	0.25	control-noreward	TurnDisplay				
15	219.482	0.75	control-noreward	OutcomeDisplay				
16	220.234		win-reward	ImageDisplay1		0.0		
16	222.474	0.75	win-reward	StartDisplay				
16	223.227		win-reward	ImageDisplay2		0.0		
16	226.236	1.6	win-reward	ChoiceDisplay	1	0.876	1	1
16	227.138	0.724	win-reward	ChosenDisplay		0.0		
16	227.84	0.25	win-reward	TurnDisplay				
16	228.091	0.75	win-reward	OutcomeDisplay				
17	228.843		control-reward	ImageDisplay1		0.0		
17	231.083	0.75	control-reward	StartDisplay				
17	231.836		control-reward	ImageDisplay2		0.0		
17	234.845	1.6	control-reward	ChoiceDisplay	1	0.843	1	1
17	235.714	0.757	control-reward	ChosenDisplay		0.0		
17	236.449	0.25	control-reward	TurnDisplay				
17	236.7	0.75	control-reward	OutcomeDisplay				
18	237.452		loss-reward	ImageDisplay1		0.0		
18	239.692	0.75	loss-reward	StartDisplay				
18	240.445		loss-reward	ImageDisplay2		0.0		
18	243.454	1.6	loss-reward	ChoiceDisplay	1	0.355	1	1
18	243.821	1.245	loss-reward	ChosenDisplay		0.0		
18	245.058	0.25	loss-reward	TurnDisplay				
18	245.309	0.75	loss-reward	OutcomeDisplay				
19	246.061		win-reward	ImageDisplay1		0.0		
19	248.301	0.75	win-reward	StartDisplay				
19	249.054		win-reward	ImageDisplay2		0.0		
19	252.063	1.6	win-reward	ChoiceDisplay	1	0.716	1	1
19	252.798	0.884	win-reward	ChosenDisplay		0.0		
19	253.667	0.25	win-reward	TurnDisplay				
19	253.918	0.75	win-reward	OutcomeDisplay				
20	254.67		control-noreward	ImageDisplay1		0.0		
20	256.66	0.75	control-noreward	StartDisplay				
20	257.412		control-noreward	ImageDisplay2		0.0		
20	260.672	1.6	control-noreward	ChoiceDisplay	1	0.602	1	1
20	261.29	0.998	control-noreward	ChosenDisplay		0.0		
20	262.276	0.25	control-noreward	TurnDisplay				
20	262.527	0.75	control-noreward	OutcomeDisplay				
21	263.279		control-reward	ImageDisplay1		0.0		
21	265.519	0.75	control-reward	StartDisplay				
21	266.272		control-reward	ImageDisplay2		0.0		
21	269.28	1.6	control-reward	ChoiceDisplay	1	0.512	1	1
21	269.815	1.088	control-reward	ChosenDisplay		0.0		
21	270.885	0.25	control-reward	TurnDisplay				
21	271.136	0.75	control-reward	OutcomeDisplay				
22	271.888		win-noreward	ImageDisplay1		0.0		
22	273.878	0.75	win-noreward	StartDisplay				
22	274.63		win-noreward	ImageDisplay2		0.0		
22	277.889	1.6	win-noreward	ChoiceDisplay	1	0.686	1	1
22	278.592	0.914	win-noreward	ChosenDisplay		0.0		
22	279.494	0.25	win-noreward	TurnDisplay				
22	279.745	0.75	win-noreward	OutcomeDisplay				
23	280.497		control-noreward	ImageDisplay1		0.0		
23	282.486	0.75	control-noreward	StartDisplay				
23	283.239		control-noreward	ImageDisplay2		0.0		
23	286.498	1.6	control-noreward	ChoiceDisplay	1	0.66	1	1
23	287.184	0.94	control-noreward	ChosenDisplay		0.0		
23	288.103	0.25	control-noreward	TurnDisplay				
23	288.354	0.75	control-noreward	OutcomeDisplay				
24	289.106		control-noreward	ImageDisplay1		0.0		
24	291.095	0.75	control-noreward	StartDisplay				
24	291.848		control-noreward	ImageDisplay2		0.0		
24	295.107	1.6	control-noreward	ChoiceDisplay		0.0		
24	296.695	0.0	control-noreward	ChosenDisplay		0.0		
24	296.712	0.25	control-noreward	TurnDisplay				
24	296.946	0.75	control-noreward	OutcomeDisplay				
25	297.698		loss-reward	ImageDisplay1		0.0		
25	299.955	0.75	loss-reward	StartDisplay				
25	300.707		loss-reward	ImageDisplay2		0.0		
25	303.7	1.6	loss-reward	ChoiceDisplay	1	0.669	1	1
25	304.385	0.931	loss-reward	ChosenDisplay		0.0		
25	305.304	0.25	loss-reward	TurnDisplay				
25	305.555	0.75	loss-reward	OutcomeDisplay				
26	306.307		win-reward	ImageDisplay1		0.0		
26	308.547	0.75	win-reward	StartDisplay				
26	309.3		win-reward	ImageDisplay2		0.0		
26	312.309	1.6	win-reward	ChoiceDisplay	1	1.092	1	1
26	313.412	0.508	win-reward	ChosenDisplay		0.0		
26	313.913	0.25	win-reward	TurnDisplay				
26	314.164	0.75	win-reward	OutcomeDisplay				
27	314.916		win-noreward	ImageDisplay1		0.0		
27	316.906	0.75	win-noreward	StartDisplay				
27	317.658		win-noreward	ImageDisplay2		0.0		
27	320.918	1.6	win-noreward	ChoiceDisplay	1	0.388	1	1
27	321.319	1.212	win-noreward	ChosenDisplay		0.0		
27	322.522	0.25	win-noreward	TurnDisplay				
27	322.773	0.75	win-noreward	OutcomeDisplay				
28	323.525		loss-reward	ImageDisplay1		0.0		
28	325.765	0.75	loss-reward	StartDisplay				
28	326.518		loss-reward	ImageDisplay2		0.0		
28	329.527	1.6	loss-reward	ChoiceDisplay	1	0.746	1	1
28	330.295	0.854	loss-reward	ChosenDisplay		0.0		
28	331.131	0.25	loss-reward	TurnDisplay				
28	331.382	0.75	loss-reward	OutcomeDisplay				
29	332.134		win-noreward	ImageDisplay1		0.0		
29	334.124	0.75	win-noreward	StartDisplay				
29	334.876		win-noreward	ImageDisplay2		0.0		
29	338.135	1.6	win-noreward	ChoiceDisplay	1	0.26	1	1
29	338.42	1.34	win-noreward	ChosenDisplay		0.0		
29	339.74	0.25	win-noreward	TurnDisplay				
29	339.991	0.75	win-noreward	OutcomeDisplay				
30	340.743		control-reward	ImageDisplay1		0.0		
30	342.983	0.75	control-reward	StartDisplay				
30	343.735		control-reward	ImageDisplay2		0.0		
30	346.744	1.6	control-reward	ChoiceDisplay	1	0.78	1	1
30	347.547	0.82	control-reward	ChosenDisplay		0.0		
30	348.349	0.25	control-reward	TurnDisplay				
30	348.6	0.75	control-reward	OutcomeDisplay				
31	349.352		loss-noreward	ImageDisplay1		0.0		
31	351.341	0.75	loss-noreward	StartDisplay				
31	352.094		loss-noreward	ImageDisplay2		0.0		
31	355.353	1.6	loss-noreward	ChoiceDisplay	1	0.684	1	1
31	356.056	0.916	loss-noreward	ChosenDisplay		0.0		
31	356.958	0.25	loss-noreward	TurnDisplay				
31	357.209	0.75	loss-noreward	OutcomeDisplay				
32	357.961		control-reward	ImageDisplay1		0.0		
32	360.201	0.75	control-reward	StartDisplay				
32	360.953		control-reward	ImageDisplay2		0.0		
32	363.962	1.6	control-reward	ChoiceDisplay	1	0.54	1	1
32	364.514	1.06	control-reward	ChosenDisplay		0.0		
32	365.567	0.25	control-reward	TurnDisplay				
32	365.818	0.75	control-reward	OutcomeDisplay				
33	366.57		control-reward	ImageDisplay1		0.0		
33	368.81	0.75	control-reward	StartDisplay				
33	369.562		control-reward	ImageDisplay2		0.0		
33	372.571	1.6	control-reward	ChoiceDisplay	1	0.857	1	1
33	373.441	0.743	control-reward	ChosenDisplay		0.0		
33	374.176	0.25	control-reward	TurnDisplay				
33	374.427	0.75	control-reward	OutcomeDisplay				
34	375.179		control-noreward	ImageDisplay1		0.0		
34	377.168	0.75	control-noreward	StartDisplay				
34	377.921		control-noreward	ImageDisplay2		0.0		
34	381.18	1.6	control-noreward	ChoiceDisplay	1	0.858	1	1
34	382.05	0.742	control-noreward	ChosenDisplay		0.0		
34	382.785	0.25	control-noreward	TurnDisplay				
34	383.036	0.75	control-noreward	OutcomeDisplay				
35	383.788		loss-reward	ImageDisplay1		0.0		
35	386.028	0.75	loss-reward	StartDisplay				
35	386.78		loss-reward	ImageDisplay2		0.0		
35	389.789	1.6	loss-reward	ChoiceDisplay	1	0.722	1	1
35	390.525	0.878	loss-reward	ChosenDisplay		0.0		
35	391.394	0.25	loss-reward	TurnDisplay				
35	391.645	0.75	loss-reward	OutcomeDisplay				
36	392.397		loss-noreward	ImageDisplay1		0.0		
36	394.386	0.75	loss-noreward	StartDisplay				
36	395.139		loss-noreward	ImageDisplay2		0.0		
36	398.398	1.6	loss-noreward	ChoiceDisplay	1	0.618	1	1
36	399.033	0.982	loss-noreward	ChosenDisplay		0.0		
36	400.003	0.25	loss-noreward	TurnDisplay				
36	400.254	0.75	loss-noreward	OutcomeDisplay				
37	401.006		loss-noreward	ImageDisplay1		0.0		
37	402.995	0.75	loss-noreward	StartDisplay				
37	403.748		loss-noreward	ImageDisplay2		0.0		
37	407.007	1.6	loss-noreward	ChoiceDisplay	1	0.771	1	1
37	407.793	0.829	loss-noreward	ChosenDisplay		0.0		
37	408.612	0.25	loss-noreward	TurnDisplay				
37	408.863	0.75	loss-noreward	OutcomeDisplay				
38	409.615		loss-reward	ImageDisplay1		0.0		
38	411.855	0.75	loss-reward	StartDisplay				
38	412.607		loss-reward	ImageDisplay2		0.0		
38	415.616	1.6	loss-reward	ChoiceDisplay	1	0.779	1	1
38	416.419	0.821	loss-reward	ChosenDisplay		0.0		
38	417.221	0.25	loss-reward	TurnDisplay				
38	417.472	0.75	loss-reward	OutcomeDisplay				
39	418.224		win-noreward	ImageDisplay1		0.0		
39	420.213	0.75	win-noreward	StartDisplay				
39	420.965		win-noreward	ImageDisplay2		0.0		
39	424.225	1.6	win-noreward	ChoiceDisplay	1	0.833	1	1
39	425.078	0.767	win-noreward	ChosenDisplay		0.0		
39	425.83	0.25	win-noreward	TurnDisplay				
39	426.081	0.75	win-noreward	OutcomeDisplay				
40	426.833		control-noreward	ImageDisplay1		0.0		
40	428.822	0.75	control-noreward	StartDisplay				
40	429.574		control-noreward	ImageDisplay2		0.0		
40	432.834	1.6	control-noreward	ChoiceDisplay	1	0.729	1	1
40	433.586	0.871	control-noreward	ChosenDisplay		0.0		
40	434.439	0.25	control-noreward	TurnDisplay				
40	434.69	0.75	control-noreward	OutcomeDisplay				
41	435.442		win-noreward	ImageDisplay1		0.0		
41	437.431	0.75	win-noreward	StartDisplay				
41	438.183		win-noreward	ImageDisplay2		0.0		
41	441.443	1.6	win-noreward	ChoiceDisplay	1	0.701	1	1
41	442.162	0.899	win-noreward	ChosenDisplay		0.0		
41	443.048	0.25	win-noreward	TurnDisplay				
41	443.299	0.75	win-noreward	OutcomeDisplay				
42	444.051		loss-noreward	ImageDisplay1		0.0		
42	446.04	0.75	loss-noreward	StartDisplay				
42	446.792		loss-noreward	ImageDisplay2		0.0		
42	450.052	1.6	loss-noreward	ChoiceDisplay	1	0.968	1	1
42	451.038	0.632	loss-noreward	ChosenDisplay		0.0		
42	451.657	0.25	loss-noreward	TurnDisplay				
42	451.908	0.75	loss-noreward	OutcomeDisplay				
43	452.66		loss-reward	ImageDisplay1		0.0		
43	454.9	0.75	loss-reward	StartDisplay				
43	455.652		loss-reward	ImageDisplay2		0.0		
43	458.661	1.6	loss-reward	ChoiceDisplay	1	0.817	1	1
43	459.497	0.783	loss-reward	ChosenDisplay		0.0		
43	460.266	0.25	loss-reward	TurnDisplay				
43	460.517	0.75	loss-reward	OutcomeDisplay				
44	461.269		loss-noreward	ImageDisplay1		0.0		
44	463.258	0.75	loss-noreward	StartDisplay				
44	464.01		loss-noreward	ImageDisplay2		0.0		
44	467.27	1.6	loss-noreward	ChoiceDisplay	1	0.856	1	1
44	468.139	0.744	loss-noreward	ChosenDisplay		0.0		
44	468.875	0.25	loss-noreward	TurnDisplay				
44	469.126	0.75	loss-noreward	OutcomeDisplay				
45	469.878		control-reward	ImageDisplay1		0.0		
45	472.118	0.75	control-reward	StartDisplay				
45	472.87		control-reward	ImageDisplay2		0.0		
45	475.879	1.6	control-reward	ChoiceDisplay	1	0.542	1	1
45	476.447	1.058	control-reward	ChosenDisplay		0.0		
45	477.484	0.25	control-reward	TurnDisplay				
45	477.734	0.75	control-reward	OutcomeDisplay				
46	478.487		loss-noreward	ImageDisplay1		0.0		
46	480.476	0.75	loss-noreward	StartDisplay				
46	481.228		loss-noreward	ImageDisplay2		0.0		
46	484.488	1.6	loss-noreward	ChoiceDisplay	1	0.789	1	1
46	485.29	0.811	loss-noreward	ChosenDisplay		0.0		
46	486.093	0.25	loss-noreward	TurnDisplay				
46	486.343	0.75	loss-noreward	OutcomeDisplay				
47	487.096		win-reward	ImageDisplay1		0.0		
47	489.336	0.75	win-reward	StartDisplay				
47	490.088		win-reward	ImageDisplay2		0.0		
47	493.097	1.6	win-reward	ChoiceDisplay	1	0.757	1	1
47	493.866	0.843	win-reward	ChosenDisplay		0.0		
47	494.702	0.25	win-reward	TurnDisplay				
47	494.952	0.75	win-reward	OutcomeDisplay				
48	495.705		loss-reward	ImageDisplay1		0.0		
48	497.945	0.75	loss-reward	StartDisplay				
48	498.697		loss-reward	ImageDisplay2		0.0		
48	501.706	1.6	loss-reward	ChoiceDisplay	1	0.806	1	1
48	502.525	0.794	loss-reward	ChosenDisplay		0.0		
48	503.311	0.25	loss-reward	TurnDisplay				
48	503.561	0.75	loss-reward	OutcomeDisplay				
49	504.314		loss-noreward	ImageDisplay1		0.0		
49	506.303	0.75	loss-noreward	StartDisplay				
49	507.055		loss-noreward	ImageDisplay2		0.0		
49	510.315	1.6	loss-noreward	ChoiceDisplay	1	0.56	1	1
49	510.9	1.04	loss-noreward	ChosenDisplay		0.0		
49	511.92	0.25	loss-noreward	TurnDisplay				
49	512.17	0.75	loss-noreward	OutcomeDisplay				
50	512.923		win-reward	ImageDisplay1		0.0		
50	515.163	0.75	win-reward	StartDisplay				
50	515.915		win-reward	ImageDisplay2		0.0		
50	518.924	1.6	win-reward	ChoiceDisplay	1	0.836	1	1
50	519.776	0.764	win-reward	ChosenDisplay		0.0		
50	520.529	0.25	win-reward	TurnDisplay				
50	520.779	0.75	win-reward	OutcomeDisplay				
51	521.532		control-reward	ImageDisplay1		0.0		
51	523.772	0.75	control-reward	StartDisplay				
51	524.524		control-reward	ImageDisplay2		0.0		
51	527.533	1.6	control-reward	ChoiceDisplay	1	0.693	1	1
51	528.252	0.907	control-reward	ChosenDisplay		0.0		
51	529.138	0.25	control-reward	TurnDisplay				
51	529.388	0.75	control-reward	OutcomeDisplay				
52	530.141		win-reward	ImageDisplay1		0.0		
52	532.381	0.75	win-reward	StartDisplay				
52	533.133		win-reward	ImageDisplay2		0.0		
52	536.142	1.6	win-reward	ChoiceDisplay	1	1.206	1	1
52	537.362	0.394	win-reward	ChosenDisplay		0.0		
52	537.747	0.25	win-reward	TurnDisplay				
52	537.997	0.75	win-reward	OutcomeDisplay				
53	538.75		loss-noreward	ImageDisplay1		0.0		
53	540.739	0.75	loss-noreward	StartDisplay				
53	541.491		loss-noreward	ImageDisplay2		0.0		
53	544.751	1.6	loss-noreward	ChoiceDisplay	1	0.749	1	1
53	545.52	0.851	loss-noreward	ChosenDisplay		0.0		
53	546.355	0.25	loss-noreward	TurnDisplay				
53	546.606	0.75	loss-noreward	OutcomeDisplay				
54	547.358		control-noreward	ImageDisplay1		0.0		
54	549.348	0.75	control-noreward	StartDisplay				
54	550.1		control-noreward	ImageDisplay2		0.0		
54	553.36	1.6	control-noreward	ChoiceDisplay	1	0.845	1	1
54	554.229	0.755	control-noreward	ChosenDisplay		0.0		
54	554.964	0.25	control-noreward	TurnDisplay				
54	555.215	0.75	control-noreward	OutcomeDisplay				
55	555.967		control-noreward	ImageDisplay1		0.0		
55	557.957	0.75	control-noreward	StartDisplay				
55	558.709		control-noreward	ImageDisplay2		0.0		
55	561.969	1.6	control-noreward	ChoiceDisplay	1	0.59	1	1
55	562.57	1.01	control-noreward	ChosenDisplay		0.0		
55	563.573	0.25	control-noreward	TurnDisplay				
55	563.824	0.75	control-noreward	OutcomeDisplay				
56	564.576		control-noreward	ImageDisplay1		0.0		
56	566.566	0.75	control-noreward	StartDisplay				
56	567.318		control-noreward	ImageDisplay2		0.0		
56	570.578	1.6	control-noreward	ChoiceDisplay	1	0.273	1	1
56	570.862	1.327	control-noreward	ChosenDisplay		0.0		
56	572.182	0.25	control-noreward	TurnDisplay				
56	572.433	0.75	control-noreward	OutcomeDisplay				
57	573.185		win-reward	ImageDisplay1		0.0		
57	575.425	0.75	win-reward	StartDisplay				
57	576.178		win-reward	ImageDisplay2		0.0		
57	579.187	1.6	win-reward	ChoiceDisplay	1	1.268	1	1
57	580.474	0.332	win-reward	ChosenDisplay		0.0		
57	580.791	0.25	win-reward	TurnDisplay				
57	581.042	0.75	win-reward	OutcomeDisplay				
58	581.794		loss-reward	ImageDisplay1		0.0		
58	584.034	0.75	loss-reward	StartDisplay				
58	584.787		loss-reward	ImageDisplay2		0.0		
58	587.796	1.6	loss-reward	ChoiceDisplay		0.0		
58	589.384	0.0	loss-reward	ChosenDisplay		0.0		
58	589.4	0.25	loss-reward	TurnDisplay				
58	589.634	0.75	loss-reward	OutcomeDisplay				
59	590.387		loss-reward	ImageDisplay1		0.0		
59	592.643	0.75	loss-reward	StartDisplay				
59	593.396		loss-reward	ImageDisplay2		0.0		
59	596.388	1.6	loss-reward	ChoiceDisplay	1	0.786	1	1
59	597.19	0.814	loss-reward	ChosenDisplay		0.0		
59	597.993	0.25	loss-reward	TurnDisplay				
59	598.243	0.75	loss-reward	OutcomeDisplay				
60	598.996		control-noreward	ImageDisplay1		0.0		
60	600.985	0.75	control-noreward	StartDisplay				
60	601.737		control-noreward	ImageDisplay2		0.0		
60	604.997	1.6	control-noreward	ChoiceDisplay	1	0.598	1	1
60	605.615	1.002	control-noreward	ChosenDisplay		0.0		
60	606.602	0.25	control-noreward	TurnDisplay				
60	606.852	0.75	control-noreward	OutcomeDisplay				
61	607.605		control-reward	ImageDisplay1		0.0		
61	609.845	0.75	control-reward	StartDisplay				
61	610.597		control-reward	ImageDisplay2		0.0		
61	613.606	1.6	control-reward	ChoiceDisplay	1	0.64	1	1
61	614.258	0.96	control-reward	ChosenDisplay		0.0		
61	615.21	0.25	control-reward	TurnDisplay				
61	615.461	0.75	control-reward	OutcomeDisplay				
62	616.213		control-noreward	ImageDisplay1		0.0		
62	618.203	0.75	control-noreward	StartDisplay				
62	618.955		control-noreward	ImageDisplay2		0.0		
62	622.215	1.6	control-noreward	ChoiceDisplay	1	0.715	1	1
62	622.95	0.885	control-noreward	ChosenDisplay		0.0		
62	623.819	0.25	control-noreward	TurnDisplay				
62	624.07	0.75	control-noreward	OutcomeDisplay				
63	624.822		win-noreward	ImageDisplay1		0.0		
63	626.812	0.75	win-noreward	StartDisplay				
63	627.564		win-noreward	ImageDisplay2		0.0		
63	630.824	1.6	win-noreward	ChoiceDisplay	1	1.051	1	1
63	631.894	0.549	win-noreward	ChosenDisplay		0.0		
63	632.428	0.25	win-noreward	TurnDisplay				
63	632.679	0.75	win-noreward	OutcomeDisplay				
64	633.431		control-noreward	ImageDisplay1		0.0		
64	635.421	0.75	control-noreward	StartDisplay				
64	636.173		control-noreward	ImageDisplay2		0.0		
64	639.433	1.6	control-noreward	ChoiceDisplay	1	0.682	1	1
64	640.135	0.918	control-noreward	ChosenDisplay		0.0		
64	641.037	0.25	control-noreward	TurnDisplay				
64	641.288	0.75	control-noreward	OutcomeDisplay				
65	642.04		loss-noreward	ImageDisplay1		0.0		
65	644.03	0.75	loss-noreward	StartDisplay				
65	644.782		loss-noreward	ImageDisplay2		0.0		
65	648.042	1.6	loss-noreward	ChoiceDisplay	1	0.68	1	1
65	648.744	0.92	loss-noreward	ChosenDisplay		0.0		
65	649.646	0.25	loss-noreward	TurnDisplay				
65	649.897	0.75	loss-noreward	OutcomeDisplay				
66	650.649		win-reward	ImageDisplay1		0.0		
66	652.889	0.75	win-reward	StartDisplay				
66	653.642		win-reward	ImageDisplay2		0.0		
66	656.651	1.6	win-reward	ChoiceDisplay	1	0.466	1	1
66	657.135	1.134	win-reward	ChosenDisplay		0.0		
66	658.255	0.25	win-reward	TurnDisplay				
66	658.506	0.75	win-reward	OutcomeDisplay				
67	659.258		loss-noreward	ImageDisplay1		0.0		
67	661.248	0.75	loss-noreward	StartDisplay				
67	662.0		loss-noreward	ImageDisplay2		0.0		
67	665.26	1.6	loss-noreward	ChoiceDisplay		0.0		
67	666.848	0.0	loss-noreward	ChosenDisplay		0.0		
67	666.864	0.25	loss-noreward	TurnDisplay				
67	667.098	0.75	loss-noreward	OutcomeDisplay				
68	667.851		control-reward	ImageDisplay1		0.0		
68	670.107	0.75	control-reward	StartDisplay				
68	670.86		control-reward	ImageDisplay2		0.0		
68	673.852	1.6	control-reward	ChoiceDisplay	1	0.506	1	1
68	674.37	1.094	control-reward	ChosenDisplay		0.0		
68	675.457	0.25	control-reward	TurnDisplay				
68	675.707	0.75	control-reward	OutcomeDisplay				
69	676.46		loss-reward	ImageDisplay1		0.0		
69	678.7	0.75	loss-reward	StartDisplay				
69	679.452		loss-reward	ImageDisplay2		0.0		
69	682.461	1.6	loss-reward	ChoiceDisplay	1	0.748	1	1
69	683.23	0.852	loss-reward	ChosenDisplay		0.0		
69	684.066	0.25	loss-reward	TurnDisplay				
69	684.316	0.75	loss-reward	OutcomeDisplay				
70	685.069		win-reward	ImageDisplay1		0.0		
70	687.309	0.75	win-reward	StartDisplay				
70	688.061		win-reward	ImageDisplay2		0.0		
70	691.07	1.6	win-reward	ChoiceDisplay	1	0.664	1	1
70	691.755	0.936	win-reward	ChosenDisplay		0.0		
70	692.674	0.25	win-reward	TurnDisplay				
70	692.925	0.75	win-reward	OutcomeDisplay				
71	693.677		control-noreward	ImageDisplay1		0.0		
71	695.667	0.75	control-noreward	StartDisplay				
71	696.419		control-noreward	ImageDisplay2		0.0		
71	699.679	1.6	control-noreward	ChoiceDisplay	1	0.52	1	1
71	700.214	1.08	control-noreward	ChosenDisplay		0.0		
71	701.283	0.25	control-noreward	TurnDisplay				
71	701.534	0.75	control-noreward	OutcomeDisplay				
72	702.286		win-reward	ImageDisplay1		0.0		
72	704.526	0.75	win-reward	StartDisplay				
72	705.279		win-reward	ImageDisplay2		0.0		
72	708.288	1.6	win-reward	ChoiceDisplay	1	0.74	1	1
72	709.04	0.86	win-reward	ChosenDisplay		0.0		
72	709.892	0.25	win-reward	TurnDisplay				
72	710.143	0.75	win-reward	OutcomeDisplay				
73	710.895		control-reward	ImageDisplay1		0.0		
73	713.135	0.75	control-reward	StartDisplay				
73	713.888		control-reward	ImageDisplay2		0.0		
73	716.897	1.6	control-reward	ChoiceDisplay	1	0.633	1	1
73	717.549	0.967	control-reward	ChosenDisplay		0.0		
73	718.501	0.25	control-reward	TurnDisplay				
73	718.752	0.75	control-reward	OutcomeDisplay				
74	719.504		control-reward	ImageDisplay1		0.0		
74	721.744	0.75	control-reward	StartDisplay				
74	722.497		control-reward	ImageDisplay2		0.0		
74	725.506	1.6	control-reward	ChoiceDisplay	1	0.581	1	1
74	726.107	1.019	control-reward	ChosenDisplay		0.0		
74	727.11	0.25	control-reward	TurnDisplay				
74	727.361	0.75	control-reward	OutcomeDisplay				
75	728.113		loss-noreward	ImageDisplay1		0.0		
75	730.103	0.75	loss-noreward	StartDisplay				
75	730.855		loss-noreward	ImageDisplay2		0.0		
75	734.115	1.6	loss-noreward	ChoiceDisplay	1	0.486	1	1
75	734.616	1.114	loss-noreward	ChosenDisplay		0.0		
75	735.719	0.25	loss-noreward	TurnDisplay				
75	735.97	0.75	loss-noreward	OutcomeDisplay				
76	736.722		win-noreward	ImageDisplay1		0.0		
76	738.712	0.75	win-noreward	StartDisplay				
76	739.464		win-noreward	ImageDisplay2		0.0		
76	742.724	1.6	win-noreward	ChoiceDisplay	1	1.253	1	1
76	743.994	0.347	win-noreward	ChosenDisplay		0.0		
76	744.328	0.25	win-noreward	TurnDisplay				
76	744.579	0.75	win-noreward	OutcomeDisplay				
77	745.331		win-reward	ImageDisplay1		0.0		
77	747.571	0.75	win-reward	StartDisplay				
77	748.324		win-reward	ImageDisplay2		0.0		
77	751.332	1.6	win-reward	ChoiceDisplay	1	0.642	1	1
77	752.001	0.958	win-reward	ChosenDisplay		0.0		
77	752.937	0.25	win-reward	TurnDisplay				
77	753.188	0.75	win-reward	OutcomeDisplay				
78	753.94		loss-reward	ImageDisplay1		0.0		
78	756.18	0.75	loss-reward	StartDisplay				
78	756.932		loss-reward	ImageDisplay2		0.0		
78	759.941	1.6	loss-reward	ChoiceDisplay	1	0.567	1	1
78	760.527	1.033	loss-reward	ChosenDisplay		0.0		
78	761.546	0.25	loss-reward	TurnDisplay				
78	761.797	0.75	loss-reward	OutcomeDisplay				
79	762.549		win-reward	ImageDisplay1		0.0		
79	764.789	0.75	win-reward	StartDisplay				
79	765.541		win-reward	ImageDisplay2		0.0		
79	768.55	1.6	win-reward	ChoiceDisplay	1	0.602	1	1
79	769.169	0.998	win-reward	ChosenDisplay		0.0		
79	770.155	0.25	win-reward	TurnDisplay				
79	770.406	0.75	win-reward	OutcomeDisplay				
80	771.158		win-reward	ImageDisplay1		0.0		
80	773.398	0.75	win-reward	StartDisplay				
80	774.15		win-reward	ImageDisplay2		0.0		
80	777.159	1.6	win-reward	ChoiceDisplay	1	0.599	1	1
80	777.778	1.001	win-reward	ChosenDisplay		0.0		
80	778.764	0.25	win-reward	TurnDisplay				
80	779.015	0.75	win-reward	OutcomeDisplay				
81	779.767		control-reward	ImageDisplay1		0.0		
81	782.007	0.75	control-reward	StartDisplay				
81	782.759		control-reward	ImageDisplay2		0.0		
81	785.768	1.6	control-reward	ChoiceDisplay	1	0.65	1	1
81	786.437	0.95	control-reward	ChosenDisplay		0.0		
81	787.373	0.25	control-reward	TurnDisplay				
81	787.624	0.75	control-reward	OutcomeDisplay				
82	788.376		win-noreward	ImageDisplay1		0.0		
82	790.365	0.75	win-noreward	StartDisplay				
82	791.118		win-noreward	ImageDisplay2		0.0		
82	794.377	1.6	win-noreward	ChoiceDisplay	1	1.055	1	1
82	795.447	0.545	win-noreward	ChosenDisplay		0.0		
82	795.982	0.25	win-noreward	TurnDisplay				
82	796.233	0.75	win-noreward	OutcomeDisplay				
83	796.985		control-reward	ImageDisplay1		0.0		
83	799.225	0.75	control-reward	StartDisplay				
83	799.977		control-reward	ImageDisplay2		0.0		
83	802.986	1.6	control-reward	ChoiceDisplay	1	0.684	1	1
83	803.688	0.916	control-reward	ChosenDisplay		0.0		
83	804.591	0.25	control-reward	TurnDisplay				
83	804.842	0.75	control-reward	OutcomeDisplay				
84	805.594		win-reward	ImageDisplay1		0.0		
84	807.834	0.75	win-reward	StartDisplay				
84	808.586		win-reward	ImageDisplay2		0.0		
84	811.595	1.6	win-reward	ChoiceDisplay	1	0.401	1	1
84	812.013	1.199	win-reward	ChosenDisplay		0.0		
84	813.2	0.25	win-reward	TurnDisplay				
84	813.451	0.75	win-reward	OutcomeDisplay				
85	814.203		loss-reward	ImageDisplay1		0.0		
85	816.443	0.75	loss-reward	StartDisplay				
85	817.195		loss-reward	ImageDisplay2		0.0		
85	820.204	1.6	loss-reward	ChoiceDisplay	1	0.885	1	1
85	821.107	0.715	loss-reward	ChosenDisplay		0.0		
85	821.809	0.25	loss-reward	TurnDisplay				
85	822.06	0.75	loss-reward	OutcomeDisplay				
86	822.812		loss-noreward	ImageDisplay1		0.0		
86	824.801	0.75	loss-noreward	StartDisplay				
86	825.553		loss-noreward	ImageDisplay2		0.0		
86	828.813	1.6	loss-noreward	ChoiceDisplay	1	0.822	1	1
86	829.649	0.778	loss-noreward	ChosenDisplay		0.0		
86	830.418	0.25	loss-noreward	TurnDisplay				
86	830.669	0.75	loss-noreward	OutcomeDisplay				
87	831.421		loss-reward	ImageDisplay1		0.0		
87	833.661	0.75	loss-reward	StartDisplay				
87	834.413		loss-reward	ImageDisplay2		0.0		
87	837.422	1.6	loss-reward	ChoiceDisplay	1	0.624	1	1
87	838.057	0.976	loss-reward	ChosenDisplay		0.0		
87	839.027	0.25	loss-reward	TurnDisplay				
87	839.278	0.75	loss-reward	OutcomeDisplay				
88	840.03		control-noreward	ImageDisplay1		0.0		
88	842.019	0.75	control-noreward	StartDisplay				
88	842.771		control-noreward	ImageDisplay2		0.0		
88	846.031	1.6	control-noreward	ChoiceDisplay	1	0.775	1	1
88	846.817	0.825	control-noreward	ChosenDisplay		0.0		
88	847.636	0.25	control-noreward	TurnDisplay				
88	847.887	0.75	control-noreward	OutcomeDisplay				
89	848.639		control-noreward	ImageDisplay1		0.0		
89	850.628	0.75	control-noreward	StartDisplay				
89	851.38		control-noreward	ImageDisplay2		0.0		
89	854.64	1.6	control-noreward	ChoiceDisplay	1	0.512	1	1
89	855.175	1.088	control-noreward	ChosenDisplay		0.0		
89	856.245	0.25	control-noreward	TurnDisplay				
89	856.496	0.75	control-noreward	OutcomeDisplay				
90	857.248		loss-noreward	ImageDisplay1		0.0		
90	859.237	0.75	loss-noreward	StartDisplay				
90	859.989		loss-noreward	ImageDisplay2		0.0		
90	863.249	1.6	loss-noreward	ChoiceDisplay	1	0.832	1	1
90	864.102	0.768	loss-noreward	ChosenDisplay		0.0		
90	864.854	0.25	loss-noreward	TurnDisplay				
90	865.105	0.75	loss-noreward	OutcomeDisplay				
91	865.857		control-noreward	ImageDisplay1		0.0		
91	867.846	0.75	control-noreward	StartDisplay				
91	868.598		control-noreward	ImageDisplay2		0.0		
91	871.858	1.6	control-noreward	ChoiceDisplay	1	0.559	1	1
91	872.443	1.041	control-noreward	ChosenDisplay		0.0		
91	873.463	0.25	control-noreward	TurnDisplay				
91	873.714	0.75	control-noreward	OutcomeDisplay				
92	874.466		win-noreward	ImageDisplay1		0.0		
92	876.455	0.75	win-noreward	StartDisplay				
92	877.207		win-noreward	ImageDisplay2		0.0		
92	880.467	1.6	win-noreward	ChoiceDisplay	1	0.578	1	1
92	881.069	1.022	win-noreward	ChosenDisplay		0.0		
92	882.072	0.25	win-noreward	TurnDisplay				
92	882.323	0.75	win-noreward	OutcomeDisplay				
93	883.075		win-noreward	ImageDisplay1		0.0		
93	885.064	0.75	win-noreward	StartDisplay				
93	885.816		win-noreward	ImageDisplay2		0.0		
93	889.076	1.6	win-noreward	ChoiceDisplay	1	1.266	1	1
93	890.363	0.334	win-noreward	ChosenDisplay		0.0		
93	890.681	0.25	win-noreward	TurnDisplay				
93	890.931	0.75	win-noreward	OutcomeDisplay				
94	891.684		loss-reward	ImageDisplay1		0.0		
94	893.924	0.75	loss-reward	StartDisplay				
94	894.676		loss-reward	ImageDisplay2		0.0		
94	897.685	1.6	loss-reward	ChoiceDisplay	1	1.065	1	1
94	898.771	0.535	loss-reward	ChosenDisplay		0.0		
94	899.29	0.25	loss-reward	TurnDisplay				
94	899.54	0.75	loss-reward	OutcomeDisplay				
95	900.293		win-noreward	ImageDisplay1		0.0		
95	902.282	0.75	win-noreward	StartDisplay				
95	903.034		win-noreward	ImageDisplay2		0.0		
95	906.294	1.6	win-noreward	ChoiceDisplay	1	0.662	1	1
95	906.979	0.938	win-noreward	ChosenDisplay		0.0		
95	907.899	0.25	win-noreward	TurnDisplay				
95	908.149	0.75	win-noreward	OutcomeDisplay				
