frame	onset	duration	trial_type	event_type	response_type	response_time	stim_file	accuracy
0	52.2		control-reward	ImageDisplay1		0.0		
0	54.424	0.75	control-reward	StartDisplay				
0	55.176		control-reward	ImageDisplay2		0.0		
0	58.185	1.6	control-reward	ChoiceDisplay	1	0.996	1	1
0	59.205	0.604	control-reward	ChosenDisplay		0.0		
0	59.79	0.25	control-reward	TurnDisplay				
0	60.04	0.75	control-reward	OutcomeDisplay				
1	60.793		loss-reward	ImageDisplay1		0.0		
1	62.782	0.75	loss-reward	StartDisplay				
1	63.534		loss-reward	ImageDisplay2		0.0		
1	66.794	1.6	loss-reward	ChoiceDisplay	1	0.407	1	1
1	67.228	1.193	loss-reward	ChosenDisplay		0.0		
1	68.399	0.25	loss-reward	TurnDisplay				
1	68.649	0.75	loss-reward	OutcomeDisplay				
2	69.402		win-reward	ImageDisplay1		0.0		
2	71.391	0.75	win-reward	StartDisplay				
2	72.143		win-reward	ImageDisplay2		0.0		
2	75.403	1.6	win-reward	ChoiceDisplay	1	0.731	1	1
2	76.155	0.869	win-reward	ChosenDisplay		0.0		
2	77.008	0.25	win-reward	TurnDisplay				
2	77.258	0.75	win-reward	OutcomeDisplay				
3	78.011		loss-noreward	ImageDisplay1		0.0		
3	80.251	0.75	loss-noreward	StartDisplay				
3	81.003		loss-noreward	ImageDisplay2		0.0		
3	84.012	1.6	loss-noreward	ChoiceDisplay	1	0.436	1	1
3	84.463	1.164	loss-noreward	ChosenDisplay		0.0		
3	85.617	0.25	loss-noreward	TurnDisplay				
3	85.867	0.75	loss-noreward	OutcomeDisplay				
4	86.62		loss-reward	ImageDisplay1		0.0		
4	88.86	0.75	loss-reward	StartDisplay				
4	89.612		loss-reward	ImageDisplay2		0.0		
4	92.621	1.6	loss-reward	ChoiceDisplay		0.0		
4	94.209	0.0	loss-reward	ChosenDisplay		0.0		
4	94.226	0.25	loss-reward	TurnDisplay				
4	94.46	0.75	loss-reward	OutcomeDisplay				
5	95.212		control-noreward	ImageDisplay1		0.0		
5	97.218	0.75	control-noreward	StartDisplay				
5	97.97		control-noreward	ImageDisplay2		0.0		
5	101.213	1.6	control-noreward	ChoiceDisplay	1	0.399	1	1
5	101.631	1.201	control-noreward	ChosenDisplay		0.0		
5	102.818	0.25	control-noreward	TurnDisplay				
5	103.069	0.75	control-noreward	OutcomeDisplay				
6	103.821		loss-noreward	ImageDisplay1		0.0		
6	105.81	0.75	loss-noreward	StartDisplay				
6	106.563		loss-noreward	ImageDisplay2		0.0		
6	109.822	1.6	loss-noreward	ChoiceDisplay	1	0.798	1	1
6	110.641	0.802	loss-noreward	ChosenDisplay		0.0		
6	111.427	0.25	loss-noreward	TurnDisplay				
6	111.678	0.75	loss-noreward	OutcomeDisplay				
7	112.43		control-noreward	ImageDisplay1		0.0		
7	114.67	0.75	control-noreward	StartDisplay				
7	115.422		control-noreward	ImageDisplay2		0.0		
7	118.431	1.6	control-noreward	ChoiceDisplay	1	0.501	1	1
7	118.95	1.099	control-noreward	ChosenDisplay		0.0		
7	120.036	0.25	control-noreward	TurnDisplay				
7	120.287	0.75	control-noreward	OutcomeDisplay				
8	121.039		win-reward	ImageDisplay1		0.0		
8	123.279	0.75	win-reward	StartDisplay				
8	124.031		win-reward	ImageDisplay2		0.0		
8	127.04	1.6	win-reward	ChoiceDisplay	1	0.713	1	1
8	127.776	0.887	win-reward	ChosenDisplay		0.0		
8	128.645	0.25	win-reward	TurnDisplay				
8	128.896	0.75	win-reward	OutcomeDisplay				
9	129.648		win-reward	ImageDisplay1		0.0		
9	131.888	0.75	win-reward	StartDisplay				
9	132.64		win-reward	ImageDisplay2		0.0		
9	135.649	1.6	win-reward	ChoiceDisplay	1	0.826	1	1
9	136.502	0.774	win-reward	ChosenDisplay		0.0		
9	137.254	0.25	win-reward	TurnDisplay				
9	137.505	0.75	win-reward	OutcomeDisplay				
10	138.257		control-noreward	ImageDisplay1		0.0		
10	140.246	0.75	control-noreward	StartDisplay				
10	140.999		control-noreward	ImageDisplay2		0.0		
10	144.258	1.6	control-noreward	ChoiceDisplay	1	0.931	1	1
10	145.211	0.669	control-noreward	ChosenDisplay		0.0		
10	145.863	0.25	control-noreward	TurnDisplay				
10	146.114	0.75	control-noreward	OutcomeDisplay				
11	146.866		win-reward	ImageDisplay1		0.0		
11	149.106	0.75	win-reward	StartDisplay				
11	149.858		win-reward	ImageDisplay2		0.0		
11	152.867	1.6	win-reward	ChoiceDisplay	1	0.579	1	1
11	153.469	1.021	win-reward	ChosenDisplay		0.0		
11	154.472	0.25	win-reward	TurnDisplay				
11	154.723	0.75	win-reward	OutcomeDisplay				
12	155.475		loss-reward	ImageDisplay1		0.0		
12	157.465	0.75	loss-reward	StartDisplay				
12	158.217		loss-reward	ImageDisplay2		0.0		
12	161.477	1.6	loss-reward	ChoiceDisplay	1	0.738	1	1
12	162.229	0.862	loss-reward	ChosenDisplay		0.0		
12	163.081	0.25	loss-reward	TurnDisplay				
12	163.332	0.75	loss-reward	OutcomeDisplay				
13	164.085		win-reward	ImageDisplay1		0.0		
13	166.074	0.75	win-reward	StartDisplay				
13	166.826		win-reward	ImageDisplay2		0.0		
13	170.086	1.6	win-reward	ChoiceDisplay	1	0.837	1	1
13	170.938	0.763	win-reward	ChosenDisplay		0.0		
13	171.69	0.25	win-reward	TurnDisplay				
13	171.941	0.75	win-reward	OutcomeDisplay				
14	172.693		win-reward	ImageDisplay1		0.0		
14	174.933	0.75	win-reward	StartDisplay				
14	175.686		win-reward	ImageDisplay2		0.0		
14	178.695	1.6	win-reward	ChoiceDisplay	1	0.853	1	1
14	179.564	0.747	win-reward	ChosenDisplay		0.0		
14	180.299	0.25	win-reward	TurnDisplay				
14	180.55	0.75	win-reward	OutcomeDisplay				
15	181.302		control-noreward	ImageDisplay1		0.0		
15	183.292	0.75	control-noreward	StartDisplay				
15	184.044		control-noreward	ImageDisplay2		0.0		
15	187.304	1.6	control-noreward	ChoiceDisplay	1	0.852	1	1
15	188.173	0.748	control-noreward	ChosenDisplay		0.0		
15	188.908	0.25	control-noreward	TurnDisplay				
15	189.159	0.75	control-noreward	OutcomeDisplay				
16	189.911		control-noreward	ImageDisplay1		0.0		
16	191.901	0.75	control-noreward	StartDisplay				
16	192.653		control-noreward	ImageDisplay2		0.0		
16	195.913	1.6	control-noreward	ChoiceDisplay	1	0.509	1	1
16	196.448	1.091	control-noreward	ChosenDisplay		0.0		
16	197.517	0.25	control-noreward	TurnDisplay				
16	197.768	0.75	control-noreward	OutcomeDisplay				
17	198.52		win-reward	ImageDisplay1		0.0		
17	200.76	0.75	win-reward	StartDisplay				
17	201.513		win-reward	ImageDisplay2		0.0		
17	204.522	1.6	win-reward	ChoiceDisplay	1	0.979	1	1
17	205.525	0.621	win-reward	ChosenDisplay		0.0		
17	206.126	0.25	win-reward	TurnDisplay				
17	206.377	0.75	win-reward	OutcomeDisplay				
18	207.129		loss-reward	ImageDisplay1		0.0		
18	209.119	0.75	loss-reward	StartDisplay				
18	209.871		loss-reward	ImageDisplay2		0.0		
18	213.131	1.6	loss-reward	ChoiceDisplay	1	0.827	1	1
18	213.983	0.773	loss-reward	ChosenDisplay		0.0		
18	214.736	0.25	loss-reward	TurnDisplay				
18	214.986	0.75	loss-reward	OutcomeDisplay				
19	215.739		win-noreward	ImageDisplay1		0.0		
19	217.979	0.75	win-noreward	StartDisplay				
19	218.731		win-noreward	ImageDisplay2		0.0		
19	221.74	1.6	win-noreward	ChoiceDisplay	1	0.741	1	1
19	222.509	0.859	win-noreward	ChosenDisplay		0.0		
19	223.345	0.25	win-noreward	TurnDisplay				
19	223.595	0.75	win-noreward	OutcomeDisplay				
20	224.348		loss-noreward	ImageDisplay1		0.0		
20	226.337	0.75	loss-noreward	StartDisplay				
20	227.089		loss-noreward	ImageDisplay2		0.0		
20	230.349	1.6	loss-noreward	ChoiceDisplay		0.0		
20	231.937	0.0	loss-noreward	ChosenDisplay		0.0		
20	231.954	0.25	loss-noreward	TurnDisplay				
20	232.188	0.75	loss-noreward	OutcomeDisplay				
21	232.94		loss-reward	ImageDisplay1		0.0		
21	234.946	0.75	loss-reward	StartDisplay				
21	235.698		loss-reward	ImageDisplay2		0.0		
21	238.941	1.6	loss-reward	ChoiceDisplay	1	1.009	1	1
21	239.978	0.591	loss-reward	ChosenDisplay		0.0		
21	240.546	0.25	loss-reward	TurnDisplay				
21	240.797	0.75	loss-reward	OutcomeDisplay				
22	241.549		control-reward	ImageDisplay1		0.0		
22	243.538	0.75	control-reward	StartDisplay				
22	244.29		control-reward	ImageDisplay2		0.0		
22	247.55	1.6	control-reward	ChoiceDisplay	1	0.77	1	1
22	248.336	0.83	control-reward	ChosenDisplay		0.0		
22	249.155	0.25	control-reward	TurnDisplay				
22	249.406	0.75	control-reward	OutcomeDisplay				
23	250.158		loss-reward	ImageDisplay1		0.0		
23	252.398	0.75	loss-reward	StartDisplay				
23	253.15		loss-reward	ImageDisplay2		0.0		
23	256.159	1.6	loss-reward	ChoiceDisplay	1	0.685	1	1
23	256.861	0.915	loss-reward	ChosenDisplay		0.0		
23	257.764	0.25	loss-reward	TurnDisplay				
23	258.015	0.75	loss-reward	OutcomeDisplay				
24	258.767		win-reward	ImageDisplay1		0.0		
24	260.756	0.75	win-reward	StartDisplay				
24	261.509		win-reward	ImageDisplay2		0.0		
24	264.768	1.6	win-reward	ChoiceDisplay	1	0.935	1	1
24	265.721	0.665	win-reward	ChosenDisplay		0.0		
24	266.373	0.25	win-reward	TurnDisplay				
24	266.624	0.75	win-reward	OutcomeDisplay				
25	267.376		control-noreward	ImageDisplay1		0.0		
25	269.616	0.75	control-noreward	StartDisplay				
25	270.368		control-noreward	ImageDisplay2		0.0		
25	273.377	1.6	control-noreward	ChoiceDisplay		0.0		
25	274.965	0.0	control-noreward	ChosenDisplay		0.0		
25	274.982	0.25	control-noreward	TurnDisplay				
25	275.216	0.75	control-noreward	OutcomeDisplay				
26	275.968		win-reward	ImageDisplay1		0.0		
26	277.974	0.75	win-reward	StartDisplay				
26	278.727		win-reward	ImageDisplay2		0.0		
26	281.97	1.6	win-reward	ChoiceDisplay	1	0.533	1	1
26	282.521	1.067	win-reward	ChosenDisplay		0.0		
26	283.574	0.25	win-reward	TurnDisplay				
26	283.825	0.75	win-reward	OutcomeDisplay				
27	284.577		win-noreward	ImageDisplay1		0.0		
27	286.567	0.75	win-noreward	StartDisplay				
27	287.319		win-noreward	ImageDisplay2		0.0		
27	290.579	1.6	win-noreward	ChoiceDisplay	1	0.561	1	1
27	291.164	1.039	win-noreward	ChosenDisplay		0.0		
27	292.183	0.25	win-noreward	TurnDisplay				
27	292.434	0.75	win-noreward	OutcomeDisplay				
28	293.186		win-reward	ImageDisplay1		0.0		
28	295.176	0.75	win-reward	StartDisplay				
28	295.928		win-reward	ImageDisplay2		0.0		
28	299.188	1.6	win-reward	ChoiceDisplay		0.0		
28	300.776	0.0	win-reward	ChosenDisplay		0.0		
28	300.792	0.25	win-reward	TurnDisplay				
28	301.027	0.75	win-reward	OutcomeDisplay				
29	301.779		win-reward	ImageDisplay1		0.0		
29	303.785	0.75	win-reward	StartDisplay				
29	304.537		win-reward	ImageDisplay2		0.0		
29	307.78	1.6	win-reward	ChoiceDisplay	1	0.345	1	1
29	308.148	1.255	win-reward	ChosenDisplay		0.0		
29	309.385	0.25	win-reward	TurnDisplay				
29	309.636	0.75	win-reward	OutcomeDisplay				
30	310.388		control-noreward	ImageDisplay1		0.0		
30	312.377	0.75	control-noreward	StartDisplay				
30	313.129		control-noreward	ImageDisplay2		0.0		
30	316.389	1.6	control-noreward	ChoiceDisplay	1	0.783	1	1
30	317.191	0.817	control-noreward	ChosenDisplay		0.0		
30	317.994	0.25	control-noreward	TurnDisplay				
30	318.245	0.75	control-noreward	OutcomeDisplay				
31	318.997		loss-reward	ImageDisplay1		0.0		
31	320.986	0.75	loss-reward	StartDisplay				
31	321.738		loss-reward	ImageDisplay2		0.0		
31	324.998	1.6	loss-reward	ChoiceDisplay	1	0.883	1	1
31	325.901	0.717	loss-reward	ChosenDisplay		0.0		
31	326.603	0.25	loss-reward	TurnDisplay				
31	326.854	0.75	loss-reward	OutcomeDisplay				
32	327.606		control-noreward	ImageDisplay1		0.0		
32	329.595	0.75	control-noreward	StartDisplay				
32	330.347		control-noreward	ImageDisplay2		0.0		
32	333.607	1.6	control-noreward	ChoiceDisplay	1	0.316	1	1
32	333.941	1.284	control-noreward	ChosenDisplay		0.0		
32	335.212	0.25	control-noreward	TurnDisplay				
32	335.463	0.75	control-noreward	OutcomeDisplay				
33	336.215		control-reward	ImageDisplay1		0.0		
33	338.204	0.75	control-reward	StartDisplay				
33	338.956		control-reward	ImageDisplay2		0.0		
33	342.216	1.6	control-reward	ChoiceDisplay		0.0		
33	343.804	0.0	control-reward	ChosenDisplay		0.0		
33	343.821	0.25	control-reward	TurnDisplay				
33	344.055	0.75	control-reward	OutcomeDisplay				
34	344.807		loss-noreward	ImageDisplay1		0.0		
34	346.813	0.75	loss-noreward	StartDisplay				
34	347.565		loss-noreward	ImageDisplay2		0.0		
34	350.808	1.6	loss-noreward	ChoiceDisplay	1	0.31	1	1
34	351.143	1.29	loss-noreward	ChosenDisplay		0.0		
34	352.413	0.25	loss-noreward	TurnDisplay				
34	352.664	0.75	loss-noreward	OutcomeDisplay				
35	353.416		loss-reward	ImageDisplay1		0.0		
35	355.406	0.75	loss-reward	StartDisplay				
35	356.158		loss-reward	ImageDisplay2		0.0		
35	359.418	1.6	loss-reward	ChoiceDisplay	1	0.344	1	1
35	359.785	1.256	loss-reward	ChosenDisplay		0.0		
35	361.022	0.25	loss-reward	TurnDisplay				
35	361.273	0.75	loss-reward	OutcomeDisplay				
36	362.025		control-reward	ImageDisplay1		0.0		
36	364.015	0.75	control-reward	StartDisplay				
36	364.767		control-reward	ImageDisplay2		0.0		
36	368.027	1.6	control-reward	ChoiceDisplay	1	0.815	1	1
36	368.862	0.785	control-reward	ChosenDisplay		0.0		
36	369.631	0.25	control-reward	TurnDisplay				
36	369.882	0.75	control-reward	OutcomeDisplay				
37	370.634		control-reward	ImageDisplay1		0.0		
37	372.874	0.75	control-reward	StartDisplay				
37	373.627		control-reward	ImageDisplay2		0.0		
37	376.636	1.6	control-reward	ChoiceDisplay		0.0		
37	378.224	0.0	control-reward	ChosenDisplay		0.0		
37	378.24	0.25	control-reward	TurnDisplay				
37	378.474	0.75	control-reward	OutcomeDisplay				
38	379.227		control-reward	ImageDisplay1		0.0		
38	381.483	0.75	control-reward	StartDisplay				
38	382.236		control-reward	ImageDisplay2		0.0		
38	385.228	1.6	control-reward	ChoiceDisplay	1	0.313	1	1
38	385.562	1.287	control-reward	ChosenDisplay		0.0		
38	386.833	0.25	control-reward	TurnDisplay				
38	387.083	0.75	control-reward	OutcomeDisplay				
39	387.836		loss-reward	ImageDisplay1		0.0		
39	390.076	0.75	loss-reward	StartDisplay				
39	390.828		loss-reward	ImageDisplay2		0.0		
39	393.837	1.6	loss-reward	ChoiceDisplay		0.0		
39	395.425	0.0	loss-reward	ChosenDisplay		0.0		
39	395.442	0.25	loss-reward	TurnDisplay				
39	395.692	0.75	loss-reward	OutcomeDisplay				
40	396.428		loss-reward	ImageDisplay1		0.0		
40	398.685	0.75	loss-reward	StartDisplay				
40	399.437		loss-reward	ImageDisplay2		0.0		
40	402.429	1.6	loss-reward	ChoiceDisplay	1	0.367	1	1
40	402.814	1.233	loss-reward	ChosenDisplay		0.0		
40	404.034	0.25	loss-reward	TurnDisplay				
40	404.285	0.75	loss-reward	OutcomeDisplay				
41	405.037		control-reward	ImageDisplay1		0.0		
41	407.277	0.75	control-reward	StartDisplay				
41	408.029		control-reward	ImageDisplay2		0.0		
41	411.038	1.6	control-reward	ChoiceDisplay	1	0.344	1	1
41	411.406	1.256	control-reward	ChosenDisplay		0.0		
41	412.643	0.25	control-reward	TurnDisplay				
41	412.894	0.75	control-reward	OutcomeDisplay				
42	413.646		win-noreward	ImageDisplay1		0.0		
42	415.635	0.75	win-noreward	StartDisplay				
42	416.388		win-noreward	ImageDisplay2		0.0		
42	419.647	1.6	win-noreward	ChoiceDisplay		0.0		
42	421.235	0.0	win-noreward	ChosenDisplay		0.0		
42	421.252	0.25	win-noreward	TurnDisplay				
42	421.486	0.75	win-noreward	OutcomeDisplay				
43	422.238		loss-noreward	ImageDisplay1		0.0		
43	424.244	0.75	loss-noreward	StartDisplay				
43	424.997		loss-noreward	ImageDisplay2		0.0		
43	428.24	1.6	loss-noreward	ChoiceDisplay	1	0.426	1	1
43	428.691	1.174	loss-noreward	ChosenDisplay		0.0		
43	429.844	0.25	loss-noreward	TurnDisplay				
43	430.095	0.75	loss-noreward	OutcomeDisplay				
44	430.847		loss-reward	ImageDisplay1		0.0		
44	433.087	0.75	loss-reward	StartDisplay				
44	433.84		loss-reward	ImageDisplay2		0.0		
44	436.849	1.6	loss-reward	ChoiceDisplay	1	0.634	1	1
44	437.501	0.966	loss-reward	ChosenDisplay		0.0		
44	438.453	0.25	loss-reward	TurnDisplay				
44	438.704	0.75	loss-reward	OutcomeDisplay				
45	439.456		win-reward	ImageDisplay1		0.0		
45	441.697	0.75	win-reward	StartDisplay				
45	442.449		win-reward	ImageDisplay2		0.0		
45	445.458	1.6	win-reward	ChoiceDisplay	1	0.414	1	1
45	445.892	1.186	win-reward	ChosenDisplay		0.0		
45	447.063	0.25	win-reward	TurnDisplay				
45	447.313	0.75	win-reward	OutcomeDisplay				
46	448.066		control-reward	ImageDisplay1		0.0		
46	450.306	0.75	control-reward	StartDisplay				
46	451.058		control-reward	ImageDisplay2		0.0		
46	454.067	1.6	control-reward	ChoiceDisplay	1	0.848	1	1
46	454.936	0.752	control-reward	ChosenDisplay		0.0		
46	455.672	0.25	control-reward	TurnDisplay				
46	455.922	0.75	control-reward	OutcomeDisplay				
47	456.675		control-reward	ImageDisplay1		0.0		
47	458.915	0.75	control-reward	StartDisplay				
47	459.667		control-reward	ImageDisplay2		0.0		
47	462.676	1.6	control-reward	ChoiceDisplay	1	0.386	1	1
47	463.077	1.214	control-reward	ChosenDisplay		0.0		
47	464.281	0.25	control-reward	TurnDisplay				
47	464.531	0.75	control-reward	OutcomeDisplay				
48	465.284		loss-noreward	ImageDisplay1		0.0		
48	467.273	0.75	loss-noreward	StartDisplay				
48	468.025		loss-noreward	ImageDisplay2		0.0		
48	471.285	1.6	loss-noreward	ChoiceDisplay	1	0.444	1	1
48	471.753	1.156	loss-noreward	ChosenDisplay		0.0		
48	472.89	0.25	loss-noreward	TurnDisplay				
48	473.14	0.75	loss-noreward	OutcomeDisplay				
49	473.893		control-noreward	ImageDisplay1		0.0		
49	475.882	0.75	control-noreward	StartDisplay				
49	476.634		control-noreward	ImageDisplay2		0.0		
49	479.894	1.6	control-noreward	ChoiceDisplay	1	0.952	1	1
49	480.863	0.648	control-noreward	ChosenDisplay		0.0		
49	481.499	0.25	control-noreward	TurnDisplay				
49	481.749	0.75	control-noreward	OutcomeDisplay				
50	482.502		loss-reward	ImageDisplay1		0.0		
50	484.491	0.75	loss-reward	StartDisplay				
50	485.243		loss-reward	ImageDisplay2		0.0		
50	488.503	1.6	loss-reward	ChoiceDisplay		0.0		
50	490.091	0.0	loss-reward	ChosenDisplay		0.0		
50	490.108	0.25	loss-reward	TurnDisplay				
50	490.342	0.75	loss-reward	OutcomeDisplay				
51	491.094		win-reward	ImageDisplay1		0.0		
51	493.1	0.75	win-reward	StartDisplay				
51	493.852		win-reward	ImageDisplay2		0.0		
51	497.095	1.6	win-reward	ChoiceDisplay		0.0		
51	498.7	0.0	win-reward	ChosenDisplay		0.0		
51	498.717	0.25	win-reward	TurnDisplay				
51	498.951	0.75	win-reward	OutcomeDisplay				
52	499.703		loss-noreward	ImageDisplay1		0.0		
52	501.692	0.75	loss-noreward	StartDisplay				
52	502.445		loss-noreward	ImageDisplay2		0.0		
52	505.704	1.6	loss-noreward	ChoiceDisplay		0.0		
52	507.292	0.0	loss-noreward	ChosenDisplay		0.0		
52	507.309	0.25	loss-noreward	TurnDisplay				
52	507.543	0.75	loss-noreward	OutcomeDisplay				
53	508.295		control-reward	ImageDisplay1		0.0		
53	510.552	0.75	control-reward	StartDisplay				
53	511.304		control-reward	ImageDisplay2		0.0		
53	514.297	1.6	control-reward	ChoiceDisplay		0.0		
53	515.901	0.0	control-reward	ChosenDisplay		0.0		
53	515.918	0.25	control-reward	TurnDisplay				
53	516.152	0.75	control-reward	OutcomeDisplay				
54	516.904		loss-noreward	ImageDisplay1		0.0		
54	519.144	0.75	loss-noreward	StartDisplay				
54	519.897		loss-noreward	ImageDisplay2		0.0		
54	522.906	1.6	loss-noreward	ChoiceDisplay	1	1.182	1	1
54	524.109	0.418	loss-noreward	ChosenDisplay		0.0		
54	524.51	0.25	loss-noreward	TurnDisplay				
54	524.761	0.75	loss-noreward	OutcomeDisplay				
55	525.513		loss-noreward	ImageDisplay1		0.0		
55	527.753	0.75	loss-noreward	StartDisplay				
55	528.506		loss-noreward	ImageDisplay2		0.0		
55	531.515	1.6	loss-noreward	ChoiceDisplay	1	0.388	1	1
55	531.916	1.212	loss-noreward	ChosenDisplay		0.0		
55	533.119	0.25	loss-noreward	TurnDisplay				
55	533.37	0.75	loss-noreward	OutcomeDisplay				
56	534.122		control-reward	ImageDisplay1		0.0		
56	536.112	0.75	control-reward	StartDisplay				
56	536.864		control-reward	ImageDisplay2		0.0		
56	540.124	1.6	control-reward	ChoiceDisplay		0.0		
56	541.712	0.0	control-reward	ChosenDisplay		0.0		
56	541.728	0.25	control-reward	TurnDisplay				
56	541.963	0.75	control-reward	OutcomeDisplay				
57	542.715		win-noreward	ImageDisplay1		0.0		
57	544.972	0.75	win-noreward	StartDisplay				
57	545.724		win-noreward	ImageDisplay2		0.0		
57	548.716	1.6	win-noreward	ChoiceDisplay	1	0.578	1	1
57	549.318	1.022	win-noreward	ChosenDisplay		0.0		
57	550.321	0.25	win-noreward	TurnDisplay				
57	550.572	0.75	win-noreward	OutcomeDisplay				
58	551.324		loss-reward	ImageDisplay1		0.0		
58	553.313	0.75	loss-reward	StartDisplay				
58	554.065		loss-reward	ImageDisplay2		0.0		
58	557.325	1.6	loss-reward	ChoiceDisplay		0.0		
58	558.913	0.0	loss-reward	ChosenDisplay		0.0		
58	558.93	0.25	loss-reward	TurnDisplay				
58	559.164	0.75	loss-reward	OutcomeDisplay				
59	559.916		control-noreward	ImageDisplay1		0.0		
59	562.173	0.75	control-noreward	StartDisplay				
59	562.925		control-noreward	ImageDisplay2		0.0		
59	565.917	1.6	control-noreward	ChoiceDisplay	1	0.321	1	1
59	566.252	1.279	control-noreward	ChosenDisplay		0.0		
59	567.522	0.25	control-noreward	TurnDisplay				
59	567.773	0.75	control-noreward	OutcomeDisplay				
60	568.525		win-reward	ImageDisplay1		0.0		
60	570.514	0.75	win-reward	StartDisplay				
60	571.267		win-reward	ImageDisplay2		0.0		
60	574.526	1.6	win-reward	ChoiceDisplay		0.0		
60	576.114	0.0	win-reward	ChosenDisplay		0.0		
60	576.131	0.25	win-reward	TurnDisplay				
60	576.365	0.75	win-reward	OutcomeDisplay				
61	577.117		control-reward	ImageDisplay1		0.0		
61	579.123	0.75	control-reward	StartDisplay				
61	579.876		control-reward	ImageDisplay2		0.0		
61	583.119	1.6	control-reward	ChoiceDisplay		0.0		
61	584.724	0.0	control-reward	ChosenDisplay		0.0		
61	584.74	0.25	control-reward	TurnDisplay				
61	584.974	0.75	control-reward	OutcomeDisplay				
62	585.727		loss-reward	ImageDisplay1		0.0		
62	587.967	0.75	loss-reward	StartDisplay				
62	588.719		loss-reward	ImageDisplay2		0.0		
62	591.728	1.6	loss-reward	ChoiceDisplay		0.0		
62	593.316	0.0	loss-reward	ChosenDisplay		0.0		
62	593.333	0.25	loss-reward	TurnDisplay				
62	593.567	0.75	loss-reward	OutcomeDisplay				
63	594.319		control-noreward	ImageDisplay1		0.0		
63	596.576	0.75	control-noreward	StartDisplay				
63	597.328		control-noreward	ImageDisplay2		0.0		
63	600.32	1.6	control-noreward	ChoiceDisplay	1	0.61	1	1
63	600.955	0.99	control-noreward	ChosenDisplay		0.0		
63	601.925	0.25	control-noreward	TurnDisplay				
63	602.176	0.75	control-noreward	OutcomeDisplay				
64	602.928		loss-noreward	ImageDisplay1		0.0		
64	605.168	0.75	loss-noreward	StartDisplay				
64	605.92		loss-noreward	ImageDisplay2		0.0		
64	608.929	1.6	loss-noreward	ChoiceDisplay	1	0.612	1	1
64	609.564	0.988	loss-noreward	ChosenDisplay		0.0		
64	610.534	0.25	loss-noreward	TurnDisplay				
64	610.785	0.75	loss-noreward	OutcomeDisplay				
65	611.537		loss-reward	ImageDisplay1		0.0		
65	613.777	0.75	loss-reward	StartDisplay				
65	614.529		loss-reward	ImageDisplay2		0.0		
65	617.538	1.6	loss-reward	ChoiceDisplay	1	0.475	1	1
65	618.04	1.125	loss-reward	ChosenDisplay		0.0		
65	619.143	0.25	loss-reward	TurnDisplay				
65	619.394	0.75	loss-reward	OutcomeDisplay				
66	620.146		loss-reward	ImageDisplay1		0.0		
66	622.386	0.75	loss-reward	StartDisplay				
66	623.138		loss-reward	ImageDisplay2		0.0		
66	626.147	1.6	loss-reward	ChoiceDisplay	1	1.51	1	1
66	627.668	0.0	loss-reward	ChosenDisplay		0.0		
66	627.752	0.25	loss-reward	TurnDisplay				
66	627.919	0.75	loss-reward	OutcomeDisplay				
67	628.655		control-reward	ImageDisplay1		0.0		
67	630.661	0.75	control-reward	StartDisplay				
67	631.413		control-reward	ImageDisplay2		0.0		
67	634.656	1.6	control-reward	ChoiceDisplay	1	0.845	1	1
67	635.525	0.755	control-reward	ChosenDisplay		0.0		
67	636.261	0.25	control-reward	TurnDisplay				
67	636.511	0.75	control-reward	OutcomeDisplay				
68	637.264		loss-reward	ImageDisplay1		0.0		
68	639.504	0.75	loss-reward	StartDisplay				
68	640.256		loss-reward	ImageDisplay2		0.0		
68	643.265	1.6	loss-reward	ChoiceDisplay	1	1.446	1	1
68	644.736	0.154	loss-reward	ChosenDisplay		0.0		
68	644.87	0.25	loss-reward	TurnDisplay				
68	645.121	0.75	loss-reward	OutcomeDisplay				
69	645.873		loss-noreward	ImageDisplay1		0.0		
69	647.862	0.75	loss-noreward	StartDisplay				
69	648.614		loss-noreward	ImageDisplay2		0.0		
69	651.874	1.6	loss-noreward	ChoiceDisplay		0.0		
69	653.462	0.0	loss-noreward	ChosenDisplay		0.0		
69	653.479	0.25	loss-noreward	TurnDisplay				
69	653.713	0.75	loss-noreward	OutcomeDisplay				
70	654.465		control-noreward	ImageDisplay1		0.0		
70	656.722	0.75	control-noreward	StartDisplay				
70	657.474		control-noreward	ImageDisplay2		0.0		
70	660.466	1.6	control-noreward	ChoiceDisplay		0.0		
70	662.071	0.0	control-noreward	ChosenDisplay		0.0		
70	662.088	0.25	control-noreward	TurnDisplay				
70	662.322	0.75	control-noreward	OutcomeDisplay				
71	663.074		control-noreward	ImageDisplay1		0.0		
71	665.314	0.75	control-noreward	StartDisplay				
71	666.066		control-noreward	ImageDisplay2		0.0		
71	669.075	1.6	control-noreward	ChoiceDisplay	1	0.272	1	1
71	669.36	1.328	control-noreward	ChosenDisplay		0.0		
71	670.68	0.25	control-noreward	TurnDisplay				
71	670.931	0.75	control-noreward	OutcomeDisplay				
72	671.683		win-noreward	ImageDisplay1		0.0		
72	673.672	0.75	win-noreward	StartDisplay				
72	674.425		win-noreward	ImageDisplay2		0.0		
72	677.684	1.6	win-noreward	ChoiceDisplay	1	0.515	1	1
72	678.219	1.085	win-noreward	ChosenDisplay		0.0		
72	679.289	0.25	win-noreward	TurnDisplay				
72	679.54	0.75	win-noreward	OutcomeDisplay				
73	680.292		win-reward	ImageDisplay1		0.0		
73	682.532	0.75	win-reward	StartDisplay				
73	683.284		win-reward	ImageDisplay2		0.0		
73	686.293	1.6	win-reward	ChoiceDisplay	1	0.393	1	1
73	686.711	1.207	win-reward	ChosenDisplay		0.0		
73	687.898	0.25	win-reward	TurnDisplay				
73	688.149	0.75	win-reward	OutcomeDisplay				
74	688.901		win-noreward	ImageDisplay1		0.0		
74	691.141	0.75	win-noreward	StartDisplay				
74	691.893		win-noreward	ImageDisplay2		0.0		
74	694.902	1.6	win-noreward	ChoiceDisplay	1	0.312	1	1
74	695.237	1.288	win-noreward	ChosenDisplay		0.0		
74	696.507	0.25	win-noreward	TurnDisplay				
74	696.758	0.75	win-noreward	OutcomeDisplay				
75	697.51		loss-noreward	ImageDisplay1		0.0		
75	699.75	0.75	loss-noreward	StartDisplay				
75	700.503		loss-noreward	ImageDisplay2		0.0		
75	703.512	1.6	loss-noreward	ChoiceDisplay	1	0.321	1	1
75	703.846	1.279	loss-noreward	ChosenDisplay		0.0		
75	705.116	0.25	loss-noreward	TurnDisplay				
75	705.367	0.75	loss-noreward	OutcomeDisplay				
76	706.119		loss-noreward	ImageDisplay1		0.0		
76	708.359	0.75	loss-noreward	StartDisplay				
76	709.112		loss-noreward	ImageDisplay2		0.0		
76	712.121	1.6	loss-noreward	ChoiceDisplay	1	0.931	1	1
76	713.073	0.669	loss-noreward	ChosenDisplay		0.0		
76	713.725	0.25	loss-noreward	TurnDisplay				
76	713.976	0.75	loss-noreward	OutcomeDisplay				
77	714.728		control-reward	ImageDisplay1		0.0		
77	716.718	0.75	control-reward	StartDisplay				
77	717.47		control-reward	ImageDisplay2		0.0		
77	720.73	1.6	control-reward	ChoiceDisplay	1	0.419	1	1
77	721.164	1.181	control-reward	ChosenDisplay		0.0		
77	722.334	0.25	control-reward	TurnDisplay				
77	722.585	0.75	control-reward	OutcomeDisplay				
78	723.337		win-noreward	ImageDisplay1		0.0		
78	725.577	0.75	win-noreward	StartDisplay				
78	726.33		win-noreward	ImageDisplay2		0.0		
78	729.339	1.6	win-noreward	ChoiceDisplay		0.0		
78	730.927	0.0	win-noreward	ChosenDisplay		0.0		
78	730.943	0.25	win-noreward	TurnDisplay				
78	731.177	0.75	win-noreward	OutcomeDisplay				
79	731.93		loss-reward	ImageDisplay1		0.0		
79	733.936	0.75	loss-reward	StartDisplay				
79	734.688		loss-reward	ImageDisplay2		0.0		
79	737.931	1.6	loss-reward	ChoiceDisplay		0.0		
79	739.536	0.0	loss-reward	ChosenDisplay		0.0		
79	739.552	0.25	loss-reward	TurnDisplay				
79	739.786	0.75	loss-reward	OutcomeDisplay				
80	740.539		win-noreward	ImageDisplay1		0.0		
80	742.528	0.75	win-noreward	StartDisplay				
80	743.28		win-noreward	ImageDisplay2		0.0		
80	746.54	1.6	win-noreward	ChoiceDisplay		0.0		
80	748.128	0.0	win-noreward	ChosenDisplay		0.0		
80	748.145	0.25	win-noreward	TurnDisplay				
80	748.379	0.75	win-noreward	OutcomeDisplay				
81	749.131		control-reward	ImageDisplay1		0.0		
81	751.137	0.75	control-reward	StartDisplay				
81	751.889		control-reward	ImageDisplay2		0.0		
81	755.132	1.6	control-reward	ChoiceDisplay		0.0		
81	756.737	0.0	control-reward	ChosenDisplay		0.0		
81	756.754	0.25	control-reward	TurnDisplay				
81	756.988	0.75	control-reward	OutcomeDisplay				
82	757.74		control-noreward	ImageDisplay1		0.0		
82	759.98	0.75	control-noreward	StartDisplay				
82	760.732		control-noreward	ImageDisplay2		0.0		
82	763.741	1.6	control-noreward	ChoiceDisplay		0.0		
82	765.329	0.0	control-noreward	ChosenDisplay		0.0		
82	765.346	0.25	control-noreward	TurnDisplay				
82	765.58	0.75	control-noreward	OutcomeDisplay				
83	766.332		win-reward	ImageDisplay1		0.0		
83	768.338	0.75	win-reward	StartDisplay				
83	769.091		win-reward	ImageDisplay2		0.0		
83	772.334	1.6	win-reward	ChoiceDisplay		0.0		
83	773.938	0.0	win-reward	ChosenDisplay		0.0		
83	773.955	0.25	win-reward	TurnDisplay				
83	774.189	0.75	win-reward	OutcomeDisplay				
84	774.941		win-reward	ImageDisplay1		0.0		
84	777.181	0.75	win-reward	StartDisplay				
84	777.934		win-reward	ImageDisplay2		0.0		
84	780.926	1.6	win-reward	ChoiceDisplay	1	0.362	1	1
84	781.31	1.238	win-reward	ChosenDisplay		0.0		
84	782.531	0.25	win-reward	TurnDisplay				
84	782.782	0.75	win-reward	OutcomeDisplay				
85	783.534		win-noreward	ImageDisplay1		0.0		
85	785.774	0.75	win-noreward	StartDisplay				
85	786.526		win-noreward	ImageDisplay2		0.0		
85	789.535	1.6	win-noreward	ChoiceDisplay	1	0.547	1	1
85	790.103	1.053	win-noreward	ChosenDisplay		0.0		
85	791.14	0.25	win-noreward	TurnDisplay				
85	791.391	0.75	win-noreward	OutcomeDisplay				
86	792.143		loss-noreward	ImageDisplay1		0.0		
86	794.383	0.75	loss-noreward	StartDisplay				
86	795.135		loss-noreward	ImageDisplay2		0.0		
86	798.144	1.6	loss-noreward	ChoiceDisplay		0.0		
86	799.732	0.0	loss-noreward	ChosenDisplay		0.0		
86	799.749	0.25	loss-noreward	TurnDisplay				
86	799.983	0.75	loss-noreward	OutcomeDisplay				
87	800.735		control-reward	ImageDisplay1		0.0		
87	802.992	0.75	control-reward	StartDisplay				
87	803.744		control-reward	ImageDisplay2		0.0		
87	806.736	1.6	control-reward	ChoiceDisplay		0.0		
87	808.341	0.0	control-reward	ChosenDisplay		0.0		
87	808.358	0.25	control-reward	TurnDisplay				
87	808.592	0.75	control-reward	OutcomeDisplay				
88	809.344		control-noreward	ImageDisplay1		0.0		
88	811.333	0.75	control-noreward	StartDisplay				
88	812.086		control-noreward	ImageDisplay2		0.0		
88	815.345	1.6	control-noreward	ChoiceDisplay		0.0		
88	816.933	0.0	control-noreward	ChosenDisplay		0.0		
88	816.95	0.25	control-noreward	TurnDisplay				
88	817.184	0.75	control-noreward	OutcomeDisplay				
89	817.936		win-noreward	ImageDisplay1		0.0		
89	820.193	0.75	win-noreward	StartDisplay				
89	820.945		win-noreward	ImageDisplay2		0.0		
89	823.938	1.6	win-noreward	ChoiceDisplay	1	0.493	1	1
89	824.456	1.107	win-noreward	ChosenDisplay		0.0		
89	825.543	0.25	win-noreward	TurnDisplay				
89	825.793	0.75	win-noreward	OutcomeDisplay				
90	826.546		win-noreward	ImageDisplay1		0.0		
90	828.535	0.75	win-noreward	StartDisplay				
90	829.287		win-noreward	ImageDisplay2		0.0		
90	832.547	1.6	win-noreward	ChoiceDisplay	1	0.528	1	1
90	833.098	1.072	win-noreward	ChosenDisplay		0.0		
90	834.152	0.25	win-noreward	TurnDisplay				
90	834.402	0.75	win-noreward	OutcomeDisplay				
91	835.155		control-noreward	ImageDisplay1		0.0		
91	837.395	0.75	control-noreward	StartDisplay				
91	838.147		control-noreward	ImageDisplay2		0.0		
91	841.156	1.6	control-noreward	ChoiceDisplay		0.0		
91	842.744	0.0	control-noreward	ChosenDisplay		0.0		
91	842.761	0.25	control-noreward	TurnDisplay				
91	842.995	0.75	control-noreward	OutcomeDisplay				
92	843.747		win-reward	ImageDisplay1		0.0		
92	846.004	0.75	win-reward	StartDisplay				
92	846.756		win-reward	ImageDisplay2		0.0		
92	849.748	1.6	win-reward	ChoiceDisplay	1	1.165	1	1
92	850.935	0.435	win-reward	ChosenDisplay		0.0		
92	851.353	0.25	win-reward	TurnDisplay				
92	851.604	0.75	win-reward	OutcomeDisplay				
93	852.356		win-noreward	ImageDisplay1		0.0		
93	854.345	0.75	win-noreward	StartDisplay				
93	855.097		win-noreward	ImageDisplay2		0.0		
93	858.357	1.6	win-noreward	ChoiceDisplay		0.0		
93	859.945	0.0	win-noreward	ChosenDisplay		0.0		
93	859.962	0.25	win-noreward	TurnDisplay				
93	860.196	0.75	win-noreward	OutcomeDisplay				
94	860.948		win-noreward	ImageDisplay1		0.0		
94	862.954	0.75	win-noreward	StartDisplay				
94	863.706		win-noreward	ImageDisplay2		0.0		
94	866.949	1.6	win-noreward	ChoiceDisplay	1	0.439	1	1
94	867.401	1.161	win-noreward	ChosenDisplay		0.0		
94	868.554	0.25	win-noreward	TurnDisplay				
94	868.805	0.75	win-noreward	OutcomeDisplay				
95	869.557		win-noreward	ImageDisplay1		0.0		
95	871.797	0.75	win-noreward	StartDisplay				
95	872.55		win-noreward	ImageDisplay2		0.0		
95	875.559	1.6	win-noreward	ChoiceDisplay	1	0.93	1	1
95	876.511	0.67	win-noreward	ChosenDisplay		0.0		
95	877.163	0.25	win-noreward	TurnDisplay				
95	877.414	0.75	win-noreward	OutcomeDisplay				
