onset	duration	trial_type	response_time	stim_file	accuracy
326.364	1.0	go	0.64	Go_O	1.0
328.955	1.0	go	0.46	Go_X	1.0
331.48	1.0	go	0.373	Go_O	1.0
334.004	1.0	go	0.364	Go_X	1.0
336.528	1.0	go	0.325	Go_X	1.0
339.052	1.0	go	0.469	Go_O	1.0
341.576	0.25	stopfail	0.311	Go_O	0.0
344.1	1.0	go	0.383	Go_X	1.0
346.625	0.2	stopfail	0.375	Go_X	0.0
349.149	1.0	go	0.486	Go_O	1.0
351.673	1.0	go	0.426	Go_O	1.0
354.197	1.0	go	0.372	Go_X	1.0
356.721	0.15	stopsuccess	0.0	Go_O	1.0
359.246	1.0	go	0.424	Go_X	1.0
361.77	1.0	go	0.479	Go_O	1.0
364.294	0.2	stopsuccess	0.0	Go_X	1.0
366.818	0.25	stopsuccess	0.0	Go_O	1.0
369.342	1.0	go	0.461	Go_O	1.0
371.866	1.0	go	0.65	Go_X	1.0
374.391	0.3	stopsuccess	0.0	Go_X	1.0
376.915	1.0	go	0.63	Go_X	1.0
379.439	1.0	go	0.389	Go_O	1.0
381.963	0.35	stopsuccess	0.0	Go_O	1.0
384.487	1.0	go	0.521	Go_X	1.0
387.012	1.0	go	0.637	Go_O	1.0
389.536	0.4	stopsuccess	0.0	Go_X	1.0
392.06	1.0	go	0.48	Go_O	1.0
394.584	1.0	go	0.761	Go_X	1.0
397.108	0.45	stopfail	0.551	Go_O	0.0
399.632	1.0	go	0.63	Go_O	1.0
402.157	1.0	go	0.793	Go_X	1.0
404.681	1.0	go	0.469	Go_O	1.0
407.205	1.0	go	0.518	Go_X	1.0
409.729	1.0	go	0.749	Go_X	1.0
412.253	0.4	stopsuccess	0.0	Go_X	1.0
414.778	1.0	go	0.524	Go_O	1.0
417.302	1.0	go	0.656	Go_O	1.0
419.826	1.0	go	0.866	Go_X	1.0
422.35	1.0	go	0.572	Go_O	1.0
424.874	1.0	go	0.612	Go_X	1.0
427.398	0.45	stopfail	0.732	Go_O	0.0
429.923	1.0	go	0.686	Go_X	1.0
432.447	1.0	go	0.672	Go_O	1.0
434.971	1.0	go	0.641	Go_O	1.0
437.495	1.0	go	0.603	Go_X	1.0
440.019	1.0	go	0.662	Go_X	1.0
442.544	1.0	go	0.718	Go_O	1.0
445.068	0.4	stopsuccess	0.0	Go_X	1.0
447.592	1.0	go	0.557	Go_X	1.0
450.116	1.0	go	0.409	Go_O	1.0
452.64	0.45	stopfail	0.444	Go_O	0.0
455.164	1.0	go	0.504	Go_O	1.0
457.689	0.4	stopsuccess	0.0	Go_X	1.0
460.213	0.45	stopfail	0.409	Go_O	0.0
462.737	1.0	go	0.575	Go_X	1.0
465.261	1.0	go	0.573	Go_O	1.0
467.785	1.0	go	0.583	Go_X	1.0
470.311	1.0	go	0.605	Go_O	1.0
472.834	0.4	stopsuccess	0.0	Go_X	1.0
475.358	1.0	go	0.473	Go_X	1.0
477.882	0.45	stopfail	0.557	Go_O	0.0
480.406	1.0	go	0.668	Go_X	1.0
482.93	1.0	go	0.864	Go_O	1.0
485.455	1.0	go	0.64	Go_X	1.0
487.979	1.0	go	0.445	Go_O	1.0
490.503	1.0	go	0.64	Go_O	1.0
493.027	1.0	go	0.691	Go_X	1.0
495.551	1.0	go	0.605	Go_X	1.0
498.076	1.0	go	0.554	Go_O	1.0
500.6	1.0	go	0.61	Go_X	1.0
503.124	0.4	stopfail	0.728	Go_X	0.0
505.648	1.0	go	0.675	Go_O	1.0
508.172	1.0	go	0.827	Go_O	1.0
510.696	1.0	go	0.722	Go_X	1.0
513.221	0.35	stopfail	0.632	Go_O	0.0
515.745	1.0	go	0.687	Go_X	1.0
518.269	1.0	go	0.695	Go_O	1.0
520.793	1.0	go	0.758	Go_X	1.0
523.317	1.0	go	0.625	Go_O	1.0
525.842	1.0	go	0.92	Go_O	1.0
528.366	1.0	go	0.497	Go_X	1.0
530.89	0.3	stopsuccess	0.0	Go_X	1.0
533.414	1.0	go	0.383	Go_O	1.0
535.938	1.0	go	0.625	Go_X	1.0
538.462	0.35	stopfail	0.476	Go_O	0.0
540.987	1.0	go	0.406	Go_O	1.0
543.511	1.0	go	0.865	Go_X	1.0
546.035	0.3	stopsuccess	0.0	Go_X	1.0
548.559	1.0	go	0.532	Go_X	1.0
551.083	0.35	stopsuccess	0.0	Go_O	1.0
553.608	1.0	go	0.473	Go_O	1.0
556.132	1.0	go	0.614	Go_O	1.0
558.656	1.0	go	0.528	Go_X	1.0
561.18	1.0	go	0.714	Go_O	1.0
563.704	1.0	go	0.616	Go_X	1.0
566.228	0.4	stopsuccess	0.0	Go_X	1.0
568.753	0.45	stopfail	0.487	Go_O	0.0
571.277	1.0	go	0.619	Go_X	1.0
573.801	1.0	go	0.811	Go_O	1.0
576.325	0.4	stopsuccess	0.0	Go_X	1.0
578.849	1.0	go	0.502	Go_O	1.0
581.374	1.0	go	0.615	Go_X	1.0
583.898	1.0	go	0.634	Go_X	1.0
586.422	1.0	go	0.638	Go_O	1.0
588.946	1.0	go	0.895	Go_O	1.0
591.47	1.0	go	0.0	Go_X	0.0
593.995	0.45	stopfail	0.614	Go_O	0.0
596.519	1.0	go	0.559	Go_O	1.0
599.043	1.0	go	0.61	Go_X	1.0
601.567	1.0	go	0.724	Go_X	1.0
604.091	1.0	go	0.899	Go_O	1.0
606.615	1.0	go	0.565	Go_X	1.0
609.14	0.4	stopsuccess	0.0	Go_X	1.0
611.664	1.0	go	0.492	Go_O	1.0
614.188	1.0	go	0.957	Go_X	1.0
616.712	1.0	go	0.794	Go_O	1.0
619.236	1.0	go	0.543	Go_X	1.0
621.761	0.45	stopfail	0.559	Go_O	0.0
624.285	1.0	go	0.681	Go_O	1.0
626.809	1.0	go	0.856	Go_O	1.0
629.333	0.4	stopsuccess	0.0	Go_X	1.0
631.857	1.0	go	0.607	Go_X	1.0
634.381	0.45	stopsuccess	0.0	Go_O	1.0
636.906	1.0	go	0.636	Go_O	1.0
639.43	1.0	go	0.699	Go_X	1.0
641.954	1.0	go	0.744	Go_X	1.0
644.478	1.0	go	0.649	Go_O	1.0
647.002	1.0	go	0.683	Go_X	1.0
649.527	1.0	go	0.776	Go_O	1.0
652.051	1.0	go	0.778	Go_X	1.0
654.575	0.5	stopsuccess	0.0	Go_X	1.0
657.116	1.0	go	0.543	Go_O	1.0
659.64	1.0	go	0.609	Go_X	1.0
662.164	1.0	go	0.651	Go_O	1.0
664.688	0.55	stopfail	0.698	Go_O	0.0
667.213	1.0	go	0.548	Go_X	1.0
669.737	1.0	go	0.654	Go_O	1.0
672.261	1.0	go	0.737	Go_X	1.0
674.785	1.0	go	0.627	Go_O	1.0
677.309	0.5	stopfail	0.6	Go_X	0.0
679.833	1.0	go	0.688	Go_O	1.0
682.358	1.0	go	0.875	Go_X	1.0
684.882	0.45	stopsuccess	0.0	Go_O	1.0
687.406	1.0	go	0.528	Go_O	1.0
689.93	1.0	go	0.718	Go_X	1.0
692.454	0.5	stopsuccess	0.0	Go_X	1.0
694.979	1.0	go	0.0	Go_O	0.0
697.503	1.0	go	0.697	Go_X	1.0
700.027	0.55	stopfail	0.605	Go_O	0.0
702.551	1.0	go	0.701	Go_X	1.0
705.075	1.0	go	0.61	Go_O	1.0
707.599	1.0	go	0.697	Go_O	1.0
710.124	1.0	go	0.683	Go_X	1.0
712.648	1.0	go	0.806	Go_O	1.0
715.172	1.0	go	0.638	Go_X	1.0
717.696	0.5	stopsuccess	0.0	Go_X	1.0
720.22	1.0	go	0.505	Go_O	1.0
722.745	0.55	stopsuccess	0.0	Go_O	1.0
725.269	1.0	go	0.783	Go_X	1.0
727.793	1.0	go	0.844	Go_X	1.0
730.317	1.0	go	0.804	Go_O	1.0
732.841	1.0	go	0.758	Go_X	1.0
735.365	1.0	go	0.653	Go_O	1.0
737.89	0.6	stopfail	0.729	Go_X	0.0
740.414	1.0	go	0.586	Go_O	1.0
742.938	1.0	go	0.597	Go_X	1.0
745.462	1.0	go	0.688	Go_X	1.0
747.986	0.55	stopsuccess	0.0	Go_O	1.0
750.511	0.6	stopfail	0.65	Go_X	0.0
753.035	0.55	stopfail	0.663	Go_O	0.0
755.559	1.0	go	0.862	Go_O	1.0
758.083	0.5	stopsuccess	0.0	Go_X	1.0
760.607	1.0	go	0.772	Go_O	1.0
763.131	1.0	go	0.893	Go_X	1.0
765.656	1.0	go	0.872	Go_X	1.0
768.18	1.0	go	0.697	Go_O	1.0
770.704	1.0	go	0.773	Go_O	1.0
773.228	1.0	go	0.807	Go_X	1.0
775.752	1.0	go	0.766	Go_O	1.0
778.277	1.0	go	0.693	Go_X	1.0
780.801	0.55	stopfail	0.759	Go_O	0.0
783.325	1.0	go	0.767	Go_O	1.0
785.849	1.0	go	0.881	Go_X	1.0
788.373	0.5	stopsuccess	0.0	Go_X	1.0
790.897	1.0	go	0.667	Go_O	1.0
793.422	1.0	go	0.818	Go_X	1.0
795.946	1.0	go	0.77	Go_O	1.0
798.47	1.0	go	0.762	Go_X	1.0
800.994	1.0	go	0.688	Go_O	1.0
803.518	0.55	stopsuccess	0.0	Go_O	1.0
806.043	1.0	go	0.668	Go_X	1.0
808.567	1.0	go	0.0	Go_X	0.0
811.091	1.0	go	0.994	Go_O	1.0
813.615	0.6	stopfail	0.714	Go_X	0.0
816.139	1.0	go	0.781	Go_X	1.0
818.663	0.55	stopfail	0.652	Go_O	0.0
821.188	1.0	go	0.803	Go_O	1.0
823.712	1.0	go	0.668	Go_X	1.0
826.236	1.0	go	0.51	Go_O	1.0
828.76	1.0	go	0.0	Go_O	0.0
831.284	1.0	go	0.0	Go_X	0.0
833.809	1.0	go	0.778	Go_X	1.0
836.333	1.0	go	0.663	Go_O	1.0
838.857	0.5	stopfail	0.621	Go_X	0.0
841.381	1.0	go	0.627	Go_X	1.0
843.905	1.0	go	0.628	Go_O	1.0
846.429	1.0	go	0.704	Go_X	1.0
848.954	1.0	go	0.503	Go_O	1.0
851.478	0.45	stopsuccess	0.0	Go_O	1.0
854.002	1.0	go	0.723	Go_O	1.0
856.526	0.5	stopsuccess	0.0	Go_X	1.0
859.05	1.0	go	0.706	Go_X	1.0
861.575	1.0	go	0.862	Go_X	1.0
864.099	0.55	stopsuccess	0.0	Go_O	1.0
866.623	1.0	go	0.516	Go_O	1.0
869.151	1.0	go	0.723	Go_X	1.0
871.688	1.0	go	0.7	Go_O	1.0
874.212	1.0	go	0.751	Go_X	1.0
876.736	1.0	go	0.506	Go_O	1.0
879.261	1.0	go	0.801	Go_O	1.0
881.785	1.0	go	0.871	Go_X	1.0
884.311	1.0	go	0.823	Go_O	1.0
886.833	1.0	go	0.781	Go_X	1.0
889.357	1.0	go	0.91	Go_X	0.0
891.881	0.6	stopfail	0.87	Go_X	0.0
894.406	1.0	go	0.925	Go_O	1.0
896.93	1.0	go	0.0	Go_O	0.0
899.454	0.55	stopsuccess	0.0	Go_O	1.0
901.978	1.0	go	0.664	Go_X	1.0
904.502	0.6	stopsuccess	0.0	Go_X	1.0
907.027	1.0	go	0.813	Go_X	1.0
909.551	1.0	go	0.687	Go_O	1.0
912.075	0.65	stopsuccess	0.0	Go_O	1.0
914.599	1.0	go	0.602	Go_O	1.0
917.123	0.7	stopsuccess	0.0	Go_X	1.0
919.647	1.0	go	0.85	Go_X	1.0
922.172	1.0	go	0.759	Go_O	1.0
924.696	1.0	go	0.0	Go_X	0.0
927.22	0.75	stopfail	0.747	Go_O	0.0
929.744	1.0	go	0.804	Go_O	1.0
932.268	1.0	go	0.807	Go_X	1.0
934.793	1.0	go	0.544	Go_O	1.0
937.317	1.0	go	0.871	Go_X	1.0
939.841	0.7	stopfail	0.977	Go_X	0.0
942.365	1.0	go	0.655	Go_O	1.0
944.889	1.0	go	0.0	Go_X	0.0
947.413	0.65	stopfail	0.562	Go_O	0.0
949.938	1.0	go	0.929	Go_O	1.0
952.462	1.0	go	0.529	Go_X	1.0
954.986	1.0	go	0.63	Go_X	1.0
957.51	1.0	go	0.639	Go_O	1.0
960.034	0.6	stopfail	0.504	Go_X	0.0
962.559	1.0	go	0.575	Go_O	1.0
965.083	0.55	stopfail	0.652	Go_O	0.0
967.607	1.0	go	0.512	Go_X	1.0
970.131	1.0	go	0.527	Go_O	1.0
972.655	0.5	stopfail	0.57	Go_X	0.0
975.18	1.0	go	0.593	Go_X	1.0
977.704	1.0	go	0.731	Go_O	1.0
980.228	1.0	go	0.615	Go_X	1.0
982.752	1.0	go	0.533	Go_X	1.0
985.276	0.45	stopfail	0.598	Go_O	0.0
987.8	1.0	go	0.548	Go_O	1.0
990.325	0.4	stopsuccess	0.0	Go_X	1.0
992.849	1.0	go	0.638	Go_X	1.0
995.373	1.0	go	0.62	Go_O	1.0
997.897	1.0	go	0.877	Go_O	1.0
1000.421	1.0	go	0.831	Go_X	0.0
1002.946	1.0	go	0.711	Go_X	1.0
1005.47	1.0	go	0.668	Go_O	1.0
1007.994	0.45	stopsuccess	0.0	Go_O	1.0
1010.518	1.0	go	0.956	Go_O	1.0
1013.042	1.0	go	0.92	Go_X	1.0
1015.566	0.5	stopsuccess	0.0	Go_X	1.0
1018.091	1.0	go	0.706	Go_X	1.0
1020.615	1.0	go	0.883	Go_O	1.0
1023.139	0.55	stopsuccess	0.0	Go_O	1.0
1025.663	1.0	go	0.917	Go_X	1.0
1028.187	1.0	go	0.0	Go_O	0.0
1030.712	1.0	go	0.78	Go_O	1.0
1033.236	1.0	go	0.712	Go_X	1.0
1035.76	0.6	stopfail	0.687	Go_X	0.0
1038.284	1.0	go	0.775	Go_X	1.0
1040.808	0.55	stopsuccess	0.0	Go_O	1.0
1043.332	1.0	go	0.605	Go_O	1.0
1045.857	1.0	go	0.894	Go_O	1.0
1048.381	1.0	go	0.964	Go_X	1.0
1050.905	1.0	go	0.803	Go_X	1.0
1053.429	1.0	go	0.763	Go_O	1.0
1055.953	0.6	stopfail	0.703	Go_X	0.0
1058.478	1.0	go	0.821	Go_O	1.0
1061.002	1.0	go	0.894	Go_X	1.0
1063.526	0.55	stopfail	0.657	Go_O	0.0
1066.05	0.5	stopfail	0.659	Go_X	0.0
1068.574	1.0	go	0.653	Go_X	1.0
1071.098	1.0	go	0.597	Go_O	1.0
1073.623	1.0	go	0.887	Go_X	1.0
1076.147	1.0	go	0.628	Go_O	1.0
1078.671	0.45	stopsuccess	0.0	Go_O	1.0
1081.195	1.0	go	0.581	Go_O	1.0
