onset	duration	trial_type	response_time	stim_file	accuracy
29.129	1.0	go	0.559	Go_O	1.0
31.654	1.0	go	0.444	Go_X	1.0
34.178	1.0	go	0.352	Go_O	1.0
36.702	1.0	go	0.429	Go_X	1.0
39.226	1.0	go	0.505	Go_O	1.0
41.75	1.0	go	0.268	Go_X	1.0
44.275	0.25	stop	0.248	Go_O	0.0
46.799	1.0	go	0.444	Go_X	1.0
49.323	0.2	stop	0.0	Go_X	1.0
51.847	1.0	go	0.559	Go_O	1.0
54.371	1.0	go	0.632	Go_X	1.0
56.896	1.0	go	0.295	Go_O	1.0
59.42	0.25	stop	0.0	Go_O	1.0
61.944	1.0	go	0.286	Go_O	1.0
64.468	1.0	go	0.238	Go_X	1.0
66.992	0.3	stop	0.0	Go_X	1.0
69.517	0.35	stop	0.338	Go_O	0.0
72.041	1.0	go	0.336	Go_O	1.0
74.565	1.0	go	0.572	Go_X	1.0
77.089	0.3	stop	0.449	Go_X	0.0
79.613	1.0	go	0.463	Go_X	1.0
82.138	1.0	go	0.415	Go_O	1.0
84.662	0.25	stop	0.307	Go_O	0.0
87.186	1.0	go	0.329	Go_O	1.0
89.71	1.0	go	0.506	Go_X	1.0
92.234	0.2	stop	0.0	Go_X	1.0
94.759	1.0	go	0.636	Go_X	1.0
97.283	1.0	go	0.428	Go_O	1.0
99.807	0.25	stop	0.0	Go_O	1.0
102.331	1.0	go	0.294	Go_O	1.0
104.855	1.0	go	0.414	Go_X	1.0
107.38	1.0	go	0.656	Go_X	1.0
109.904	1.0	go	0.372	Go_O	1.0
112.428	1.0	go	0.628	Go_X	1.0
114.952	0.3	stop	0.0	Go_X	1.0
117.476	1.0	go	0.356	Go_O	1.0
120.001	1.0	go	0.44	Go_O	1.0
122.542	1.0	go	0.545	Go_X	1.0
125.066	1.0	go	0.743	Go_X	1.0
127.59	1.0	go	0.521	Go_O	1.0
130.114	0.35	stop	0.0	Go_O	1.0
132.638	1.0	go	0.433	Go_X	1.0
135.163	1.0	go	0.382	Go_O	1.0
137.687	1.0	go	0.431	Go_X	1.0
140.211	1.0	go	0.334	Go_O	1.0
142.735	1.0	go	0.632	Go_O	1.0
145.259	1.0	go	0.493	Go_X	1.0
147.785	0.4	stop	0.0	Go_X	1.0
150.308	1.0	go	0.48	Go_O	1.0
152.832	1.0	go	0.526	Go_X	1.0
155.356	0.45	stop	0.452	Go_O	0.0
157.88	1.0	go	0.455	Go_O	1.0
160.405	0.4	stop	0.481	Go_X	0.0
162.929	0.35	stop	0.0	Go_O	1.0
165.453	1.0	go	0.457	Go_X	1.0
167.977	1.0	go	0.494	Go_O	1.0
170.501	1.0	go	0.489	Go_X	1.0
173.026	1.0	go	0.418	Go_X	1.0
175.55	0.4	stop	0.0	Go_X	1.0
178.074	1.0	go	0.453	Go_O	1.0
180.598	0.45	stop	0.334	Go_O	0.0
183.122	1.0	go	0.432	Go_O	1.0
185.647	1.0	go	0.58	Go_X	1.0
188.171	1.0	go	0.297	Go_X	1.0
190.695	1.0	go	0.333	Go_O	1.0
193.219	1.0	go	0.38	Go_X	1.0
195.743	1.0	go	0.669	Go_O	1.0
198.268	1.0	go	0.486	Go_X	1.0
200.792	1.0	go	0.591	Go_O	1.0
203.316	1.0	go	0.62	Go_X	1.0
205.84	0.4	stop	0.0	Go_X	1.0
208.364	1.0	go	0.379	Go_O	1.0
210.889	1.0	go	0.297	Go_X	1.0
213.413	1.0	go	0.34	Go_O	1.0
215.937	0.45	stop	0.4	Go_O	0.0
218.461	1.0	go	0.493	Go_O	1.0
220.985	1.0	go	0.207	Go_X	1.0
223.51	1.0	go	0.439	Go_O	1.0
226.034	1.0	go	0.278	Go_X	1.0
228.558	1.0	go	0.391	Go_O	1.0
231.082	1.0	go	0.679	Go_X	1.0
233.606	0.4	stop	0.0	Go_X	1.0
236.131	1.0	go	0.342	Go_O	1.0
238.655	1.0	go	0.694	Go_X	0.0
241.179	0.45	stop	0.5	Go_O	0.0
243.703	1.0	go	0.607	Go_X	1.0
246.227	1.0	go	0.471	Go_O	1.0
248.752	0.4	stop	0.511	Go_X	0.0
251.276	1.0	go	0.524	Go_O	1.0
253.8	0.35	stop	0.0	Go_O	1.0
256.324	1.0	go	0.221	Go_X	1.0
258.848	1.0	go	0.558	Go_O	1.0
261.373	1.0	go	0.67	Go_X	1.0
263.897	1.0	go	0.566	Go_X	1.0
266.421	1.0	go	0.462	Go_O	1.0
268.945	0.4	stop	0.456	Go_X	0.0
271.47	0.35	stop	0.0	Go_O	1.0
273.994	1.0	go	0.299	Go_X	1.0
276.518	1.0	go	0.424	Go_O	1.0
279.042	0.4	stop	0.523	Go_X	0.0
281.566	1.0	go	0.524	Go_O	1.0
284.091	1.0	go	0.553	Go_X	1.0
286.615	1.0	go	0.416	Go_O	1.0
289.139	1.0	go	0.882	Go_X	1.0
291.663	1.0	go	0.533	Go_X	1.0
294.187	1.0	go	0.347	Go_O	1.0
296.712	0.35	stop	0.0	Go_O	1.0
299.236	1.0	go	0.465	Go_X	1.0
301.76	1.0	go	0.592	Go_O	1.0
304.284	1.0	go	0.659	Go_O	1.0
306.808	1.0	go	0.585	Go_X	1.0
309.333	1.0	go	0.581	Go_O	1.0
311.857	0.4	stop	0.0	Go_X	1.0
314.381	1.0	go	0.554	Go_X	1.0
316.922	1.0	go	0.433	Go_O	1.0
319.446	1.0	go	0.741	Go_X	1.0
321.97	1.0	go	0.743	Go_O	1.0
324.494	0.45	stop	0.0	Go_O	1.0
327.019	1.0	go	0.307	Go_X	1.0
329.543	1.0	go	0.443	Go_X	1.0
332.067	0.5	stop	0.585	Go_X	0.0
334.591	1.0	go	0.634	Go_O	1.0
337.115	0.45	stop	0.505	Go_O	0.0
339.64	1.0	go	0.523	Go_O	1.0
342.164	1.0	go	0.279	Go_X	1.0
344.688	1.0	go	0.398	Go_X	1.0
347.212	1.0	go	0.423	Go_O	1.0
349.737	1.0	go	0.498	Go_X	1.0
352.261	1.0	go	0.428	Go_O	1.0
354.785	1.0	go	0.48	Go_O	1.0
357.309	0.4	stop	0.0	Go_X	1.0
359.833	1.0	go	0.371	Go_X	1.0
362.358	1.0	go	0.597	Go_O	1.0
364.882	1.0	go	0.446	Go_X	1.0
367.406	0.45	stop	0.493	Go_O	0.0
369.93	1.0	go	0.474	Go_X	1.0
372.454	1.0	go	0.614	Go_O	1.0
374.979	1.0	go	0.467	Go_O	1.0
377.519	1.0	go	0.754	Go_X	1.0
380.044	0.4	stop	0.354	Go_X	0.0
382.568	1.0	go	0.573	Go_X	1.0
385.092	1.0	go	0.327	Go_O	1.0
387.616	0.35	stop	0.401	Go_O	0.0
390.14	1.0	go	0.332	Go_X	1.0
392.665	1.0	go	0.465	Go_O	1.0
395.189	0.3	stop	0.0	Go_X	1.0
397.713	1.0	go	0.436	Go_O	1.0
400.237	1.0	go	0.622	Go_X	1.0
402.762	0.35	stop	0.0	Go_O	1.0
405.286	1.0	go	0.5	Go_O	1.0
407.81	1.0	go	0.596	Go_X	1.0
410.334	1.0	go	0.728	Go_O	1.0
412.858	1.0	go	0.798	Go_X	1.0
415.383	1.0	go	0.881	Go_O	1.0
417.907	1.0	go	0.515	Go_X	1.0
420.431	0.4	stop	0.0	Go_X	1.0
422.955	1.0	go	0.549	Go_X	1.0
425.479	0.45	stop	0.416	Go_O	0.0
428.004	1.0	go	0.354	Go_O	1.0
430.528	1.0	go	0.317	Go_O	1.0
433.052	1.0	go	0.588	Go_X	1.0
435.576	1.0	go	0.489	Go_O	1.0
438.1	1.0	go	0.684	Go_X	1.0
440.625	0.4	stop	0.0	Go_X	1.0
443.149	1.0	go	0.431	Go_O	1.0
445.673	1.0	go	0.727	Go_X	1.0
448.197	1.0	go	0.494	Go_O	1.0
450.721	0.45	stop	0.468	Go_O	0.0
453.246	0.4	stop	0.49	Go_X	0.0
455.77	0.35	stop	0.0	Go_O	1.0
458.311	1.0	go	0.511	Go_X	1.0
460.835	0.4	stop	0.0	Go_X	1.0
463.359	1.0	go	0.712	Go_O	1.0
465.883	1.0	go	0.51	Go_X	1.0
468.407	1.0	go	0.476	Go_X	1.0
470.932	1.0	go	0.188	Go_O	1.0
473.456	1.0	go	0.793	Go_X	1.0
475.98	1.0	go	0.801	Go_O	1.0
478.504	1.0	go	0.659	Go_X	1.0
481.029	1.0	go	0.715	Go_O	1.0
483.553	0.45	stop	0.475	Go_O	0.0
486.077	1.0	go	0.568	Go_X	1.0
488.601	1.0	go	0.61	Go_O	1.0
491.125	0.4	stop	0.473	Go_X	0.0
493.65	1.0	go	0.47	Go_O	1.0
496.174	1.0	go	0.457	Go_X	1.0
498.698	1.0	go	0.42	Go_X	1.0
501.222	1.0	go	0.744	Go_O	1.0
503.746	1.0	go	0.543	Go_O	1.0
506.271	0.35	stop	0.0	Go_O	1.0
508.795	1.0	go	0.362	Go_X	1.0
511.319	1.0	go	0.682	Go_X	1.0
513.843	1.0	go	0.756	Go_O	1.0
516.367	0.4	stop	0.586	Go_X	0.0
518.908	1.0	go	0.596	Go_X	1.0
521.432	0.35	stop	0.0	Go_O	1.0
523.957	1.0	go	0.598	Go_O	1.0
526.481	1.0	go	0.595	Go_X	1.0
529.005	1.0	go	0.391	Go_O	1.0
531.529	1.0	go	0.765	Go_O	1.0
534.053	1.0	go	0.439	Go_X	1.0
536.578	1.0	go	0.539	Go_O	1.0
539.102	1.0	go	0.612	Go_X	1.0
541.626	0.4	stop	0.0	Go_X	1.0
544.15	1.0	go	0.425	Go_O	1.0
546.675	1.0	go	0.569	Go_X	1.0
549.199	1.0	go	0.727	Go_X	1.0
551.723	1.0	go	0.491	Go_O	1.0
554.247	0.45	stop	0.403	Go_O	0.0
556.771	1.0	go	0.433	Go_X	1.0
559.296	0.4	stop	0.48	Go_X	0.0
561.82	1.0	go	0.935	Go_O	1.0
564.344	1.0	go	0.427	Go_X	1.0
566.868	0.35	stop	0.435	Go_O	0.0
569.392	1.0	go	0.569	Go_O	1.0
571.917	1.0	go	0.456	Go_O	1.0
574.441	1.0	go	0.333	Go_X	1.0
576.965	1.0	go	0.453	Go_O	1.0
579.489	1.0	go	0.51	Go_X	1.0
582.013	1.0	go	0.597	Go_X	1.0
584.538	1.0	go	0.362	Go_O	1.0
587.062	1.0	go	0.883	Go_X	1.0
589.586	1.0	go	0.66	Go_O	1.0
592.11	1.0	go	0.593	Go_X	1.0
594.634	0.3	stop	0.0	Go_X	1.0
597.159	1.0	go	0.336	Go_O	1.0
599.683	1.0	go	0.502	Go_O	1.0
602.207	0.35	stop	0.0	Go_O	1.0
604.731	1.0	go	0.728	Go_X	1.0
607.255	0.4	stop	0.723	Go_X	0.0
609.78	1.0	go	0.949	Go_X	1.0
612.304	1.0	go	0.0	Go_O	0.0
614.828	0.35	stop	0.506	Go_O	0.0
617.352	1.0	go	0.539	Go_O	1.0
619.876	0.3	stop	0.0	Go_X	1.0
622.401	1.0	go	0.617	Go_X	1.0
624.925	1.0	go	0.707	Go_O	1.0
627.449	1.0	go	0.57	Go_X	1.0
629.973	0.35	stop	0.362	Go_O	0.0
632.497	1.0	go	0.503	Go_X	1.0
635.022	1.0	go	0.741	Go_O	1.0
637.546	1.0	go	0.35	Go_O	1.0
640.07	1.0	go	0.375	Go_X	1.0
642.594	0.3	stop	0.312	Go_X	0.0
645.118	1.0	go	0.524	Go_O	1.0
647.643	1.0	go	0.521	Go_X	1.0
650.167	0.25	stop	0.0	Go_O	1.0
652.691	1.0	go	0.377	Go_X	1.0
655.215	1.0	go	0.565	Go_O	1.0
657.739	1.0	go	0.719	Go_O	1.0
660.264	1.0	go	0.511	Go_X	1.0
662.788	0.3	stop	0.483	Go_X	0.0
665.312	1.0	go	0.501	Go_O	1.0
667.836	0.25	stop	0.0	Go_O	1.0
670.36	1.0	go	0.428	Go_X	1.0
672.885	1.0	go	0.544	Go_X	1.0
675.409	0.3	stop	0.305	Go_X	0.0
677.933	1.0	go	0.0	Go_O	0.0
680.457	1.0	go	0.987	Go_X	1.0
682.981	1.0	go	0.377	Go_O	1.0
685.506	1.0	go	0.409	Go_X	1.0
688.03	0.25	stop	0.0	Go_O	1.0
690.554	1.0	go	0.302	Go_O	1.0
693.078	0.3	stop	0.654	Go_X	0.0
695.602	1.0	go	0.349	Go_X	1.0
698.127	1.0	go	0.349	Go_O	1.0
700.651	1.0	go	0.442	Go_O	1.0
703.175	1.0	go	0.621	Go_X	1.0
705.716	1.0	go	0.362	Go_X	1.0
708.24	1.0	go	0.429	Go_O	1.0
710.764	0.25	stop	0.356	Go_O	0.0
713.289	1.0	go	0.314	Go_O	1.0
715.813	1.0	go	0.495	Go_X	1.0
718.337	0.2	stop	0.0	Go_X	1.0
720.861	1.0	go	0.661	Go_O	1.0
723.385	1.0	go	0.371	Go_X	1.0
725.91	0.25	stop	0.37	Go_O	0.0
728.434	1.0	go	0.344	Go_X	1.0
730.958	1.0	go	0.493	Go_O	1.0
733.482	1.0	go	0.532	Go_X	1.0
736.006	1.0	go	0.537	Go_O	1.0
738.531	0.2	stop	0.284	Go_X	0.0
741.055	1.0	go	0.33	Go_O	1.0
743.579	0.15	stop	0.34	Go_O	0.0
746.103	1.0	go	0.439	Go_X	1.0
748.627	1.0	go	0.289	Go_O	1.0
751.152	1.0	go	0.495	Go_X	1.0
753.676	1.0	go	0.305	Go_O	1.0
756.2	1.0	go	0.868	Go_X	1.0
758.724	0.1	stop	0.0	Go_X	1.0
761.248	1.0	go	0.723	Go_X	1.0
763.773	1.0	go	0.285	Go_O	1.0
766.297	0.15	stop	0.0	Go_O	1.0
768.821	0.2	stop	0.0	Go_X	1.0
771.345	1.0	go	0.345	Go_X	1.0
773.87	1.0	go	0.67	Go_O	1.0
776.394	1.0	go	0.652	Go_X	1.0
778.918	1.0	go	0.378	Go_O	1.0
781.442	0.25	stop	0.0	Go_O	1.0
783.966	1.0	go	0.542	Go_X	1.0
