onset	duration	trial_type	response_time	stim_file	accuracy
489.343	1.0	go	0.613	Go_X	0.0
491.951	1.0	go	0.575	Go_O	1.0
494.492	1.0	go	0.427	Go_O	0.0
497.016	1.0	go	0.274	Go_X	0.0
499.54	1.0	go	0.338	Go_X	0.0
502.064	1.0	go	0.493	Go_O	0.0
504.589	0.25	stopfail	0.366	Go_O	0.0
507.113	1.0	go	0.365	Go_X	0.0
509.637	0.2	stopfail	0.339	Go_X	0.0
512.161	1.0	go	0.383	Go_O	0.0
514.685	1.0	go	0.379	Go_O	0.0
517.209	1.0	go	0.336	Go_X	0.0
519.734	0.15	stopsuccess	0.0	Go_O	1.0
522.258	1.0	go	0.367	Go_X	0.0
524.782	1.0	go	0.374	Go_O	0.0
527.306	0.2	stopfail	0.275	Go_X	0.0
529.83	0.15	stopfail	0.269	Go_O	0.0
532.354	1.0	go	0.361	Go_X	0.0
534.879	1.0	go	0.375	Go_O	0.0
537.403	0.1	stopsuccess	0.0	Go_X	1.0
539.927	1.0	go	0.391	Go_X	0.0
542.451	1.0	go	0.291	Go_O	0.0
544.975	0.15	stopsuccess	0.0	Go_O	1.0
547.499	1.0	go	0.437	Go_O	0.0
550.023	1.0	go	0.255	Go_X	0.0
552.548	0.2	stopsuccess	0.0	Go_X	1.0
555.072	1.0	go	0.313	Go_O	0.0
557.596	1.0	go	0.382	Go_X	0.0
560.12	0.25	stopfail	0.365	Go_O	0.0
562.644	1.0	go	0.376	Go_X	0.0
565.168	1.0	go	0.369	Go_O	0.0
567.693	1.0	go	0.329	Go_X	0.0
570.217	1.0	go	0.362	Go_O	0.0
572.741	1.0	go	0.329	Go_X	0.0
575.265	0.2	stopsuccess	0.0	Go_X	1.0
577.789	1.0	go	0.379	Go_O	0.0
580.313	1.0	go	0.323	Go_O	0.0
582.838	1.0	go	0.786	Go_X	0.0
585.362	1.0	go	0.345	Go_X	0.0
587.903	1.0	go	0.182	Go_O	0.0
590.427	0.25	stopfail	0.382	Go_O	0.0
592.951	1.0	go	0.351	Go_X	0.0
595.475	1.0	go	0.361	Go_O	0.0
597.999	1.0	go	0.467	Go_O	0.0
600.523	1.0	go	0.31	Go_X	0.0
603.048	1.0	go	0.625	Go_X	0.0
605.572	1.0	go	0.367	Go_O	0.0
608.096	0.2	stopsuccess	0.0	Go_X	1.0
610.62	1.0	go	0.559	Go_X	0.0
613.144	1.0	go	0.299	Go_O	0.0
615.668	0.25	stopfail	0.281	Go_O	0.0
618.193	1.0	go	0.305	Go_X	0.0
620.717	0.2	stopsuccess	0.0	Go_X	1.0
623.241	0.25	stopfail	0.363	Go_O	0.0
625.765	1.0	go	0.391	Go_O	1.0
628.289	1.0	go	0.436	Go_X	0.0
630.813	1.0	go	0.263	Go_O	0.0
633.337	1.0	go	0.463	Go_X	0.0
635.862	0.2	stopsuccess	0.0	Go_X	1.0
638.386	1.0	go	0.344	Go_O	0.0
640.91	0.25	stopsuccess	0.0	Go_O	1.0
643.434	1.0	go	0.428	Go_X	0.0
645.958	1.0	go	0.432	Go_O	0.0
648.482	1.0	go	0.553	Go_O	0.0
651.007	1.0	go	0.556	Go_X	0.0
653.531	1.0	go	0.43	Go_O	0.0
656.055	1.0	go	0.343	Go_X	0.0
658.579	1.0	go	0.359	Go_X	0.0
661.103	1.0	go	0.407	Go_O	0.0
663.627	1.0	go	0.265	Go_O	0.0
666.152	0.3	stopfail	0.366	Go_X	0.0
668.676	1.0	go	0.342	Go_X	0.0
671.2	1.0	go	0.364	Go_X	1.0
673.724	1.0	go	0.454	Go_O	0.0
676.248	0.25	stopsuccess	0.0	Go_O	1.0
678.772	1.0	go	0.308	Go_O	0.0
681.297	1.0	go	0.342	Go_X	1.0
683.821	1.0	go	0.424	Go_O	0.0
686.345	1.0	go	0.597	Go_X	0.0
688.869	1.0	go	0.396	Go_O	0.0
691.393	1.0	go	0.407	Go_X	0.0
693.917	0.3	stopfail	0.499	Go_X	0.0
696.442	1.0	go	0.217	Go_O	0.0
698.966	1.0	go	0.433	Go_X	0.0
701.49	0.25	stopfail	0.273	Go_O	0.0
704.014	1.0	go	0.522	Go_O	0.0
706.538	1.0	go	0.483	Go_X	0.0
709.062	0.2	stopsuccess	0.0	Go_X	1.0
711.586	1.0	go	0.678	Go_O	0.0
714.111	0.25	stopfail	0.32	Go_O	0.0
716.635	1.0	go	0.362	Go_X	0.0
719.159	1.0	go	0.46	Go_X	0.0
721.683	1.0	go	0.273	Go_O	0.0
724.207	1.0	go	0.473	Go_X	0.0
726.731	1.0	go	0.369	Go_O	0.0
729.256	0.2	stopsuccess	0.0	Go_X	1.0
731.78	0.25	stopfail	0.357	Go_O	0.0
734.304	1.0	go	0.43	Go_X	0.0
736.828	1.0	go	0.379	Go_O	0.0
739.352	0.2	stopsuccess	0.0	Go_X	1.0
741.879	1.0	go	0.337	Go_X	0.0
744.401	1.0	go	0.361	Go_O	0.0
746.925	1.0	go	0.579	Go_X	0.0
749.449	1.0	go	0.348	Go_O	0.0
751.973	1.0	go	0.575	Go_X	0.0
754.497	1.0	go	0.296	Go_O	0.0
757.021	0.25	stopfail	0.428	Go_O	0.0
759.546	1.0	go	0.374	Go_O	0.0
762.07	1.0	go	0.349	Go_X	0.0
764.594	1.0	go	0.375	Go_X	1.0
767.118	1.0	go	0.643	Go_O	0.0
769.642	1.0	go	0.385	Go_O	0.0
772.166	0.2	stopsuccess	0.0	Go_X	1.0
774.691	1.0	go	0.398	Go_X	0.0
777.215	1.0	go	0.294	Go_O	0.0
779.739	1.0	go	0.444	Go_X	0.0
782.263	1.0	go	0.386	Go_O	0.0
784.787	0.25	stopfail	0.34	Go_O	0.0
787.311	1.0	go	0.432	Go_X	1.0
789.835	1.0	go	0.344	Go_X	1.0
792.361	0.2	stopfail	0.355	Go_X	0.0
794.901	1.0	go	0.878	Go_O	0.0
797.425	0.15	stopfail	0.279	Go_O	0.0
799.949	1.0	go	0.466	Go_X	0.0
802.473	1.0	go	0.328	Go_O	0.0
804.997	1.0	go	0.367	Go_O	0.0
807.521	1.0	go	0.42	Go_X	0.0
810.045	1.0	go	0.428	Go_O	0.0
812.57	1.0	go	0.478	Go_X	0.0
815.094	1.0	go	0.436	Go_O	0.0
817.618	0.1	stopsuccess	0.0	Go_X	1.0
820.142	1.0	go	0.44	Go_X	0.0
822.666	1.0	go	0.0	Go_O	0.0
825.19	1.0	go	0.351	Go_X	0.0
827.715	0.15	stopsuccess	0.0	Go_O	1.0
830.239	1.0	go	0.349	Go_X	0.0
832.763	1.0	go	0.565	Go_O	0.0
835.287	1.0	go	0.625	Go_O	0.0
837.811	1.0	go	0.417	Go_X	0.0
840.335	0.2	stopfail	0.174	Go_X	0.0
842.86	1.0	go	0.369	Go_O	0.0
845.384	1.0	go	0.357	Go_X	0.0
847.908	0.15	stopsuccess	0.0	Go_O	1.0
850.432	1.0	go	0.393	Go_X	0.0
852.956	1.0	go	0.372	Go_O	0.0
855.48	0.2	stopfail	0.37	Go_X	0.0
858.005	1.0	go	0.597	Go_O	0.0
860.529	1.0	go	0.365	Go_X	0.0
863.053	0.15	stopfail	0.109	Go_O	0.0
865.577	1.0	go	0.418	Go_X	0.0
868.101	1.0	go	0.466	Go_O	0.0
870.625	1.0	go	0.358	Go_O	0.0
873.15	1.0	go	0.316	Go_X	0.0
875.674	1.0	go	0.253	Go_O	0.0
878.198	1.0	go	0.302	Go_X	0.0
880.722	0.1	stopfail	0.691	Go_X	0.0
883.246	1.0	go	0.537	Go_X	0.0
885.77	0.05	stopsuccess	0.0	Go_O	1.0
888.294	1.0	go	0.732	Go_O	0.0
890.819	1.0	go	0.568	Go_X	0.0
893.343	1.0	go	0.492	Go_O	0.0
895.867	1.0	go	0.513	Go_X	0.0
898.391	1.0	go	0.504	Go_O	0.0
900.915	0.1	stopsuccess	0.0	Go_X	1.0
903.439	1.0	go	0.642	Go_X	0.0
905.964	1.0	go	0.374	Go_O	0.0
908.488	1.0	go	0.271	Go_O	0.0
911.012	0.15	stopsuccess	0.0	Go_O	1.0
913.536	0.2	stopfail	0.39	Go_X	0.0
916.06	0.15	stopsuccess	0.0	Go_O	1.0
918.584	1.0	go	0.543	Go_X	0.0
921.109	0.2	stopsuccess	0.0	Go_X	1.0
923.633	1.0	go	0.369	Go_X	0.0
926.157	1.0	go	0.401	Go_O	0.0
928.681	1.0	go	0.485	Go_X	0.0
931.205	1.0	go	0.924	Go_O	0.0
933.729	1.0	go	0.0	Go_X	0.0
936.254	1.0	go	0.325	Go_O	0.0
938.778	1.0	go	0.28	Go_O	1.0
941.302	1.0	go	0.305	Go_X	0.0
943.826	0.25	stopfail	0.271	Go_O	0.0
946.35	1.0	go	0.372	Go_O	0.0
948.874	1.0	go	0.309	Go_X	1.0
951.398	0.2	stopsuccess	0.0	Go_X	1.0
953.923	1.0	go	0.766	Go_X	1.0
956.447	1.0	go	0.473	Go_O	0.0
958.971	1.0	go	0.695	Go_X	0.0
961.495	1.0	go	0.646	Go_O	0.0
964.019	1.0	go	0.352	Go_O	0.0
966.543	0.25	stopfail	0.407	Go_O	0.0
969.068	1.0	go	0.47	Go_X	0.0
971.592	1.0	go	0.59	Go_O	0.0
974.116	1.0	go	0.0	Go_X	0.0
976.64	0.2	stopfail	0.382	Go_X	0.0
979.164	1.0	go	0.421	Go_X	0.0
981.688	0.15	stopsuccess	0.0	Go_O	1.0
984.213	1.0	go	0.718	Go_O	0.0
986.737	1.0	go	0.465	Go_X	0.0
989.261	1.0	go	0.323	Go_O	0.0
991.785	1.0	go	0.457	Go_O	0.0
994.309	1.0	go	0.494	Go_X	0.0
996.833	1.0	go	0.574	Go_X	1.0
999.358	1.0	go	0.387	Go_O	0.0
1001.882	0.2	stopsuccess	0.0	Go_X	1.0
1004.406	1.0	go	0.577	Go_X	0.0
1006.93	1.0	go	0.533	Go_O	0.0
1009.454	1.0	go	0.423	Go_O	0.0
1011.978	1.0	go	0.345	Go_X	0.0
1014.503	0.25	stopfail	0.359	Go_O	0.0
1017.027	1.0	go	0.0	Go_X	0.0
1019.551	0.2	stopsuccess	0.0	Go_X	1.0
1022.075	1.0	go	0.339	Go_O	0.0
1024.599	1.0	go	0.31	Go_X	0.0
1027.123	0.25	stopfail	0.271	Go_O	0.0
1029.647	1.0	go	0.532	Go_O	1.0
1032.172	1.0	go	0.582	Go_X	0.0
1034.696	1.0	go	0.0	Go_O	0.0
1037.22	1.0	go	0.308	Go_O	0.0
1039.744	1.0	go	0.295	Go_X	1.0
1042.268	1.0	go	0.439	Go_O	0.0
1044.792	1.0	go	0.421	Go_X	0.0
1047.317	1.0	go	0.356	Go_X	0.0
1049.841	1.0	go	0.251	Go_O	0.0
1052.365	1.0	go	0.256	Go_O	0.0
1054.889	0.2	stopfail	0.407	Go_X	0.0
1057.413	1.0	go	0.394	Go_X	0.0
1059.937	1.0	go	0.576	Go_O	0.0
1062.462	0.15	stopfail	0.409	Go_O	0.0
1064.986	1.0	go	0.0	Go_X	0.0
1067.51	0.1	stopsuccess	0.0	Go_X	1.0
1070.034	1.0	go	0.492	Go_X	0.0
1072.558	1.0	go	0.319	Go_O	0.0
1075.082	0.15	stopfail	0.346	Go_O	0.0
1077.607	1.0	go	0.435	Go_X	0.0
1080.131	0.1	stopsuccess	0.0	Go_X	1.0
1082.655	1.0	go	0.953	Go_O	0.0
1085.179	1.0	go	0.329	Go_X	0.0
1087.703	1.0	go	0.52	Go_O	0.0
1090.227	0.15	stopsuccess	0.0	Go_O	1.0
1092.752	1.0	go	0.429	Go_X	0.0
1095.276	1.0	go	0.419	Go_O	0.0
1097.8	1.0	go	0.0	Go_X	0.0
1100.324	1.0	go	0.0	Go_O	0.0
1102.848	0.2	stopfail	0.389	Go_X	0.0
1105.372	1.0	go	0.366	Go_X	0.0
1107.896	1.0	go	0.387	Go_O	0.0
1110.421	0.15	stopsuccess	0.0	Go_O	1.0
1112.945	1.0	go	0.306	Go_O	0.0
1115.469	1.0	go	0.473	Go_X	0.0
1117.993	1.0	go	0.394	Go_X	0.0
1120.517	1.0	go	0.437	Go_O	0.0
1123.041	0.2	stopfail	0.316	Go_X	0.0
1125.566	1.0	go	0.435	Go_O	0.0
1128.09	0.15	stopsuccess	0.0	Go_O	1.0
1130.614	1.0	go	0.901	Go_X	0.0
1133.138	1.0	go	0.347	Go_O	0.0
1135.662	0.2	stopfail	0.371	Go_X	0.0
1138.186	1.0	go	0.405	Go_X	0.0
1140.711	1.0	go	0.343	Go_X	0.0
1143.235	1.0	go	0.768	Go_O	0.0
1145.759	1.0	go	0.313	Go_X	0.0
1148.283	0.15	stopsuccess	0.0	Go_O	1.0
1150.807	1.0	go	0.0	Go_O	0.0
1153.331	0.2	stopsuccess	0.0	Go_X	1.0
1155.856	1.0	go	0.343	Go_O	0.0
1158.38	1.0	go	0.301	Go_X	0.0
1160.904	1.0	go	0.448	Go_O	0.0
1163.428	1.0	go	0.439	Go_X	0.0
1165.952	1.0	go	0.45	Go_X	0.0
1168.476	1.0	go	0.0	Go_O	0.0
1171.0	0.25	stopsuccess	0.0	Go_O	1.0
1173.525	1.0	go	0.348	Go_X	0.0
1176.066	1.0	go	0.282	Go_O	0.0
1178.59	0.3	stopfail	0.496	Go_X	0.0
1181.114	1.0	go	0.481	Go_X	0.0
1183.638	1.0	go	0.323	Go_O	0.0
1186.162	0.25	stopfail	0.34	Go_O	0.0
1188.686	1.0	go	0.405	Go_X	0.0
1191.211	1.0	go	0.291	Go_O	0.0
1193.735	1.0	go	0.356	Go_O	1.0
1196.259	1.0	go	0.484	Go_X	0.0
1198.783	0.2	stopfail	0.571	Go_X	0.0
1201.307	1.0	go	0.446	Go_O	0.0
1203.831	0.15	stopsuccess	0.0	Go_O	1.0
1206.355	1.0	go	0.405	Go_X	0.0
1208.88	1.0	go	0.564	Go_X	0.0
1211.404	1.0	go	0.0	Go_O	0.0
1213.928	1.0	go	0.0	Go_X	0.0
1216.452	1.0	go	0.0	Go_O	0.0
1218.976	0.2	stopfail	0.268	Go_X	0.0
1221.5	1.0	go	0.377	Go_X	0.0
1224.025	1.0	go	0.362	Go_O	0.0
1226.549	0.15	stopsuccess	0.0	Go_O	1.0
1229.073	0.2	stopsuccess	0.0	Go_X	1.0
1231.597	1.0	go	0.444	Go_X	0.0
1234.121	1.0	go	0.349	Go_O	0.0
1236.645	1.0	go	0.427	Go_X	0.0
1239.17	1.0	go	0.31	Go_O	0.0
1241.694	0.25	stopsuccess	0.0	Go_O	1.0
1244.218	1.0	go	0.0	Go_X	0.0
