onset	duration	trial_type	response_time	stim_file	accuracy
68.926	1.0	go	0.0	Go_X	0.0
71.45	1.0	go	0.507	Go_O	1.0
73.975	1.0	go	0.368	Go_O	1.0
76.499	1.0	go	0.268	Go_X	1.0
79.023	1.0	go	0.196	Go_O	1.0
81.547	1.0	go	0.221	Go_X	1.0
84.071	0.25	stop	0.25	Go_O	0.0
86.595	1.0	go	0.236	Go_X	1.0
89.12	0.2	stop	0.438	Go_X	0.0
91.644	1.0	go	0.365	Go_O	1.0
94.168	1.0	go	0.333	Go_X	1.0
96.692	1.0	go	0.262	Go_O	1.0
99.216	0.15	stop	0.0	Go_O	1.0
101.741	1.0	go	0.371	Go_O	1.0
104.265	1.0	go	0.46	Go_X	1.0
106.789	0.2	stop	0.493	Go_X	0.0
109.313	0.15	stop	0.0	Go_O	1.0
111.837	1.0	go	0.699	Go_X	1.0
114.361	1.0	go	0.578	Go_O	1.0
116.886	0.2	stop	0.0	Go_X	1.0
119.41	1.0	go	0.385	Go_O	1.0
121.934	1.0	go	0.311	Go_X	1.0
124.458	0.25	stop	0.0	Go_O	1.0
126.982	1.0	go	0.439	Go_X	1.0
129.507	1.0	go	0.513	Go_O	1.0
132.031	0.3	stop	0.347	Go_X	0.0
134.555	1.0	go	0.447	Go_X	1.0
137.079	1.0	go	0.46	Go_O	1.0
139.603	0.25	stop	0.0	Go_O	1.0
142.127	1.0	go	0.497	Go_X	1.0
144.652	1.0	go	0.35	Go_O	1.0
147.176	1.0	go	0.844	Go_X	1.0
149.7	1.0	go	0.257	Go_O	1.0
152.224	1.0	go	0.543	Go_O	1.0
154.748	0.3	stop	0.405	Go_X	0.0
157.273	1.0	go	0.433	Go_X	1.0
159.797	1.0	go	0.465	Go_O	1.0
162.321	1.0	go	0.54	Go_X	1.0
164.845	1.0	go	0.486	Go_O	1.0
167.369	1.0	go	0.454	Go_X	1.0
169.893	0.25	stop	0.0	Go_O	1.0
172.418	1.0	go	0.35	Go_O	1.0
174.942	1.0	go	0.239	Go_X	1.0
177.466	1.0	go	0.267	Go_O	1.0
179.99	1.0	go	0.382	Go_X	1.0
182.514	1.0	go	0.252	Go_O	1.0
185.039	1.0	go	0.387	Go_X	1.0
187.563	0.3	stop	0.0	Go_X	1.0
190.087	1.0	go	0.455	Go_O	1.0
192.611	1.0	go	0.557	Go_X	1.0
195.135	0.35	stop	0.472	Go_O	0.0
197.659	1.0	go	0.467	Go_X	1.0
200.184	0.3	stop	0.0	Go_X	1.0
202.708	0.35	stop	0.412	Go_O	0.0
205.232	1.0	go	0.61	Go_O	1.0
207.756	1.0	go	0.441	Go_O	1.0
210.28	1.0	go	0.408	Go_X	1.0
212.805	1.0	go	0.474	Go_O	1.0
215.329	0.3	stop	0.637	Go_X	0.0
217.853	1.0	go	0.531	Go_X	1.0
220.377	0.25	stop	0.593	Go_O	0.0
222.901	1.0	go	0.486	Go_O	1.0
225.425	1.0	go	0.496	Go_X	1.0
227.95	1.0	go	0.594	Go_X	1.0
230.474	1.0	go	0.723	Go_O	1.0
232.998	1.0	go	0.454	Go_O	1.0
235.522	1.0	go	0.292	Go_X	1.0
238.046	1.0	go	0.503	Go_X	1.0
240.571	1.0	go	0.369	Go_O	1.0
243.095	1.0	go	0.328	Go_O	1.0
245.619	0.2	stop	0.0	Go_X	1.0
248.143	1.0	go	0.393	Go_X	1.0
250.667	1.0	go	0.305	Go_O	1.0
253.191	1.0	go	0.405	Go_X	1.0
255.716	0.25	stop	0.365	Go_O	0.0
258.24	1.0	go	0.368	Go_X	0.0
260.764	1.0	go	0.528	Go_O	1.0
263.288	1.0	go	0.423	Go_O	1.0
265.812	1.0	go	0.527	Go_X	1.0
268.337	1.0	go	0.702	Go_O	1.0
270.861	1.0	go	0.751	Go_X	1.0
273.385	0.2	stop	0.422	Go_X	0.0
275.909	1.0	go	0.584	Go_O	1.0
278.433	1.0	go	0.661	Go_X	1.0
280.957	0.15	stop	0.0	Go_O	1.0
283.482	1.0	go	0.368	Go_O	1.0
286.006	1.0	go	0.64	Go_X	1.0
288.53	0.2	stop	0.0	Go_X	1.0
291.054	1.0	go	0.679	Go_O	1.0
293.578	0.25	stop	0.0	Go_O	1.0
296.103	1.0	go	0.375	Go_X	1.0
298.627	1.0	go	0.426	Go_X	1.0
301.151	1.0	go	0.571	Go_O	1.0
303.675	1.0	go	0.488	Go_X	1.0
306.199	1.0	go	0.545	Go_O	1.0
308.724	0.3	stop	0.0	Go_X	1.0
311.248	0.35	stop	0.453	Go_O	0.0
313.772	1.0	go	0.549	Go_X	1.0
316.296	1.0	go	0.582	Go_O	1.0
318.82	0.3	stop	0.0	Go_X	1.0
321.344	1.0	go	0.496	Go_O	1.0
323.869	1.0	go	0.748	Go_X	0.0
326.393	1.0	go	0.582	Go_X	1.0
328.917	1.0	go	0.524	Go_O	1.0
331.441	1.0	go	0.281	Go_X	1.0
333.965	1.0	go	0.575	Go_O	1.0
336.49	0.35	stop	0.0	Go_O	1.0
339.014	1.0	go	0.602	Go_X	1.0
341.538	1.0	go	0.799	Go_O	1.0
344.062	1.0	go	0.528	Go_X	1.0
346.586	1.0	go	0.565	Go_O	1.0
349.11	1.0	go	0.74	Go_X	1.0
351.635	0.4	stop	0.444	Go_X	0.0
354.159	1.0	go	0.401	Go_O	1.0
356.683	1.0	go	0.488	Go_X	1.0
359.207	1.0	go	0.423	Go_O	1.0
361.731	1.0	go	0.639	Go_O	1.0
364.256	0.35	stop	0.551	Go_O	0.0
366.78	1.0	go	0.829	Go_X	1.0
369.304	1.0	go	0.398	Go_O	1.0
371.828	0.3	stop	0.0	Go_X	1.0
374.352	1.0	go	0.522	Go_X	1.0
376.876	0.35	stop	0.563	Go_O	0.0
379.401	1.0	go	0.424	Go_O	1.0
381.925	1.0	go	0.429	Go_X	1.0
384.449	1.0	go	0.539	Go_X	1.0
386.973	1.0	go	0.534	Go_O	1.0
389.497	1.0	go	0.476	Go_O	1.0
392.022	1.0	go	0.39	Go_X	1.0
394.546	1.0	go	0.47	Go_X	1.0
397.07	0.3	stop	0.516	Go_X	0.0
399.594	1.0	go	0.486	Go_O	1.0
402.118	1.0	go	0.622	Go_X	1.0
404.642	1.0	go	0.477	Go_O	1.0
407.167	0.25	stop	0.0	Go_O	1.0
409.707	1.0	go	0.506	Go_X	1.0
412.232	1.0	go	0.446	Go_O	1.0
414.756	1.0	go	0.369	Go_X	1.0
417.28	1.0	go	0.464	Go_O	1.0
419.804	0.3	stop	0.315	Go_X	0.0
422.328	1.0	go	0.486	Go_X	1.0
424.853	1.0	go	0.311	Go_O	1.0
427.377	0.25	stop	0.0	Go_O	1.0
429.901	1.0	go	0.363	Go_X	0.0
432.425	1.0	go	0.492	Go_O	1.0
434.949	0.3	stop	0.0	Go_X	1.0
437.474	1.0	go	0.655	Go_O	1.0
439.998	1.0	go	0.546	Go_X	1.0
442.522	0.35	stop	0.0	Go_O	1.0
445.046	1.0	go	0.6	Go_X	1.0
447.57	1.0	go	0.658	Go_O	1.0
450.094	1.0	go	0.479	Go_O	1.0
452.619	1.0	go	0.532	Go_X	1.0
455.143	1.0	go	0.996	Go_O	1.0
457.667	1.0	go	0.523	Go_X	1.0
460.191	0.4	stop	0.544	Go_X	0.0
462.715	1.0	go	0.599	Go_O	1.0
465.24	0.35	stop	0.501	Go_O	0.0
467.764	1.0	go	0.986	Go_X	1.0
470.288	1.0	go	0.51	Go_X	0.0
472.812	1.0	go	0.444	Go_O	1.0
475.336	1.0	go	0.5	Go_X	1.0
477.86	1.0	go	0.711	Go_O	1.0
480.385	0.3	stop	0.621	Go_X	0.0
482.909	1.0	go	0.474	Go_X	1.0
485.433	1.0	go	0.367	Go_O	1.0
487.957	1.0	go	0.712	Go_X	1.0
490.481	0.25	stop	0.0	Go_O	1.0
493.006	0.3	stop	0.0	Go_X	1.0
495.546	0.35	stop	0.526	Go_O	0.0
498.071	1.0	go	0.476	Go_O	1.0
500.595	0.3	stop	0.0	Go_X	1.0
503.119	1.0	go	0.464	Go_X	1.0
505.643	1.0	go	0.566	Go_O	1.0
508.167	1.0	go	0.467	Go_X	1.0
510.692	1.0	go	0.485	Go_O	1.0
513.216	1.0	go	0.606	Go_O	1.0
515.74	1.0	go	0.528	Go_X	1.0
518.264	1.0	go	0.577	Go_O	1.0
520.788	1.0	go	0.59	Go_X	1.0
523.312	0.35	stop	0.0	Go_O	1.0
525.837	1.0	go	0.384	Go_O	1.0
528.361	1.0	go	0.499	Go_X	1.0
530.885	0.4	stop	0.55	Go_X	0.0
533.409	1.0	go	0.615	Go_O	1.0
535.933	1.0	go	0.565	Go_X	1.0
538.458	1.0	go	0.452	Go_X	1.0
540.982	1.0	go	0.0	Go_O	0.0
543.506	1.0	go	0.424	Go_X	1.0
546.03	0.35	stop	0.597	Go_O	0.0
548.554	1.0	go	0.464	Go_O	1.0
551.078	1.0	go	0.592	Go_O	1.0
553.603	1.0	go	0.523	Go_X	1.0
556.127	0.3	stop	0.397	Go_X	0.0
558.651	1.0	go	0.513	Go_O	1.0
561.175	0.25	stop	0.0	Go_O	1.0
563.699	1.0	go	0.578	Go_X	1.0
566.224	1.0	go	0.555	Go_O	1.0
568.748	1.0	go	0.687	Go_X	1.0
571.272	1.0	go	0.481	Go_O	1.0
573.796	1.0	go	0.512	Go_X	1.0
576.32	1.0	go	0.671	Go_O	1.0
578.844	1.0	go	0.742	Go_X	1.0
581.369	0.3	stop	0.0	Go_X	1.0
583.893	1.0	go	0.687	Go_O	1.0
586.417	1.0	go	0.713	Go_X	1.0
588.941	1.0	go	0.86	Go_O	1.0
591.465	1.0	go	0.549	Go_X	1.0
593.99	0.35	stop	0.41	Go_O	0.0
596.53	1.0	go	0.533	Go_X	1.0
599.055	0.3	stop	0.0	Go_X	1.0
601.579	1.0	go	0.642	Go_O	1.0
604.103	1.0	go	0.533	Go_X	1.0
606.627	0.35	stop	0.46	Go_O	0.0
609.151	1.0	go	0.472	Go_O	1.0
611.676	1.0	go	0.54	Go_X	1.0
614.2	1.0	go	0.574	Go_O	1.0
616.724	1.0	go	0.343	Go_X	1.0
619.248	1.0	go	0.0	Go_O	0.0
621.772	1.0	go	0.302	Go_O	1.0
624.296	1.0	go	0.409	Go_X	1.0
626.821	1.0	go	0.458	Go_X	1.0
629.345	1.0	go	0.372	Go_O	1.0
631.869	1.0	go	0.568	Go_X	1.0
634.393	0.3	stop	0.466	Go_X	0.0
636.917	1.0	go	0.663	Go_O	1.0
639.442	1.0	go	0.369	Go_O	1.0
641.966	0.25	stop	0.439	Go_O	0.0
644.49	1.0	go	0.64	Go_X	0.0
647.014	0.2	stop	0.0	Go_X	1.0
649.538	1.0	go	0.496	Go_X	1.0
652.062	1.0	go	0.611	Go_O	1.0
654.587	0.25	stop	0.0	Go_O	1.0
657.128	1.0	go	0.544	Go_O	1.0
659.652	0.3	stop	0.423	Go_X	0.0
662.176	1.0	go	0.52	Go_X	1.0
664.7	1.0	go	0.657	Go_X	1.0
667.224	1.0	go	0.553	Go_O	1.0
669.748	0.25	stop	0.0	Go_O	1.0
672.273	1.0	go	0.327	Go_X	1.0
674.797	1.0	go	0.742	Go_O	1.0
677.321	1.0	go	0.605	Go_X	1.0
679.845	1.0	go	0.417	Go_O	1.0
682.369	0.3	stop	0.475	Go_X	0.0
684.894	1.0	go	0.379	Go_O	1.0
687.418	1.0	go	0.278	Go_X	1.0
689.942	0.25	stop	0.0	Go_O	1.0
692.466	1.0	go	0.683	Go_X	0.0
694.99	1.0	go	0.82	Go_O	1.0
697.514	1.0	go	0.746	Go_X	1.0
700.039	1.0	go	0.418	Go_O	1.0
702.563	0.3	stop	0.399	Go_X	0.0
705.087	1.0	go	0.642	Go_X	1.0
707.611	0.25	stop	0.0	Go_O	1.0
710.135	1.0	go	0.416	Go_O	1.0
712.66	1.0	go	0.476	Go_O	1.0
715.184	0.3	stop	0.0	Go_X	1.0
717.708	1.0	go	0.519	Go_X	1.0
720.232	1.0	go	0.468	Go_O	1.0
722.756	1.0	go	0.554	Go_X	1.0
725.28	1.0	go	0.36	Go_X	1.0
727.805	0.35	stop	0.0	Go_O	1.0
730.329	1.0	go	0.643	Go_O	1.0
732.853	0.4	stop	0.708	Go_X	0.0
735.377	1.0	go	0.879	Go_O	1.0
737.901	1.0	go	0.655	Go_X	0.0
740.426	1.0	go	0.496	Go_O	1.0
742.95	1.0	go	0.744	Go_X	1.0
745.474	1.0	go	0.621	Go_X	1.0
747.998	1.0	go	0.601	Go_O	1.0
750.522	0.35	stop	0.547	Go_O	0.0
753.046	1.0	go	0.547	Go_X	1.0
755.571	1.0	go	0.515	Go_O	1.0
758.095	0.3	stop	0.0	Go_X	1.0
760.619	1.0	go	0.562	Go_O	1.0
763.143	1.0	go	0.326	Go_X	1.0
765.667	0.35	stop	0.0	Go_O	1.0
768.192	1.0	go	0.592	Go_X	1.0
770.716	1.0	go	0.0	Go_O	0.0
773.24	1.0	go	0.424	Go_X	1.0
775.764	1.0	go	0.36	Go_O	1.0
778.288	0.4	stop	0.33	Go_X	0.0
780.813	1.0	go	0.296	Go_O	1.0
783.337	0.35	stop	0.383	Go_O	0.0
785.861	1.0	go	0.679	Go_X	1.0
788.385	1.0	go	0.425	Go_X	1.0
790.909	1.0	go	0.442	Go_O	1.0
793.433	1.0	go	0.193	Go_X	1.0
795.958	1.0	go	0.277	Go_O	1.0
798.482	0.3	stop	0.417	Go_X	0.0
801.006	1.0	go	0.487	Go_X	1.0
803.53	1.0	go	0.38	Go_O	1.0
806.054	0.25	stop	0.0	Go_O	1.0
808.578	0.3	stop	0.482	Go_X	0.0
811.103	1.0	go	0.589	Go_O	1.0
813.627	1.0	go	0.524	Go_X	1.0
816.151	1.0	go	0.787	Go_O	1.0
818.675	1.0	go	0.416	Go_X	1.0
821.199	0.25	stop	0.0	Go_O	1.0
823.724	1.0	go	0.536	Go_X	1.0
