onset	duration	trial_type	response_time	stim_file	accuracy
0.5289999999999964	1.0	go	0.0	Go_X	0.0
3.0529999999999973	1.0	go	0.507	Go_O	1.0
5.577999999999989	1.0	go	0.368	Go_O	1.0
8.10199999999999	1.0	go	0.268	Go_X	1.0
10.62599999999999	1.0	go	0.196	Go_O	1.0
13.149999999999991	1.0	go	0.221	Go_X	1.0
15.673999999999992	0.25	stopfail	0.25	Go_O	0.0
18.197999999999993	1.0	go	0.236	Go_X	1.0
20.723	0.2	stopfail	0.438	Go_X	0.0
23.247	1.0	go	0.365	Go_O	1.0
25.771	1.0	go	0.333	Go_X	1.0
28.294999999999987	1.0	go	0.262	Go_O	1.0
30.81899999999999	0.15	stopsuccess	0.0	Go_O	1.0
33.343999999999994	1.0	go	0.371	Go_O	1.0
35.867999999999995	1.0	go	0.46	Go_X	1.0
38.391999999999996	0.2	stopfail	0.493	Go_X	0.0
40.916	0.15	stopsuccess	0.0	Go_O	1.0
43.44	1.0	go	0.699	Go_X	1.0
45.964	1.0	go	0.578	Go_O	1.0
48.48899999999999	0.2	stopsuccess	0.0	Go_X	1.0
51.01299999999999	1.0	go	0.385	Go_O	1.0
53.53699999999999	1.0	go	0.311	Go_X	1.0
56.06099999999999	0.25	stopsuccess	0.0	Go_O	1.0
58.584999999999994	1.0	go	0.439	Go_X	1.0
61.11	1.0	go	0.513	Go_O	1.0
63.634	0.3	stopfail	0.347	Go_X	0.0
66.158	1.0	go	0.447	Go_X	1.0
68.682	1.0	go	0.46	Go_O	1.0
71.206	0.25	stopsuccess	0.0	Go_O	1.0
73.73	1.0	go	0.497	Go_X	1.0
76.25499999999998	1.0	go	0.35	Go_O	1.0
78.77899999999998	1.0	go	0.844	Go_X	1.0
81.30299999999998	1.0	go	0.257	Go_O	1.0
83.82699999999998	1.0	go	0.543	Go_O	1.0
86.35099999999998	0.3	stopfail	0.405	Go_X	0.0
88.87599999999999	1.0	go	0.433	Go_X	1.0
91.39999999999999	1.0	go	0.465	Go_O	1.0
93.92399999999999	1.0	go	0.54	Go_X	1.0
96.448	1.0	go	0.486	Go_O	1.0
98.972	1.0	go	0.454	Go_X	1.0
101.496	0.25	stopsuccess	0.0	Go_O	1.0
104.021	1.0	go	0.35	Go_O	1.0
106.545	1.0	go	0.239	Go_X	1.0
109.069	1.0	go	0.267	Go_O	1.0
111.593	1.0	go	0.382	Go_X	1.0
114.117	1.0	go	0.252	Go_O	1.0
116.64199999999998	1.0	go	0.387	Go_X	1.0
119.16599999999998	0.3	stopsuccess	0.0	Go_X	1.0
121.68999999999998	1.0	go	0.455	Go_O	1.0
124.21399999999998	1.0	go	0.557	Go_X	1.0
126.73799999999999	0.35	stopfail	0.472	Go_O	0.0
129.262	1.0	go	0.467	Go_X	1.0
131.78699999999998	0.3	stopsuccess	0.0	Go_X	1.0
134.31099999999998	0.35	stopfail	0.412	Go_O	0.0
136.83499999999998	1.0	go	0.61	Go_O	1.0
139.35899999999998	1.0	go	0.441	Go_O	1.0
141.88299999999998	1.0	go	0.408	Go_X	1.0
144.40800000000002	1.0	go	0.474	Go_O	1.0
146.93200000000002	0.3	stopfail	0.637	Go_X	0.0
149.45600000000002	1.0	go	0.531	Go_X	1.0
151.98000000000002	0.25	stopfail	0.593	Go_O	0.0
154.50400000000002	1.0	go	0.486	Go_O	1.0
157.02800000000002	1.0	go	0.496	Go_X	1.0
159.553	1.0	go	0.594	Go_X	1.0
162.077	1.0	go	0.723	Go_O	1.0
164.601	1.0	go	0.454	Go_O	1.0
167.125	1.0	go	0.292	Go_X	1.0
169.649	1.0	go	0.503	Go_X	1.0
172.17399999999998	1.0	go	0.369	Go_O	1.0
174.69799999999998	1.0	go	0.328	Go_O	1.0
177.22199999999998	0.2	stopsuccess	0.0	Go_X	1.0
179.74599999999998	1.0	go	0.393	Go_X	1.0
182.26999999999998	1.0	go	0.305	Go_O	1.0
184.79399999999998	1.0	go	0.405	Go_X	1.0
187.31900000000002	0.25	stopfail	0.365	Go_O	0.0
189.84300000000002	1.0	go	0.368	Go_X	0.0
192.36700000000002	1.0	go	0.528	Go_O	1.0
194.89100000000002	1.0	go	0.423	Go_O	1.0
197.41500000000002	1.0	go	0.527	Go_X	1.0
199.94	1.0	go	0.702	Go_O	1.0
202.464	1.0	go	0.751	Go_X	1.0
204.988	0.2	stopfail	0.422	Go_X	0.0
207.512	1.0	go	0.584	Go_O	1.0
210.036	1.0	go	0.661	Go_X	1.0
212.56	0.15	stopsuccess	0.0	Go_O	1.0
215.08500000000004	1.0	go	0.368	Go_O	1.0
217.60899999999998	1.0	go	0.64	Go_X	1.0
220.13299999999998	0.2	stopsuccess	0.0	Go_X	1.0
222.65699999999998	1.0	go	0.679	Go_O	1.0
225.18099999999998	0.25	stopsuccess	0.0	Go_O	1.0
227.70600000000002	1.0	go	0.375	Go_X	1.0
230.23000000000002	1.0	go	0.426	Go_X	1.0
232.75400000000002	1.0	go	0.571	Go_O	1.0
235.27800000000002	1.0	go	0.488	Go_X	1.0
237.80200000000002	1.0	go	0.545	Go_O	1.0
240.327	0.3	stopsuccess	0.0	Go_X	1.0
242.851	0.35	stopfail	0.453	Go_O	0.0
245.375	1.0	go	0.549	Go_X	1.0
247.899	1.0	go	0.582	Go_O	1.0
250.423	0.3	stopsuccess	0.0	Go_X	1.0
252.947	1.0	go	0.496	Go_O	1.0
255.47200000000004	1.0	go	0.748	Go_X	0.0
257.996	1.0	go	0.582	Go_X	1.0
260.52	1.0	go	0.524	Go_O	1.0
263.044	1.0	go	0.281	Go_X	1.0
265.568	1.0	go	0.575	Go_O	1.0
268.093	0.35	stopsuccess	0.0	Go_O	1.0
270.617	1.0	go	0.602	Go_X	1.0
273.141	1.0	go	0.799	Go_O	1.0
275.665	1.0	go	0.528	Go_X	1.0
278.189	1.0	go	0.565	Go_O	1.0
280.713	1.0	go	0.74	Go_X	1.0
283.238	0.4	stopfail	0.444	Go_X	0.0
285.762	1.0	go	0.401	Go_O	1.0
288.286	1.0	go	0.488	Go_X	1.0
290.81	1.0	go	0.423	Go_O	1.0
293.334	1.0	go	0.639	Go_O	1.0
295.859	0.35	stopfail	0.551	Go_O	0.0
298.383	1.0	go	0.829	Go_X	1.0
300.907	1.0	go	0.398	Go_O	1.0
303.431	0.3	stopsuccess	0.0	Go_X	1.0
305.955	1.0	go	0.522	Go_X	1.0
308.479	0.35	stopfail	0.563	Go_O	0.0
311.004	1.0	go	0.424	Go_O	1.0
313.528	1.0	go	0.429	Go_X	1.0
316.052	1.0	go	0.539	Go_X	1.0
318.576	1.0	go	0.534	Go_O	1.0
321.1	1.0	go	0.476	Go_O	1.0
323.625	1.0	go	0.39	Go_X	1.0
326.149	1.0	go	0.47	Go_X	1.0
328.673	0.3	stopfail	0.516	Go_X	0.0
331.197	1.0	go	0.486	Go_O	1.0
333.721	1.0	go	0.622	Go_X	1.0
336.245	1.0	go	0.477	Go_O	1.0
338.77	0.25	stopsuccess	0.0	Go_O	1.0
341.31	1.0	go	0.506	Go_X	1.0
343.83500000000004	1.0	go	0.446	Go_O	1.0
346.359	1.0	go	0.369	Go_X	1.0
348.883	1.0	go	0.464	Go_O	1.0
351.407	0.3	stopfail	0.315	Go_X	0.0
353.931	1.0	go	0.486	Go_X	1.0
356.456	1.0	go	0.311	Go_O	1.0
358.98	0.25	stopsuccess	0.0	Go_O	1.0
361.504	1.0	go	0.363	Go_X	0.0
364.028	1.0	go	0.492	Go_O	1.0
366.552	0.3	stopsuccess	0.0	Go_X	1.0
369.077	1.0	go	0.655	Go_O	1.0
371.601	1.0	go	0.546	Go_X	1.0
374.125	0.35	stopsuccess	0.0	Go_O	1.0
376.649	1.0	go	0.6	Go_X	1.0
379.173	1.0	go	0.658	Go_O	1.0
381.697	1.0	go	0.479	Go_O	1.0
384.22200000000004	1.0	go	0.532	Go_X	1.0
386.746	1.0	go	0.996	Go_O	1.0
389.27	1.0	go	0.523	Go_X	1.0
391.794	0.4	stopfail	0.544	Go_X	0.0
394.318	1.0	go	0.599	Go_O	1.0
396.843	0.35	stopfail	0.501	Go_O	0.0
399.367	1.0	go	0.986	Go_X	1.0
401.891	1.0	go	0.51	Go_X	0.0
404.415	1.0	go	0.444	Go_O	1.0
406.939	1.0	go	0.5	Go_X	1.0
409.463	1.0	go	0.711	Go_O	1.0
411.988	0.3	stopfail	0.621	Go_X	0.0
414.512	1.0	go	0.474	Go_X	1.0
417.036	1.0	go	0.367	Go_O	1.0
419.56	1.0	go	0.712	Go_X	1.0
422.084	0.25	stopsuccess	0.0	Go_O	1.0
424.609	0.3	stopsuccess	0.0	Go_X	1.0
427.149	0.35	stopfail	0.526	Go_O	0.0
429.67400000000004	1.0	go	0.476	Go_O	1.0
432.19800000000004	0.3	stopsuccess	0.0	Go_X	1.0
434.72200000000004	1.0	go	0.464	Go_X	1.0
437.246	1.0	go	0.566	Go_O	1.0
439.77	1.0	go	0.467	Go_X	1.0
442.295	1.0	go	0.485	Go_O	1.0
444.819	1.0	go	0.606	Go_O	1.0
447.343	1.0	go	0.528	Go_X	1.0
449.867	1.0	go	0.577	Go_O	1.0
452.391	1.0	go	0.59	Go_X	1.0
454.915	0.35	stopsuccess	0.0	Go_O	1.0
457.44	1.0	go	0.384	Go_O	1.0
459.964	1.0	go	0.499	Go_X	1.0
462.488	0.4	stopfail	0.55	Go_X	0.0
465.012	1.0	go	0.615	Go_O	1.0
467.536	1.0	go	0.565	Go_X	1.0
470.061	1.0	go	0.452	Go_X	1.0
472.585	1.0	go	0.0	Go_O	0.0
475.109	1.0	go	0.424	Go_X	1.0
477.633	0.35	stopfail	0.597	Go_O	0.0
480.157	1.0	go	0.464	Go_O	1.0
482.681	1.0	go	0.592	Go_O	1.0
485.20599999999996	1.0	go	0.523	Go_X	1.0
487.72999999999996	0.3	stopfail	0.397	Go_X	0.0
490.25399999999996	1.0	go	0.513	Go_O	1.0
492.77799999999996	0.25	stopsuccess	0.0	Go_O	1.0
495.30199999999996	1.0	go	0.578	Go_X	1.0
497.82700000000006	1.0	go	0.555	Go_O	1.0
500.35100000000006	1.0	go	0.687	Go_X	1.0
502.87500000000006	1.0	go	0.481	Go_O	1.0
505.39900000000006	1.0	go	0.512	Go_X	1.0
507.92300000000006	1.0	go	0.671	Go_O	1.0
510.44700000000006	1.0	go	0.742	Go_X	1.0
512.972	0.3	stopsuccess	0.0	Go_X	1.0
515.496	1.0	go	0.687	Go_O	1.0
518.02	1.0	go	0.713	Go_X	1.0
520.544	1.0	go	0.86	Go_O	1.0
523.068	1.0	go	0.549	Go_X	1.0
525.593	0.35	stopfail	0.41	Go_O	0.0
528.1329999999999	1.0	go	0.533	Go_X	1.0
530.6579999999999	0.3	stopsuccess	0.0	Go_X	1.0
533.1819999999999	1.0	go	0.642	Go_O	1.0
535.7059999999999	1.0	go	0.533	Go_X	1.0
538.2299999999999	0.35	stopfail	0.46	Go_O	0.0
540.7539999999999	1.0	go	0.472	Go_O	1.0
543.279	1.0	go	0.54	Go_X	1.0
545.803	1.0	go	0.574	Go_O	1.0
548.327	1.0	go	0.343	Go_X	1.0
550.851	1.0	go	0.0	Go_O	0.0
553.375	1.0	go	0.302	Go_O	1.0
555.899	1.0	go	0.409	Go_X	1.0
558.424	1.0	go	0.458	Go_X	1.0
560.948	1.0	go	0.372	Go_O	1.0
563.472	1.0	go	0.568	Go_X	1.0
565.996	0.3	stopfail	0.466	Go_X	0.0
568.52	1.0	go	0.663	Go_O	1.0
571.045	1.0	go	0.369	Go_O	1.0
573.569	0.25	stopfail	0.439	Go_O	0.0
576.093	1.0	go	0.64	Go_X	0.0
578.617	0.2	stopsuccess	0.0	Go_X	1.0
581.141	1.0	go	0.496	Go_X	1.0
583.665	1.0	go	0.611	Go_O	1.0
586.1899999999999	0.25	stopsuccess	0.0	Go_O	1.0
588.731	1.0	go	0.544	Go_O	1.0
591.255	0.3	stopfail	0.423	Go_X	0.0
593.779	1.0	go	0.52	Go_X	1.0
596.303	1.0	go	0.657	Go_X	1.0
598.827	1.0	go	0.553	Go_O	1.0
601.351	0.25	stopsuccess	0.0	Go_O	1.0
603.876	1.0	go	0.327	Go_X	1.0
606.4	1.0	go	0.742	Go_O	1.0
608.924	1.0	go	0.605	Go_X	1.0
611.448	1.0	go	0.417	Go_O	1.0
613.972	0.3	stopfail	0.475	Go_X	0.0
616.497	1.0	go	0.379	Go_O	1.0
619.021	1.0	go	0.278	Go_X	1.0
621.545	0.25	stopsuccess	0.0	Go_O	1.0
624.069	1.0	go	0.683	Go_X	0.0
626.593	1.0	go	0.82	Go_O	1.0
629.117	1.0	go	0.746	Go_X	1.0
631.6419999999999	1.0	go	0.418	Go_O	1.0
634.1659999999999	0.3	stopfail	0.399	Go_X	0.0
636.6899999999999	1.0	go	0.642	Go_X	1.0
639.2139999999999	0.25	stopsuccess	0.0	Go_O	1.0
641.7379999999999	1.0	go	0.416	Go_O	1.0
644.2629999999999	1.0	go	0.476	Go_O	1.0
646.7869999999999	0.3	stopsuccess	0.0	Go_X	1.0
649.3109999999999	1.0	go	0.519	Go_X	1.0
651.8349999999999	1.0	go	0.468	Go_O	1.0
654.3589999999999	1.0	go	0.554	Go_X	1.0
656.8829999999999	1.0	go	0.36	Go_X	1.0
659.4079999999999	0.35	stopsuccess	0.0	Go_O	1.0
661.9319999999999	1.0	go	0.643	Go_O	1.0
664.4559999999999	0.4	stopfail	0.708	Go_X	0.0
666.9799999999999	1.0	go	0.879	Go_O	1.0
669.5039999999999	1.0	go	0.655	Go_X	0.0
672.029	1.0	go	0.496	Go_O	1.0
674.553	1.0	go	0.744	Go_X	1.0
677.077	1.0	go	0.621	Go_X	1.0
679.601	1.0	go	0.601	Go_O	1.0
682.125	0.35	stopfail	0.547	Go_O	0.0
684.649	1.0	go	0.547	Go_X	1.0
687.174	1.0	go	0.515	Go_O	1.0
689.698	0.3	stopsuccess	0.0	Go_X	1.0
692.222	1.0	go	0.562	Go_O	1.0
694.746	1.0	go	0.326	Go_X	1.0
697.27	0.35	stopsuccess	0.0	Go_O	1.0
699.795	1.0	go	0.592	Go_X	1.0
702.319	1.0	go	0.0	Go_O	0.0
704.843	1.0	go	0.424	Go_X	1.0
707.367	1.0	go	0.36	Go_O	1.0
709.891	0.4	stopfail	0.33	Go_X	0.0
712.4159999999999	1.0	go	0.296	Go_O	1.0
714.9399999999999	0.35	stopfail	0.383	Go_O	0.0
717.4639999999999	1.0	go	0.679	Go_X	1.0
719.9879999999999	1.0	go	0.425	Go_X	1.0
722.512	1.0	go	0.442	Go_O	1.0
725.036	1.0	go	0.193	Go_X	1.0
727.5609999999999	1.0	go	0.277	Go_O	1.0
730.0849999999999	0.3	stopfail	0.417	Go_X	0.0
732.6089999999999	1.0	go	0.487	Go_X	1.0
735.1329999999999	1.0	go	0.38	Go_O	1.0
737.6569999999999	0.25	stopsuccess	0.0	Go_O	1.0
740.1809999999999	0.3	stopfail	0.482	Go_X	0.0
742.7059999999999	1.0	go	0.589	Go_O	1.0
745.2299999999999	1.0	go	0.524	Go_X	1.0
747.7539999999999	1.0	go	0.787	Go_O	1.0
750.2779999999999	1.0	go	0.416	Go_X	1.0
752.8019999999999	0.25	stopsuccess	0.0	Go_O	1.0
755.327	1.0	go	0.536	Go_X	1.0
