frame	onset	duration	trial_type	event_type	response_type	response_time	stim_file	accuracy
0	128.789		control-noreward	ImageDisplay1		0.0		
0	130.772	0.75	control-noreward	StartDisplay				
0	131.522		control-noreward	ImageDisplay2		0.0		
0	134.772	1.6	control-noreward	ChoiceDisplay	1	0.812	1	1
0	135.605	0.788	control-noreward	ChosenDisplay		0.0		
0	136.372	0.25	control-noreward	TurnDisplay				
0	136.622	0.75	control-noreward	OutcomeDisplay				
1	137.372		loss-reward	ImageDisplay1		0.0		
1	139.372	0.75	loss-reward	StartDisplay				
1	140.122		loss-reward	ImageDisplay2		0.0		
1	143.372	1.6	loss-reward	ChoiceDisplay	1	0.797	1	1
1	144.188	0.803	loss-reward	ChosenDisplay		0.0		
1	144.971	0.25	loss-reward	TurnDisplay				
1	145.221	0.75	loss-reward	OutcomeDisplay				
2	145.971		control-reward	ImageDisplay1		0.0		
2	147.971	0.75	control-reward	StartDisplay				
2	148.721		control-reward	ImageDisplay2		0.0		
2	151.971	1.6	control-reward	ChoiceDisplay	1	0.932	1	1
2	152.921	0.668	control-reward	ChosenDisplay		0.0		
2	153.571	0.25	control-reward	TurnDisplay				
2	153.821	0.75	control-reward	OutcomeDisplay				
3	154.571		loss-reward	ImageDisplay1		0.0		
3	156.571	0.75	loss-reward	StartDisplay				
3	157.321		loss-reward	ImageDisplay2		0.0		
3	160.571	1.6	loss-reward	ChoiceDisplay	1	0.725	1	1
3	161.321	0.875	loss-reward	ChosenDisplay		0.0		
3	162.171	0.25	loss-reward	TurnDisplay				
3	162.421	0.75	loss-reward	OutcomeDisplay				
4	163.171		control-noreward	ImageDisplay1		0.0		
4	165.421	0.75	control-noreward	StartDisplay				
4	166.171		control-noreward	ImageDisplay2		0.0		
4	169.171	1.6	control-noreward	ChoiceDisplay	1	0.829	1	1
4	170.021	0.771	control-noreward	ChosenDisplay		0.0		
4	170.771	0.25	control-noreward	TurnDisplay				
4	171.021	0.75	control-noreward	OutcomeDisplay				
5	171.771		loss-noreward	ImageDisplay1		0.0		
5	174.021	0.75	loss-noreward	StartDisplay				
5	174.771		loss-noreward	ImageDisplay2		0.0		
5	177.771	1.6	loss-noreward	ChoiceDisplay	1	0.996	1	1
5	178.787	0.604	loss-noreward	ChosenDisplay		0.0		
5	179.371	0.25	loss-noreward	TurnDisplay				
5	179.621	0.75	loss-noreward	OutcomeDisplay				
6	180.371		control-reward	ImageDisplay1		0.0		
6	182.37	0.75	control-reward	StartDisplay				
6	183.12		control-reward	ImageDisplay2		0.0		
6	186.37	1.6	control-reward	ChoiceDisplay	1	0.762	1	1
6	187.154	0.838	control-reward	ChosenDisplay		0.0		
6	187.97	0.25	control-reward	TurnDisplay				
6	188.22	0.75	control-reward	OutcomeDisplay				
7	188.97		loss-noreward	ImageDisplay1		0.0		
7	191.22	0.75	loss-noreward	StartDisplay				
7	191.97		loss-noreward	ImageDisplay2		0.0		
7	194.97	1.6	loss-noreward	ChoiceDisplay	1	0.596	1	1
7	195.587	1.004	loss-noreward	ChosenDisplay		0.0		
7	196.57	0.25	loss-noreward	TurnDisplay				
7	196.82	0.75	loss-noreward	OutcomeDisplay				
8	197.57		loss-noreward	ImageDisplay1		0.0		
8	199.82	0.75	loss-noreward	StartDisplay				
8	200.57		loss-noreward	ImageDisplay2		0.0		
8	203.57	1.6	loss-noreward	ChoiceDisplay	1	0.972	1	1
8	204.553	0.628	loss-noreward	ChosenDisplay		0.0		
8	205.17	0.25	loss-noreward	TurnDisplay				
8	205.42	0.75	loss-noreward	OutcomeDisplay				
9	206.17		loss-reward	ImageDisplay1		0.0		
9	208.42	0.75	loss-reward	StartDisplay				
9	209.17		loss-reward	ImageDisplay2		0.0		
9	212.17	1.6	loss-reward	ChoiceDisplay	1	0.874	1	1
9	213.07	0.726	loss-reward	ChosenDisplay		0.0		
9	213.77	0.25	loss-reward	TurnDisplay				
9	214.02	0.75	loss-reward	OutcomeDisplay				
10	214.77		win-reward	ImageDisplay1		0.0		
10	217.02	0.75	win-reward	StartDisplay				
10	217.77		win-reward	ImageDisplay2		0.0		
10	220.769	1.6	win-reward	ChoiceDisplay	1	0.94	1	1
10	221.736	0.66	win-reward	ChosenDisplay		0.0		
10	222.369	0.25	win-reward	TurnDisplay				
10	222.619	0.75	win-reward	OutcomeDisplay				
11	223.369		win-noreward	ImageDisplay1		0.0		
11	225.369	0.75	win-noreward	StartDisplay				
11	226.119		win-noreward	ImageDisplay2		0.0		
11	229.369	1.6	win-noreward	ChoiceDisplay	1	1.082	1	1
11	230.469	0.518	win-noreward	ChosenDisplay		0.0		
11	230.969	0.25	win-noreward	TurnDisplay				
11	231.219	0.75	win-noreward	OutcomeDisplay				
12	231.969		loss-reward	ImageDisplay1		0.0		
12	233.969	0.75	loss-reward	StartDisplay				
12	234.719		loss-reward	ImageDisplay2		0.0		
12	237.969	1.6	loss-reward	ChoiceDisplay	1	1.048	1	1
12	239.036	0.552	loss-reward	ChosenDisplay		0.0		
12	239.569	0.25	loss-reward	TurnDisplay				
12	239.819	0.75	loss-reward	OutcomeDisplay				
13	240.569		win-reward	ImageDisplay1		0.0		
13	242.819	0.75	win-reward	StartDisplay				
13	243.569		win-reward	ImageDisplay2		0.0		
13	246.569	1.6	win-reward	ChoiceDisplay	1	1.054	1	1
13	247.635	0.546	win-reward	ChosenDisplay		0.0		
13	248.169	0.25	win-reward	TurnDisplay				
13	248.419	0.75	win-reward	OutcomeDisplay				
14	249.169		loss-reward	ImageDisplay1		0.0		
14	251.419	0.75	loss-reward	StartDisplay				
14	252.169		loss-reward	ImageDisplay2		0.0		
14	255.168	1.6	loss-reward	ChoiceDisplay	1	0.918	1	1
14	256.102	0.682	loss-reward	ChosenDisplay		0.0		
14	256.768	0.25	loss-reward	TurnDisplay				
14	257.018	0.75	loss-reward	OutcomeDisplay				
15	257.768		win-reward	ImageDisplay1		0.0		
15	259.768	0.75	win-reward	StartDisplay				
15	260.518		win-reward	ImageDisplay2		0.0		
15	263.768	1.6	win-reward	ChoiceDisplay	1	1.344	1	1
15	265.135	0.256	win-reward	ChosenDisplay		0.0		
15	265.368	0.25	win-reward	TurnDisplay				
15	265.618	0.75	win-reward	OutcomeDisplay				
16	266.368		win-noreward	ImageDisplay1		0.0		
16	268.618	0.75	win-noreward	StartDisplay				
16	269.368		win-noreward	ImageDisplay2		0.0		
16	272.368	1.6	win-noreward	ChoiceDisplay	1	1.079	1	1
16	273.468	0.521	win-noreward	ChosenDisplay		0.0		
16	273.968	0.25	win-noreward	TurnDisplay				
16	274.218	0.75	win-noreward	OutcomeDisplay				
17	274.968		loss-reward	ImageDisplay1		0.0		
17	276.968	0.75	loss-reward	StartDisplay				
17	277.718		loss-reward	ImageDisplay2		0.0		
17	280.968	1.6	loss-reward	ChoiceDisplay	1	1.137	1	1
17	282.118	0.463	loss-reward	ChosenDisplay		0.0		
17	282.568	0.25	loss-reward	TurnDisplay				
17	282.818	0.75	loss-reward	OutcomeDisplay				
18	283.568		win-noreward	ImageDisplay1		0.0		
18	285.568	0.75	win-noreward	StartDisplay				
18	286.318		win-noreward	ImageDisplay2		0.0		
18	289.568	1.6	win-noreward	ChoiceDisplay	1	1.051	1	1
18	290.634	0.549	win-noreward	ChosenDisplay		0.0		
18	291.167	0.25	win-noreward	TurnDisplay				
18	291.417	0.75	win-noreward	OutcomeDisplay				
19	292.167		control-noreward	ImageDisplay1		0.0		
19	294.167	0.75	control-noreward	StartDisplay				
19	294.917		control-noreward	ImageDisplay2		0.0		
19	298.167	1.6	control-noreward	ChoiceDisplay	1	1.101	1	1
19	299.284	0.499	control-noreward	ChosenDisplay		0.0		
19	299.767	0.25	control-noreward	TurnDisplay				
19	300.017	0.75	control-noreward	OutcomeDisplay				
20	300.767		win-noreward	ImageDisplay1		0.0		
20	302.767	0.75	win-noreward	StartDisplay				
20	303.517		win-noreward	ImageDisplay2		0.0		
20	306.767	1.6	win-noreward	ChoiceDisplay	1	1.209	1	1
20	308.0	0.391	win-noreward	ChosenDisplay		0.0		
20	308.367	0.25	win-noreward	TurnDisplay				
20	308.617	0.75	win-noreward	OutcomeDisplay				
21	309.367		win-noreward	ImageDisplay1		0.0		
21	311.617	0.75	win-noreward	StartDisplay				
21	312.367		win-noreward	ImageDisplay2		0.0		
21	315.367	1.6	win-noreward	ChoiceDisplay	1	1.452	1	1
21	316.833	0.148	win-noreward	ChosenDisplay		0.0		
21	316.967	0.25	win-noreward	TurnDisplay				
21	317.217	0.75	win-noreward	OutcomeDisplay				
22	317.967		win-noreward	ImageDisplay1		0.0		
22	319.967	0.75	win-noreward	StartDisplay				
22	320.717		win-noreward	ImageDisplay2		0.0		
22	323.967	1.6	win-noreward	ChoiceDisplay	1	1.369	1	1
22	325.35	0.231	win-noreward	ChosenDisplay		0.0		
22	325.567	0.25	win-noreward	TurnDisplay				
22	325.817	0.75	win-noreward	OutcomeDisplay				
23	326.567		loss-noreward	ImageDisplay1		0.0		
23	328.566	0.75	loss-noreward	StartDisplay				
23	329.316		loss-noreward	ImageDisplay2		0.0		
23	332.566	1.6	loss-noreward	ChoiceDisplay	1	0.882	1	1
23	333.466	0.718	loss-noreward	ChosenDisplay		0.0		
23	334.166	0.25	loss-noreward	TurnDisplay				
23	334.416	0.75	loss-noreward	OutcomeDisplay				
24	335.166		win-reward	ImageDisplay1		0.0		
24	337.166	0.75	win-reward	StartDisplay				
24	337.916		win-reward	ImageDisplay2		0.0		
24	341.166	1.6	win-reward	ChoiceDisplay	1	1.307	1	1
24	342.499	0.293	win-reward	ChosenDisplay		0.0		
24	342.766	0.25	win-reward	TurnDisplay				
24	343.016	0.75	win-reward	OutcomeDisplay				
25	343.766		loss-noreward	ImageDisplay1		0.0		
25	346.016	0.75	loss-noreward	StartDisplay				
25	346.766		loss-noreward	ImageDisplay2		0.0		
25	349.766	1.6	loss-noreward	ChoiceDisplay		0.0		
25	351.366	0.0	loss-noreward	ChosenDisplay		0.0		
25	351.382	0.25	loss-noreward	TurnDisplay				
25	351.616	0.75	loss-noreward	OutcomeDisplay				
26	352.366		control-noreward	ImageDisplay1		0.0		
26	354.616	0.75	control-noreward	StartDisplay				
26	355.366		control-noreward	ImageDisplay2		0.0		
26	358.366	1.6	control-noreward	ChoiceDisplay	1	1.091	1	1
26	359.482	0.509	control-noreward	ChosenDisplay		0.0		
26	359.966	0.25	control-noreward	TurnDisplay				
26	360.216	0.75	control-noreward	OutcomeDisplay				
27	360.966		control-noreward	ImageDisplay1		0.0		
27	363.215	0.75	control-noreward	StartDisplay				
27	363.965		control-noreward	ImageDisplay2		0.0		
27	366.965	1.6	control-noreward	ChoiceDisplay	1	1.228	1	1
27	368.215	0.372	control-noreward	ChosenDisplay		0.0		
27	368.565	0.25	control-noreward	TurnDisplay				
27	368.815	0.75	control-noreward	OutcomeDisplay				
28	369.565		win-reward	ImageDisplay1		0.0		
28	371.815	0.75	win-reward	StartDisplay				
28	372.565		win-reward	ImageDisplay2		0.0		
28	375.565	1.6	win-reward	ChoiceDisplay	1	1.02	1	1
28	376.598	0.58	win-reward	ChosenDisplay		0.0		
28	377.165	0.25	win-reward	TurnDisplay				
28	377.415	0.75	win-reward	OutcomeDisplay				
29	378.165		loss-noreward	ImageDisplay1		0.0		
29	380.165	0.75	loss-noreward	StartDisplay				
29	380.915		loss-noreward	ImageDisplay2		0.0		
29	384.165	1.6	loss-noreward	ChoiceDisplay	1	1.188	1	1
29	385.365	0.412	loss-noreward	ChosenDisplay		0.0		
29	385.765	0.25	loss-noreward	TurnDisplay				
29	386.015	0.75	loss-noreward	OutcomeDisplay				
30	386.765		loss-reward	ImageDisplay1		0.0		
30	389.015	0.75	loss-reward	StartDisplay				
30	389.765		loss-reward	ImageDisplay2		0.0		
30	392.765	1.6	loss-reward	ChoiceDisplay	1	1.237	1	1
30	394.015	0.363	loss-reward	ChosenDisplay		0.0		
30	394.365	0.25	loss-reward	TurnDisplay				
30	394.615	0.75	loss-reward	OutcomeDisplay				
31	395.365		loss-reward	ImageDisplay1		0.0		
31	397.365	0.75	loss-reward	StartDisplay				
31	398.115		loss-reward	ImageDisplay2		0.0		
31	401.364	1.6	loss-reward	ChoiceDisplay	1	1.333	1	1
31	402.714	0.267	loss-reward	ChosenDisplay		0.0		
31	402.964	0.25	loss-reward	TurnDisplay				
31	403.214	0.75	loss-reward	OutcomeDisplay				
32	403.964		control-reward	ImageDisplay1		0.0		
32	405.964	0.75	control-reward	StartDisplay				
32	406.714		control-reward	ImageDisplay2		0.0		
32	409.964	1.6	control-reward	ChoiceDisplay	1	1.07	1	1
32	411.048	0.53	control-reward	ChosenDisplay		0.0		
32	411.564	0.25	control-reward	TurnDisplay				
32	411.814	0.75	control-reward	OutcomeDisplay				
33	412.564		control-reward	ImageDisplay1		0.0		
33	414.814	0.75	control-reward	StartDisplay				
33	415.564		control-reward	ImageDisplay2		0.0		
33	418.564	1.6	control-reward	ChoiceDisplay	1	1.257	1	1
33	419.847	0.343	control-reward	ChosenDisplay		0.0		
33	420.164	0.25	control-reward	TurnDisplay				
33	420.414	0.75	control-reward	OutcomeDisplay				
34	421.164		control-noreward	ImageDisplay1		0.0		
34	423.414	0.75	control-noreward	StartDisplay				
34	424.164		control-noreward	ImageDisplay2		0.0		
34	427.164	1.6	control-noreward	ChoiceDisplay	1	1.169	1	1
34	428.347	0.431	control-noreward	ChosenDisplay		0.0		
34	428.764	0.25	control-noreward	TurnDisplay				
34	429.014	0.75	control-noreward	OutcomeDisplay				
35	429.764		loss-noreward	ImageDisplay1		0.0		
35	432.014	0.75	loss-noreward	StartDisplay				
35	432.764		loss-noreward	ImageDisplay2		0.0		
35	435.763	1.6	loss-noreward	ChoiceDisplay	1	1.224	1	1
35	437.013	0.376	loss-noreward	ChosenDisplay		0.0		
35	437.363	0.25	loss-noreward	TurnDisplay				
35	437.613	0.75	loss-noreward	OutcomeDisplay				
36	438.363		win-reward	ImageDisplay1		0.0		
36	440.363	0.75	win-reward	StartDisplay				
36	441.113		win-reward	ImageDisplay2		0.0		
36	444.363	1.6	win-reward	ChoiceDisplay	1	1.237	1	1
36	445.613	0.363	win-reward	ChosenDisplay		0.0		
36	445.963	0.25	win-reward	TurnDisplay				
36	446.213	0.75	win-reward	OutcomeDisplay				
37	446.963		loss-reward	ImageDisplay1		0.0		
37	448.963	0.75	loss-reward	StartDisplay				
37	449.713		loss-reward	ImageDisplay2		0.0		
37	452.963	1.6	loss-reward	ChoiceDisplay	1	1.079	1	1
37	454.063	0.521	loss-reward	ChosenDisplay		0.0		
37	454.563	0.25	loss-reward	TurnDisplay				
37	454.813	0.75	loss-reward	OutcomeDisplay				
38	455.563		control-noreward	ImageDisplay1		0.0		
38	457.563	0.75	control-noreward	StartDisplay				
38	458.313		control-noreward	ImageDisplay2		0.0		
38	461.563	1.6	control-noreward	ChoiceDisplay	1	0.679	1	1
38	462.263	0.921	control-noreward	ChosenDisplay		0.0		
38	463.163	0.25	control-noreward	TurnDisplay				
38	463.413	0.75	control-noreward	OutcomeDisplay				
39	464.163		loss-noreward	ImageDisplay1		0.0		
39	466.163	0.75	loss-noreward	StartDisplay				
39	466.913		loss-noreward	ImageDisplay2		0.0		
39	470.163	1.6	loss-noreward	ChoiceDisplay	1	1.126	1	1
39	471.313	0.474	loss-noreward	ChosenDisplay		0.0		
39	471.762	0.25	loss-noreward	TurnDisplay				
39	472.012	0.75	loss-noreward	OutcomeDisplay				
40	472.762		loss-reward	ImageDisplay1		0.0		
40	475.012	0.75	loss-reward	StartDisplay				
40	475.762		loss-reward	ImageDisplay2		0.0		
40	478.762	1.6	loss-reward	ChoiceDisplay	1	1.325	1	1
40	480.112	0.275	loss-reward	ChosenDisplay		0.0		
40	480.362	0.25	loss-reward	TurnDisplay				
40	480.612	0.75	loss-reward	OutcomeDisplay				
41	481.362		win-reward	ImageDisplay1		0.0		
41	483.362	0.75	win-reward	StartDisplay				
41	484.112		win-reward	ImageDisplay2		0.0		
41	487.362	1.6	win-reward	ChoiceDisplay	1	1.178	1	1
41	488.562	0.422	win-reward	ChosenDisplay		0.0		
41	488.962	0.25	win-reward	TurnDisplay				
41	489.212	0.75	win-reward	OutcomeDisplay				
42	489.962		loss-reward	ImageDisplay1		0.0		
42	492.212	0.75	loss-reward	StartDisplay				
42	492.962		loss-reward	ImageDisplay2		0.0		
42	495.962	1.6	loss-reward	ChoiceDisplay	1	1.261	1	1
42	497.245	0.339	loss-reward	ChosenDisplay		0.0		
42	497.562	0.25	loss-reward	TurnDisplay				
42	497.812	0.75	loss-reward	OutcomeDisplay				
43	498.562		win-noreward	ImageDisplay1		0.0		
43	500.562	0.75	win-noreward	StartDisplay				
43	501.312		win-noreward	ImageDisplay2		0.0		
43	504.562	1.6	win-noreward	ChoiceDisplay	1	1.317	1	1
43	505.895	0.283	win-noreward	ChosenDisplay		0.0		
43	506.162	0.25	win-noreward	TurnDisplay				
43	506.412	0.75	win-noreward	OutcomeDisplay				
44	507.162		win-reward	ImageDisplay1		0.0		
44	509.161	0.75	win-reward	StartDisplay				
44	509.911		win-reward	ImageDisplay2		0.0		
44	513.161	1.6	win-reward	ChoiceDisplay	1	1.076	1	1
44	514.261	0.524	win-reward	ChosenDisplay		0.0		
44	514.761	0.25	win-reward	TurnDisplay				
44	515.011	0.75	win-reward	OutcomeDisplay				
45	515.761		control-reward	ImageDisplay1		0.0		
45	518.011	0.75	control-reward	StartDisplay				
45	518.761		control-reward	ImageDisplay2		0.0		
45	521.761	1.6	control-reward	ChoiceDisplay	1	1.198	1	1
45	522.978	0.402	control-reward	ChosenDisplay		0.0		
45	523.361	0.25	control-reward	TurnDisplay				
45	523.611	0.75	control-reward	OutcomeDisplay				
46	524.361		control-noreward	ImageDisplay1		0.0		
46	526.361	0.75	control-noreward	StartDisplay				
46	527.111		control-noreward	ImageDisplay2		0.0		
46	530.361	1.6	control-noreward	ChoiceDisplay	1	1.25	1	1
46	531.628	0.35	control-noreward	ChosenDisplay		0.0		
46	531.961	0.25	control-noreward	TurnDisplay				
46	532.211	0.75	control-noreward	OutcomeDisplay				
47	532.961		loss-noreward	ImageDisplay1		0.0		
47	535.211	0.75	loss-noreward	StartDisplay				
47	535.961		loss-noreward	ImageDisplay2		0.0		
47	538.961	1.6	loss-noreward	ChoiceDisplay	1	1.284	1	1
47	540.261	0.316	loss-noreward	ChosenDisplay		0.0		
47	540.561	0.25	loss-noreward	TurnDisplay				
47	540.811	0.75	loss-noreward	OutcomeDisplay				
48	541.561		win-noreward	ImageDisplay1		0.0		
48	543.811	0.75	win-noreward	StartDisplay				
48	544.56		win-noreward	ImageDisplay2		0.0		
48	547.56	1.6	win-noreward	ChoiceDisplay	1	1.205	1	1
48	548.777	0.395	win-noreward	ChosenDisplay		0.0		
48	549.16	0.25	win-noreward	TurnDisplay				
48	549.41	0.75	win-noreward	OutcomeDisplay				
49	550.16		loss-reward	ImageDisplay1		0.0		
49	552.41	0.75	loss-reward	StartDisplay				
49	553.16		loss-reward	ImageDisplay2		0.0		
49	556.16	1.6	loss-reward	ChoiceDisplay	1	1.168	1	1
49	557.343	0.432	loss-reward	ChosenDisplay		0.0		
49	557.76	0.25	loss-reward	TurnDisplay				
49	558.01	0.75	loss-reward	OutcomeDisplay				
50	558.76		win-noreward	ImageDisplay1		0.0		
50	560.76	0.75	win-noreward	StartDisplay				
50	561.51		win-noreward	ImageDisplay2		0.0		
50	564.76	1.6	win-noreward	ChoiceDisplay	1	1.244	1	1
50	566.027	0.356	win-noreward	ChosenDisplay		0.0		
50	566.36	0.25	win-noreward	TurnDisplay				
50	566.61	0.75	win-noreward	OutcomeDisplay				
51	567.36		control-noreward	ImageDisplay1		0.0		
51	569.61	0.75	control-noreward	StartDisplay				
51	570.36		control-noreward	ImageDisplay2		0.0		
51	573.36	1.6	control-noreward	ChoiceDisplay	1	1.092	1	1
51	574.476	0.508	control-noreward	ChosenDisplay		0.0		
51	574.96	0.25	control-noreward	TurnDisplay				
51	575.21	0.75	control-noreward	OutcomeDisplay				
52	575.96		control-noreward	ImageDisplay1		0.0		
52	577.96	0.75	control-noreward	StartDisplay				
52	578.71		control-noreward	ImageDisplay2		0.0		
52	581.959	1.6	control-noreward	ChoiceDisplay	1	1.074	1	1
52	583.059	0.526	control-noreward	ChosenDisplay		0.0		
52	583.559	0.25	control-noreward	TurnDisplay				
52	583.809	0.75	control-noreward	OutcomeDisplay				
53	584.559		loss-noreward	ImageDisplay1		0.0		
53	586.809	0.75	loss-noreward	StartDisplay				
53	587.559		loss-noreward	ImageDisplay2		0.0		
53	590.559	1.6	loss-noreward	ChoiceDisplay	1	1.149	1	1
53	591.726	0.451	loss-noreward	ChosenDisplay		0.0		
53	592.159	0.25	loss-noreward	TurnDisplay				
53	592.409	0.75	loss-noreward	OutcomeDisplay				
54	593.159		win-noreward	ImageDisplay1		0.0		
54	595.409	0.75	win-noreward	StartDisplay				
54	596.159		win-noreward	ImageDisplay2		0.0		
54	599.159	1.6	win-noreward	ChoiceDisplay	1	1.466	1	1
54	600.642	0.134	win-noreward	ChosenDisplay		0.0		
54	600.759	0.25	win-noreward	TurnDisplay				
54	601.009	0.75	win-noreward	OutcomeDisplay				
55	601.759		control-reward	ImageDisplay1		0.0		
55	603.759	0.75	control-reward	StartDisplay				
55	604.509		control-reward	ImageDisplay2		0.0		
55	607.759	1.6	control-reward	ChoiceDisplay	1	1.256	1	1
55	609.042	0.344	control-reward	ChosenDisplay		0.0		
55	609.359	0.25	control-reward	TurnDisplay				
55	609.609	0.75	control-reward	OutcomeDisplay				
56	610.359		loss-reward	ImageDisplay1		0.0		
56	612.609	0.75	loss-reward	StartDisplay				
56	613.359		loss-reward	ImageDisplay2		0.0		
56	616.359	1.6	loss-reward	ChoiceDisplay	1	1.281	1	1
56	617.658	0.319	loss-reward	ChosenDisplay		0.0		
56	617.958	0.25	loss-reward	TurnDisplay				
56	618.208	0.75	loss-reward	OutcomeDisplay				
57	618.958		control-noreward	ImageDisplay1		0.0		
57	621.208	0.75	control-noreward	StartDisplay				
57	621.958		control-noreward	ImageDisplay2		0.0		
57	624.958	1.6	control-noreward	ChoiceDisplay	1	1.201	1	1
57	626.175	0.399	control-noreward	ChosenDisplay		0.0		
57	626.558	0.25	control-noreward	TurnDisplay				
57	626.808	0.75	control-noreward	OutcomeDisplay				
58	627.558		win-reward	ImageDisplay1		0.0		
58	629.808	0.75	win-reward	StartDisplay				
58	630.558		win-reward	ImageDisplay2		0.0		
58	633.558	1.6	win-reward	ChoiceDisplay	1	1.202	1	1
58	634.775	0.398	win-reward	ChosenDisplay		0.0		
58	635.158	0.25	win-reward	TurnDisplay				
58	635.408	0.75	win-reward	OutcomeDisplay				
59	636.158		win-reward	ImageDisplay1		0.0		
59	638.408	0.75	win-reward	StartDisplay				
59	639.158		win-reward	ImageDisplay2		0.0		
59	642.158	1.6	win-reward	ChoiceDisplay	1	1.246	1	1
59	643.424	0.354	win-reward	ChosenDisplay		0.0		
59	643.758	0.25	win-reward	TurnDisplay				
59	644.008	0.75	win-reward	OutcomeDisplay				
60	644.758		control-noreward	ImageDisplay1		0.0		
60	646.758	0.75	control-noreward	StartDisplay				
60	647.508		control-noreward	ImageDisplay2		0.0		
60	650.758	1.6	control-noreward	ChoiceDisplay	1	1.377	1	1
60	652.158	0.223	control-noreward	ChosenDisplay		0.0		
60	652.358	0.25	control-noreward	TurnDisplay				
60	652.608	0.75	control-noreward	OutcomeDisplay				
61	653.358		control-reward	ImageDisplay1		0.0		
61	655.607	0.75	control-reward	StartDisplay				
61	656.357		control-reward	ImageDisplay2		0.0		
61	659.357	1.6	control-reward	ChoiceDisplay	1	1.33	1	1
61	660.707	0.27	control-reward	ChosenDisplay		0.0		
61	660.957	0.25	control-reward	TurnDisplay				
61	661.207	0.75	control-reward	OutcomeDisplay				
62	661.957		control-reward	ImageDisplay1		0.0		
62	663.957	0.75	control-reward	StartDisplay				
62	664.707		control-reward	ImageDisplay2		0.0		
62	667.957	1.6	control-reward	ChoiceDisplay	1	1.409	1	1
62	669.39	0.191	control-reward	ChosenDisplay		0.0		
62	669.557	0.25	control-reward	TurnDisplay				
62	669.807	0.75	control-reward	OutcomeDisplay				
63	670.557		loss-noreward	ImageDisplay1		0.0		
63	672.557	0.75	loss-noreward	StartDisplay				
63	673.307		loss-noreward	ImageDisplay2		0.0		
63	676.557	1.6	loss-noreward	ChoiceDisplay	1	1.421	1	1
63	677.99	0.179	loss-noreward	ChosenDisplay		0.0		
63	678.157	0.25	loss-noreward	TurnDisplay				
63	678.407	0.75	loss-noreward	OutcomeDisplay				
64	679.157		control-noreward	ImageDisplay1		0.0		
64	681.157	0.75	control-noreward	StartDisplay				
64	681.907		control-noreward	ImageDisplay2		0.0		
64	685.157	1.6	control-noreward	ChoiceDisplay	1	1.525	1	1
64	686.69	0.0	control-noreward	ChosenDisplay		0.0		
64	686.773	0.25	control-noreward	TurnDisplay				
64	686.94	0.75	control-noreward	OutcomeDisplay				
65	687.69		win-reward	ImageDisplay1		0.0		
65	689.94	0.75	win-reward	StartDisplay				
65	690.69		win-reward	ImageDisplay2		0.0		
65	693.69	1.6	win-reward	ChoiceDisplay	1	1.489	1	1
65	695.206	0.111	win-reward	ChosenDisplay		0.0		
65	695.29	0.25	win-reward	TurnDisplay				
65	695.54	0.75	win-reward	OutcomeDisplay				
66	696.29		control-reward	ImageDisplay1		0.0		
66	698.54	0.75	control-reward	StartDisplay				
66	699.29		control-reward	ImageDisplay2		0.0		
66	702.289	1.6	control-reward	ChoiceDisplay	1	1.111	1	1
66	703.423	0.489	control-reward	ChosenDisplay		0.0		
66	703.889	0.25	control-reward	TurnDisplay				
66	704.139	0.75	control-reward	OutcomeDisplay				
67	704.889		loss-noreward	ImageDisplay1		0.0		
67	706.889	0.75	loss-noreward	StartDisplay				
67	707.639		loss-noreward	ImageDisplay2		0.0		
67	710.889	1.6	loss-noreward	ChoiceDisplay	1	1.056	1	1
67	711.973	0.544	loss-noreward	ChosenDisplay		0.0		
67	712.489	0.25	loss-noreward	TurnDisplay				
67	712.739	0.75	loss-noreward	OutcomeDisplay				
68	713.489		loss-noreward	ImageDisplay1		0.0		
68	715.489	0.75	loss-noreward	StartDisplay				
68	716.239		loss-noreward	ImageDisplay2		0.0		
68	719.489	1.6	loss-noreward	ChoiceDisplay	1	1.34	1	1
68	720.856	0.26	loss-noreward	ChosenDisplay		0.0		
68	721.089	0.25	loss-noreward	TurnDisplay				
68	721.339	0.75	loss-noreward	OutcomeDisplay				
69	722.089		control-reward	ImageDisplay1		0.0		
69	724.339	0.75	control-reward	StartDisplay				
69	725.089		control-reward	ImageDisplay2		0.0		
69	728.089	1.6	control-reward	ChoiceDisplay	1	1.404	1	1
69	729.505	0.196	control-reward	ChosenDisplay		0.0		
69	729.689	0.25	control-reward	TurnDisplay				
69	729.939	0.75	control-reward	OutcomeDisplay				
70	730.689		win-reward	ImageDisplay1		0.0		
70	732.689	0.75	win-reward	StartDisplay				
70	733.439		win-reward	ImageDisplay2		0.0		
70	736.689	1.6	win-reward	ChoiceDisplay	1	1.471	1	1
70	738.172	0.129	win-reward	ChosenDisplay		0.0		
70	738.288	0.25	win-reward	TurnDisplay				
70	738.538	0.75	win-reward	OutcomeDisplay				
71	739.288		win-noreward	ImageDisplay1		0.0		
71	741.538	0.75	win-noreward	StartDisplay				
71	742.288		win-noreward	ImageDisplay2		0.0		
71	745.288	1.6	win-noreward	ChoiceDisplay	1	1.271	1	1
71	746.572	0.329	win-noreward	ChosenDisplay		0.0		
71	746.888	0.25	win-noreward	TurnDisplay				
71	747.138	0.75	win-noreward	OutcomeDisplay				
72	747.888		loss-reward	ImageDisplay1		0.0		
72	749.888	0.75	loss-reward	StartDisplay				
72	750.638		loss-reward	ImageDisplay2		0.0		
72	753.888	1.6	loss-reward	ChoiceDisplay	1	1.19	1	1
72	755.105	0.41	loss-reward	ChosenDisplay		0.0		
72	755.488	0.25	loss-reward	TurnDisplay				
72	755.738	0.75	loss-reward	OutcomeDisplay				
73	756.488		control-reward	ImageDisplay1		0.0		
73	758.738	0.75	control-reward	StartDisplay				
73	759.488		control-reward	ImageDisplay2		0.0		
73	762.488	1.6	control-reward	ChoiceDisplay	1	1.299	1	1
73	763.804	0.301	control-reward	ChosenDisplay		0.0		
73	764.088	0.25	control-reward	TurnDisplay				
73	764.338	0.75	control-reward	OutcomeDisplay				
74	765.088		control-noreward	ImageDisplay1		0.0		
74	767.338	0.75	control-noreward	StartDisplay				
74	768.088		control-noreward	ImageDisplay2		0.0		
74	771.088	1.6	control-noreward	ChoiceDisplay		0.0		
74	772.688	0.0	control-noreward	ChosenDisplay		0.0		
74	772.704	0.25	control-noreward	TurnDisplay				
74	772.938	0.75	control-noreward	OutcomeDisplay				
75	773.688		win-reward	ImageDisplay1		0.0		
75	775.687	0.75	win-reward	StartDisplay				
75	776.437		win-reward	ImageDisplay2		0.0		
75	779.687	1.6	win-reward	ChoiceDisplay	1	1.131	1	1
75	780.837	0.469	win-reward	ChosenDisplay		0.0		
75	781.287	0.25	win-reward	TurnDisplay				
75	781.537	0.75	win-reward	OutcomeDisplay				
76	782.287		loss-reward	ImageDisplay1		0.0		
76	784.537	0.75	loss-reward	StartDisplay				
76	785.287		loss-reward	ImageDisplay2		0.0		
76	788.287	1.6	loss-reward	ChoiceDisplay	1	1.112	1	1
76	789.42	0.488	loss-reward	ChosenDisplay		0.0		
76	789.887	0.25	loss-reward	TurnDisplay				
76	790.137	0.75	loss-reward	OutcomeDisplay				
77	790.887		control-reward	ImageDisplay1		0.0		
77	792.887	0.75	control-reward	StartDisplay				
77	793.637		control-reward	ImageDisplay2		0.0		
77	796.887	1.6	control-reward	ChoiceDisplay	1	1.239	1	1
77	798.153	0.361	control-reward	ChosenDisplay		0.0		
77	798.487	0.25	control-reward	TurnDisplay				
77	798.737	0.75	control-reward	OutcomeDisplay				
78	799.487		win-reward	ImageDisplay1		0.0		
78	801.737	0.75	win-reward	StartDisplay				
78	802.487		win-reward	ImageDisplay2		0.0		
78	805.487	1.6	win-reward	ChoiceDisplay	1	1.318	1	1
78	806.82	0.282	win-reward	ChosenDisplay		0.0		
78	807.087	0.25	win-reward	TurnDisplay				
78	807.337	0.75	win-reward	OutcomeDisplay				
79	808.087		win-reward	ImageDisplay1		0.0		
79	810.087	0.75	win-reward	StartDisplay				
79	810.836		win-reward	ImageDisplay2		0.0		
79	814.086	1.6	win-reward	ChoiceDisplay	1	1.39	1	1
79	815.503	0.21	win-reward	ChosenDisplay		0.0		
79	815.686	0.25	win-reward	TurnDisplay				
79	815.936	0.75	win-reward	OutcomeDisplay				
80	816.686		control-reward	ImageDisplay1		0.0		
80	818.686	0.75	control-reward	StartDisplay				
80	819.436		control-reward	ImageDisplay2		0.0		
80	822.686	1.6	control-reward	ChoiceDisplay	1	1.214	1	1
80	823.919	0.386	control-reward	ChosenDisplay		0.0		
80	824.286	0.25	control-reward	TurnDisplay				
80	824.536	0.75	control-reward	OutcomeDisplay				
81	825.286		win-reward	ImageDisplay1		0.0		
81	827.536	0.75	win-reward	StartDisplay				
81	828.286		win-reward	ImageDisplay2		0.0		
81	831.286	1.6	win-reward	ChoiceDisplay	1	1.192	1	1
81	832.503	0.408	win-reward	ChosenDisplay		0.0		
81	832.886	0.25	win-reward	TurnDisplay				
81	833.136	0.75	win-reward	OutcomeDisplay				
82	833.886		loss-reward	ImageDisplay1		0.0		
82	835.886	0.75	loss-reward	StartDisplay				
82	836.636		loss-reward	ImageDisplay2		0.0		
82	839.886	1.6	loss-reward	ChoiceDisplay	1	1.139	1	1
82	841.052	0.461	loss-reward	ChosenDisplay		0.0		
82	841.486	0.25	loss-reward	TurnDisplay				
82	841.736	0.75	loss-reward	OutcomeDisplay				
83	842.486		win-reward	ImageDisplay1		0.0		
83	844.486	0.75	win-reward	StartDisplay				
83	845.236		win-reward	ImageDisplay2		0.0		
83	848.485	1.6	win-reward	ChoiceDisplay	1	1.078	1	1
83	849.585	0.522	win-reward	ChosenDisplay		0.0		
83	850.085	0.25	win-reward	TurnDisplay				
83	850.335	0.75	win-reward	OutcomeDisplay				
84	851.085		loss-reward	ImageDisplay1		0.0		
84	853.085	0.75	loss-reward	StartDisplay				
84	853.835		loss-reward	ImageDisplay2		0.0		
84	857.085	1.6	loss-reward	ChoiceDisplay	1	1.12	1	1
84	858.219	0.48	loss-reward	ChosenDisplay		0.0		
84	858.685	0.25	loss-reward	TurnDisplay				
84	858.935	0.75	loss-reward	OutcomeDisplay				
85	859.685		control-noreward	ImageDisplay1		0.0		
85	861.935	0.75	control-noreward	StartDisplay				
85	862.685		control-noreward	ImageDisplay2		0.0		
85	865.685	1.6	control-noreward	ChoiceDisplay	1	1.205	1	1
85	866.902	0.395	control-noreward	ChosenDisplay		0.0		
85	867.285	0.25	control-noreward	TurnDisplay				
85	867.535	0.75	control-noreward	OutcomeDisplay				
86	868.285		control-reward	ImageDisplay1		0.0		
86	870.285	0.75	control-reward	StartDisplay				
86	871.035		control-reward	ImageDisplay2		0.0		
86	874.285	1.6	control-reward	ChoiceDisplay	1	1.176	1	1
86	875.485	0.424	control-reward	ChosenDisplay		0.0		
86	875.885	0.25	control-reward	TurnDisplay				
86	876.135	0.75	control-reward	OutcomeDisplay				
87	876.885		loss-noreward	ImageDisplay1		0.0		
87	878.885	0.75	loss-noreward	StartDisplay				
87	879.635		loss-noreward	ImageDisplay2		0.0		
87	882.885	1.6	loss-noreward	ChoiceDisplay	1	1.147	1	1
87	884.051	0.453	loss-noreward	ChosenDisplay		0.0		
87	884.484	0.25	loss-noreward	TurnDisplay				
87	884.734	0.75	loss-noreward	OutcomeDisplay				
88	885.484		control-noreward	ImageDisplay1		0.0		
88	887.484	0.75	control-noreward	StartDisplay				
88	888.234		control-noreward	ImageDisplay2		0.0		
88	891.484	1.6	control-noreward	ChoiceDisplay	1	1.217	1	1
88	892.718	0.383	control-noreward	ChosenDisplay		0.0		
88	893.084	0.25	control-noreward	TurnDisplay				
88	893.334	0.75	control-noreward	OutcomeDisplay				
89	894.084		win-reward	ImageDisplay1		0.0		
89	896.334	0.75	win-reward	StartDisplay				
89	897.084		win-reward	ImageDisplay2		0.0		
89	900.084	1.6	win-reward	ChoiceDisplay	1	1.095	1	1
89	901.201	0.505	win-reward	ChosenDisplay		0.0		
89	901.684	0.25	win-reward	TurnDisplay				
89	901.934	0.75	win-reward	OutcomeDisplay				
90	902.684		control-reward	ImageDisplay1		0.0		
90	904.934	0.75	control-reward	StartDisplay				
90	905.684		control-reward	ImageDisplay2		0.0		
90	908.684	1.6	control-reward	ChoiceDisplay	1	1.138	1	1
90	909.834	0.462	control-reward	ChosenDisplay		0.0		
90	910.284	0.25	control-reward	TurnDisplay				
90	910.534	0.75	control-reward	OutcomeDisplay				
91	911.284		win-noreward	ImageDisplay1		0.0		
91	913.284	0.75	win-noreward	StartDisplay				
91	914.034		win-noreward	ImageDisplay2		0.0		
91	917.284	1.6	win-noreward	ChoiceDisplay	1	1.464	1	1
91	918.767	0.136	win-noreward	ChosenDisplay		0.0		
91	918.884	0.25	win-noreward	TurnDisplay				
91	919.133	0.75	win-noreward	OutcomeDisplay				
92	919.883		win-noreward	ImageDisplay1		0.0		
92	922.133	0.75	win-noreward	StartDisplay				
92	922.883		win-noreward	ImageDisplay2		0.0		
92	925.883	1.6	win-noreward	ChoiceDisplay	1	1.114	1	1
92	927.017	0.486	win-noreward	ChosenDisplay		0.0		
92	927.483	0.25	win-noreward	TurnDisplay				
92	927.733	0.75	win-noreward	OutcomeDisplay				
93	928.483		loss-reward	ImageDisplay1		0.0		
93	930.733	0.75	loss-reward	StartDisplay				
93	931.483		loss-reward	ImageDisplay2		0.0		
93	934.483	1.6	loss-reward	ChoiceDisplay	1	1.172	1	1
93	935.666	0.428	loss-reward	ChosenDisplay		0.0		
93	936.083	0.25	loss-reward	TurnDisplay				
93	936.333	0.75	loss-reward	OutcomeDisplay				
94	937.083		control-reward	ImageDisplay1		0.0		
94	939.333	0.75	control-reward	StartDisplay				
94	940.083		control-reward	ImageDisplay2		0.0		
94	943.083	1.6	control-reward	ChoiceDisplay	1	1.47	1	1
94	944.566	0.13	control-reward	ChosenDisplay		0.0		
94	944.683	0.25	control-reward	TurnDisplay				
94	944.933	0.75	control-reward	OutcomeDisplay				
95	945.683		win-noreward	ImageDisplay1		0.0		
95	947.933	0.75	win-noreward	StartDisplay				
95	948.683		win-noreward	ImageDisplay2		0.0		
95	951.683	1.6	win-noreward	ChoiceDisplay	1	1.277	1	1
95	952.983	0.323	win-noreward	ChosenDisplay		0.0		
95	953.283	0.25	win-noreward	TurnDisplay				
95	953.533	0.75	win-noreward	OutcomeDisplay				
