onset	duration	trial_type	response_time	stim_file	accuracy
128.088	1.0	go	0.0	Go_X	0.0
130.655	1.0	go	0.945	Go_O	1.0
133.188	1.0	go	0.626	Go_O	1.0
135.721	1.0	go	0.618	Go_X	1.0
138.255	1.0	go	0.625	Go_O	1.0
140.788	1.0	go	0.647	Go_X	1.0
143.321	0.25	stopsuccess	0.0	Go_O	1.0
145.854	1.0	go	0.622	Go_X	1.0
148.388	0.3	stopsuccess	0.0	Go_X	1.0
150.921	1.0	go	0.457	Go_O	1.0
153.454	1.0	go	0.663	Go_O	1.0
155.988	1.0	go	0.547	Go_X	1.0
158.537	0.35	stopsuccess	0.0	Go_O	1.0
161.071	1.0	go	0.497	Go_O	1.0
163.604	1.0	go	0.618	Go_X	1.0
166.137	0.4	stopsuccess	0.0	Go_X	1.0
168.67	0.45	stopfail	0.482	Go_O	0.0
171.22	1.0	go	0.719	Go_X	1.0
173.754	1.0	go	0.69	Go_O	1.0
176.287	0.4	stopsuccess	0.0	Go_X	1.0
178.82	1.0	go	0.851	Go_X	0.0
181.353	1.0	go	0.574	Go_O	1.0
183.887	0.45	stopsuccess	0.0	Go_O	1.0
186.42	1.0	go	0.65	Go_X	1.0
188.953	1.0	go	0.963	Go_O	1.0
191.487	0.5	stopsuccess	0.0	Go_X	1.0
194.02	1.0	go	0.647	Go_X	1.0
196.553	1.0	go	0.591	Go_O	1.0
199.086	0.55	stopsuccess	0.0	Go_O	1.0
201.62	1.0	go	0.682	Go_X	1.0
204.153	1.0	go	0.717	Go_O	1.0
206.686	1.0	go	0.634	Go_O	1.0
209.219	1.0	go	0.691	Go_X	1.0
211.753	1.0	go	0.706	Go_O	1.0
214.286	0.6	stopfail	0.538	Go_X	0.0
216.819	1.0	go	0.61	Go_X	1.0
219.352	1.0	go	0.648	Go_X	1.0
221.886	1.0	go	0.569	Go_O	1.0
224.419	1.0	go	0.633	Go_X	1.0
226.952	1.0	go	0.593	Go_O	1.0
229.485	0.55	stopfail	0.694	Go_O	0.0
232.019	1.0	go	0.575	Go_X	1.0
234.552	1.0	go	0.574	Go_O	1.0
237.085	1.0	go	0.507	Go_O	1.0
239.619	1.0	go	0.675	Go_X	1.0
242.152	1.0	go	0.906	Go_X	1.0
244.685	1.0	go	0.539	Go_O	1.0
247.218	0.5	stopfail	0.58	Go_X	0.0
249.752	1.0	go	0.535	Go_O	1.0
252.285	1.0	go	0.666	Go_X	1.0
254.818	0.45	stopfail	0.558	Go_O	0.0
257.351	1.0	go	0.564	Go_X	1.0
259.885	0.4	stopsuccess	0.0	Go_X	1.0
262.418	0.45	stopfail	0.613	Go_O	0.0
264.951	1.0	go	0.842	Go_O	1.0
267.484	1.0	go	0.687	Go_O	1.0
270.018	1.0	go	0.657	Go_X	1.0
272.551	1.0	go	0.651	Go_X	1.0
275.084	0.4	stopsuccess	0.0	Go_X	1.0
277.618	1.0	go	0.572	Go_O	1.0
280.167	0.45	stopfail	0.581	Go_O	0.0
282.701	1.0	go	0.893	Go_O	1.0
285.234	1.0	go	0.623	Go_X	1.0
287.767	1.0	go	0.667	Go_O	1.0
290.3	1.0	go	0.613	Go_X	1.0
292.834	1.0	go	0.55	Go_O	1.0
295.367	1.0	go	0.608	Go_X	1.0
297.9	1.0	go	0.455	Go_O	1.0
300.434	1.0	go	0.524	Go_X	1.0
302.967	1.0	go	0.632	Go_O	1.0
305.5	0.4	stopfail	0.495	Go_X	0.0
308.033	1.0	go	0.635	Go_X	1.0
310.567	1.0	go	0.52	Go_X	1.0
313.1	1.0	go	0.535	Go_O	1.0
315.633	0.35	stopsuccess	0.0	Go_O	1.0
318.166	1.0	go	0.66	Go_X	1.0
320.7	1.0	go	0.589	Go_O	1.0
323.233	1.0	go	0.626	Go_X	1.0
325.766	1.0	go	0.504	Go_O	1.0
328.299	1.0	go	0.577	Go_X	1.0
330.833	1.0	go	0.775	Go_O	1.0
333.366	0.4	stopsuccess	0.0	Go_X	1.0
335.899	1.0	go	0.854	Go_X	1.0
338.433	1.0	go	0.777	Go_O	1.0
340.982	0.45	stopfail	0.588	Go_O	0.0
343.516	1.0	go	0.527	Go_X	1.0
346.049	1.0	go	0.454	Go_O	1.0
348.582	0.4	stopsuccess	0.0	Go_X	1.0
351.115	1.0	go	0.507	Go_O	1.0
353.649	0.45	stopsuccess	0.0	Go_O	1.0
356.182	1.0	go	0.474	Go_X	1.0
358.715	1.0	go	0.465	Go_O	1.0
361.249	1.0	go	0.71	Go_X	1.0
363.798	1.0	go	0.476	Go_O	1.0
366.332	1.0	go	0.566	Go_X	1.0
368.865	0.5	stopfail	0.504	Go_X	0.0
371.398	0.45	stopfail	0.452	Go_O	0.0
373.931	1.0	go	0.679	Go_O	1.0
376.465	1.0	go	0.661	Go_X	1.0
378.998	0.4	stopsuccess	0.0	Go_X	1.0
381.531	1.0	go	0.502	Go_O	1.0
384.065	1.0	go	0.651	Go_X	1.0
386.598	1.0	go	0.49	Go_O	1.0
389.131	1.0	go	0.546	Go_X	1.0
391.664	1.0	go	0.693	Go_O	1.0
394.198	1.0	go	0.713	Go_X	1.0
396.731	0.45	stopfail	0.525	Go_O	0.0
399.264	1.0	go	0.734	Go_O	1.0
401.797	1.0	go	0.637	Go_X	1.0
404.331	1.0	go	0.572	Go_O	1.0
406.864	1.0	go	0.598	Go_X	1.0
409.397	1.0	go	0.483	Go_O	1.0
411.93	0.4	stopfail	0.499	Go_X	0.0
414.464	1.0	go	0.567	Go_X	0.0
416.997	1.0	go	0.656	Go_X	1.0
419.53	1.0	go	0.59	Go_O	1.0
422.064	1.0	go	0.631	Go_X	1.0
424.613	0.35	stopfail	0.486	Go_O	0.0
427.147	1.0	go	0.592	Go_O	1.0
429.68	1.0	go	0.634	Go_X	1.0
432.213	0.3	stopsuccess	0.0	Go_X	1.0
434.746	1.0	go	0.492	Go_O	1.0
437.28	0.35	stopsuccess	0.0	Go_O	1.0
439.813	1.0	go	0.618	Go_X	1.0
442.346	1.0	go	0.679	Go_O	1.0
444.88	1.0	go	0.754	Go_O	1.0
447.413	1.0	go	0.66	Go_X	1.0
449.946	1.0	go	0.734	Go_X	1.0
452.479	1.0	go	0.708	Go_O	1.0
455.013	1.0	go	0.628	Go_X	1.0
457.546	0.4	stopsuccess	0.0	Go_X	1.0
460.079	1.0	go	0.671	Go_O	1.0
462.612	1.0	go	0.651	Go_O	1.0
465.146	1.0	go	0.644	Go_X	1.0
467.679	0.45	stopfail	0.466	Go_O	0.0
470.212	1.0	go	0.662	Go_X	1.0
472.745	1.0	go	0.708	Go_O	1.0
475.279	1.0	go	0.692	Go_O	1.0
477.812	1.0	go	0.744	Go_X	1.0
480.345	0.4	stopsuccess	0.0	Go_X	1.0
482.879	1.0	go	0.691	Go_X	1.0
485.428	1.0	go	0.746	Go_O	1.0
487.962	0.45	stopsuccess	0.0	Go_O	1.0
490.495	1.0	go	0.85	Go_O	1.0
493.028	1.0	go	0.0	Go_X	0.0
495.561	0.5	stopfail	0.552	Go_X	0.0
498.095	1.0	go	0.669	Go_O	1.0
500.628	1.0	go	0.949	Go_X	1.0
503.161	0.45	stopfail	0.568	Go_O	0.0
505.695	1.0	go	0.787	Go_O	1.0
508.228	1.0	go	0.533	Go_X	1.0
510.761	1.0	go	0.56	Go_O	1.0
513.294	1.0	go	0.545	Go_X	1.0
515.828	1.0	go	0.499	Go_O	1.0
518.361	1.0	go	0.5	Go_X	1.0
520.894	0.4	stopfail	0.546	Go_X	0.0
523.427	1.0	go	0.433	Go_O	1.0
525.961	0.35	stopsuccess	0.0	Go_O	1.0
528.494	1.0	go	0.564	Go_X	1.0
531.027	1.0	go	0.527	Go_X	1.0
533.56	1.0	go	0.538	Go_O	1.0
536.094	1.0	go	0.527	Go_O	0.0
538.627	1.0	go	0.579	Go_X	1.0
541.16	0.4	stopsuccess	0.0	Go_X	1.0
543.693	1.0	go	0.472	Go_X	1.0
546.227	1.0	go	0.374	Go_O	1.0
548.76	1.0	go	0.588	Go_O	1.0
551.293	0.45	stopfail	0.582	Go_O	0.0
553.827	0.4	stopsuccess	0.0	Go_X	1.0
556.36	0.45	stopsuccess	0.0	Go_O	1.0
558.893	1.0	go	0.69	Go_X	1.0
561.426	0.5	stopsuccess	0.0	Go_X	1.0
563.96	1.0	go	0.764	Go_X	1.0
566.493	1.0	go	0.558	Go_O	1.0
569.026	1.0	go	0.0	Go_X	0.0
571.559	1.0	go	0.431	Go_O	1.0
574.093	1.0	go	0.538	Go_O	1.0
576.626	1.0	go	0.571	Go_X	1.0
579.159	1.0	go	0.627	Go_X	1.0
581.692	1.0	go	0.524	Go_O	1.0
584.226	0.55	stopfail	0.623	Go_O	0.0
586.759	1.0	go	0.619	Go_X	1.0
589.292	1.0	go	0.598	Go_O	1.0
591.826	0.5	stopfail	0.579	Go_X	0.0
594.375	1.0	go	0.545	Go_O	1.0
596.909	1.0	go	0.671	Go_X	1.0
599.442	1.0	go	0.497	Go_O	1.0
601.975	1.0	go	0.555	Go_X	1.0
604.508	1.0	go	0.612	Go_X	1.0
607.042	0.45	stopfail	0.574	Go_O	0.0
609.575	1.0	go	0.59	Go_O	1.0
612.108	1.0	go	0.571	Go_X	1.0
614.642	1.0	go	0.505	Go_O	1.0
617.175	0.4	stopfail	0.47	Go_X	0.0
619.708	1.0	go	0.666	Go_X	1.0
622.241	0.35	stopfail	0.267	Go_O	0.0
624.775	1.0	go	0.893	Go_O	1.0
627.308	1.0	go	0.446	Go_O	1.0
629.841	1.0	go	0.497	Go_X	1.0
632.374	1.0	go	0.451	Go_X	1.0
634.908	1.0	go	0.525	Go_O	1.0
637.441	1.0	go	0.583	Go_X	1.0
639.974	1.0	go	0.48	Go_O	1.0
642.507	0.3	stopsuccess	0.0	Go_X	1.0
645.041	1.0	go	0.547	Go_O	1.0
647.574	1.0	go	0.528	Go_X	1.0
650.107	1.0	go	0.628	Go_X	1.0
652.64	1.0	go	0.39	Go_O	1.0
655.174	0.35	stopsuccess	0.0	Go_O	1.0
657.707	1.0	go	0.548	Go_O	1.0
660.24	0.4	stopfail	0.491	Go_X	0.0
662.774	1.0	go	0.536	Go_X	1.0
665.307	1.0	go	0.502	Go_O	1.0
667.84	0.35	stopsuccess	0.0	Go_O	1.0
670.373	1.0	go	0.405	Go_X	1.0
672.907	1.0	go	0.42	Go_O	1.0
675.44	1.0	go	0.561	Go_X	1.0
677.973	1.0	go	0.399	Go_O	1.0
680.506	1.0	go	0.569	Go_X	1.0
683.04	1.0	go	0.372	Go_O	1.0
685.573	1.0	go	0.437	Go_X	1.0
688.106	1.0	go	0.0	Go_X	0.0
690.639	1.0	go	0.386	Go_O	1.0
693.173	1.0	go	0.429	Go_O	1.0
695.706	0.4	stopfail	0.515	Go_X	0.0
698.239	1.0	go	0.481	Go_X	1.0
700.773	1.0	go	0.444	Go_O	1.0
703.322	0.35	stopfail	0.485	Go_O	0.0
705.856	1.0	go	0.478	Go_X	1.0
708.389	0.3	stopsuccess	0.0	Go_X	1.0
710.922	1.0	go	0.526	Go_X	1.0
713.455	1.0	go	0.409	Go_O	1.0
715.989	0.35	stopsuccess	0.0	Go_O	1.0
718.522	1.0	go	0.671	Go_O	1.0
721.055	0.4	stopsuccess	0.0	Go_X	1.0
723.589	1.0	go	0.531	Go_X	1.0
726.122	1.0	go	0.617	Go_O	1.0
728.655	1.0	go	0.72	Go_X	1.0
731.188	0.45	stopsuccess	0.0	Go_O	1.0
733.722	1.0	go	0.61	Go_X	1.0
736.255	1.0	go	0.533	Go_O	1.0
738.788	1.0	go	0.623	Go_X	1.0
741.321	1.0	go	0.704	Go_O	1.0
743.855	0.5	stopfail	0.63	Go_X	0.0
746.388	1.0	go	0.635	Go_X	1.0
748.921	1.0	go	0.454	Go_O	1.0
751.454	0.45	stopfail	0.372	Go_O	0.0
753.988	1.0	go	0.578	Go_O	1.0
756.521	1.0	go	0.622	Go_X	1.0
759.054	1.0	go	0.665	Go_X	1.0
761.587	1.0	go	0.568	Go_O	1.0
764.121	0.4	stopsuccess	0.0	Go_X	1.0
766.654	1.0	go	0.614	Go_X	1.0
769.187	0.45	stopfail	0.544	Go_O	0.0
771.721	1.0	go	0.552	Go_O	1.0
774.254	1.0	go	0.55	Go_X	1.0
776.787	0.4	stopfail	0.528	Go_X	0.0
779.32	1.0	go	0.716	Go_O	0.0
781.854	1.0	go	0.591	Go_X	1.0
784.387	1.0	go	0.405	Go_O	1.0
786.92	1.0	go	0.491	Go_X	1.0
789.453	0.35	stopsuccess	0.0	Go_O	1.0
791.987	1.0	go	0.592	Go_O	1.0
794.52	0.4	stopsuccess	0.0	Go_X	1.0
797.053	1.0	go	0.484	Go_O	1.0
799.586	1.0	go	0.575	Go_X	1.0
802.12	1.0	go	0.87	Go_X	1.0
804.653	1.0	go	0.651	Go_O	1.0
807.186	1.0	go	0.569	Go_X	1.0
809.719	1.0	go	0.639	Go_O	1.0
812.253	0.45	stopfail	0.579	Go_O	0.0
814.786	1.0	go	0.722	Go_X	1.0
817.319	1.0	go	0.656	Go_O	1.0
819.853	0.4	stopsuccess	0.0	Go_X	1.0
822.386	1.0	go	0.865	Go_O	1.0
824.919	1.0	go	0.716	Go_X	1.0
827.452	0.45	stopfail	0.531	Go_O	0.0
829.986	1.0	go	0.676	Go_O	1.0
832.519	1.0	go	0.592	Go_X	1.0
835.052	1.0	go	0.498	Go_O	1.0
837.585	1.0	go	0.0	Go_X	0.0
840.119	0.4	stopsuccess	0.0	Go_X	1.0
842.652	1.0	go	0.491	Go_O	1.0
845.185	0.45	stopsuccess	0.0	Go_O	1.0
847.718	1.0	go	0.67	Go_X	1.0
850.252	1.0	go	0.718	Go_X	1.0
852.785	1.0	go	0.535	Go_O	1.0
855.318	1.0	go	0.734	Go_X	1.0
857.852	1.0	go	0.479	Go_O	1.0
860.401	0.5	stopfail	0.59	Go_X	0.0
862.935	1.0	go	0.658	Go_O	1.0
865.468	1.0	go	0.532	Go_X	1.0
868.001	0.45	stopfail	0.592	Go_O	0.0
870.534	0.4	stopfail	0.475	Go_X	0.0
873.068	1.0	go	0.691	Go_X	1.0
875.601	1.0	go	0.825	Go_O	1.0
878.134	1.0	go	0.841	Go_O	1.0
880.668	1.0	go	0.542	Go_X	1.0
883.201	0.35	stopsuccess	0.0	Go_O	1.0
885.734	1.0	go	0.549	Go_X	1.0
