frame	onset	duration	trial_type	event_type	response_type	response_time	stim_file	accuracy
0	69.102		win-reward	ImageDisplay1		0.0		
0	71.342	0.75	win-reward	StartDisplay				
0	72.094		win-reward	ImageDisplay2		0.0		
0	75.087	1.6	win-reward	ChoiceDisplay		0.0		
0	76.691	0.0	win-reward	ChosenDisplay		0.0		
0	76.708	0.25	win-reward	TurnDisplay				
0	76.942	0.75	win-reward	OutcomeDisplay				
1	77.694		control-noreward	ImageDisplay1		0.0		
1	79.934	0.75	control-noreward	StartDisplay				
1	80.687		control-noreward	ImageDisplay2		0.0		
1	83.696	1.6	control-noreward	ChoiceDisplay		0.0		
1	85.284	0.0	control-noreward	ChosenDisplay		0.0		
1	85.3	0.25	control-noreward	TurnDisplay				
1	85.534	0.75	control-noreward	OutcomeDisplay				
2	86.287		loss-reward	ImageDisplay1		0.0		
2	88.293	0.75	loss-reward	StartDisplay				
2	89.045		loss-reward	ImageDisplay2		0.0		
2	92.288	1.6	loss-reward	ChoiceDisplay	1	1.164	1	1
2	93.475	0.436	loss-reward	ChosenDisplay		0.0		
2	93.893	0.25	loss-reward	TurnDisplay				
2	94.143	0.75	loss-reward	OutcomeDisplay				
3	94.896		control-noreward	ImageDisplay1		0.0		
3	97.136	0.75	control-noreward	StartDisplay				
3	97.888		control-noreward	ImageDisplay2		0.0		
3	100.897	1.6	control-noreward	ChoiceDisplay	1	0.452	1	1
3	101.365	1.148	control-noreward	ChosenDisplay		0.0		
3	102.502	0.25	control-noreward	TurnDisplay				
3	102.753	0.75	control-noreward	OutcomeDisplay				
4	103.505		loss-reward	ImageDisplay1		0.0		
4	105.494	0.75	loss-reward	StartDisplay				
4	106.246		loss-reward	ImageDisplay2		0.0		
4	109.506	1.6	loss-reward	ChoiceDisplay	1	0.605	1	1
4	110.125	0.995	loss-reward	ChosenDisplay		0.0		
4	111.111	0.25	loss-reward	TurnDisplay				
4	111.362	0.75	loss-reward	OutcomeDisplay				
5	112.114		control-reward	ImageDisplay1		0.0		
5	114.103	0.75	control-reward	StartDisplay				
5	114.855		control-reward	ImageDisplay2		0.0		
5	118.115	1.6	control-reward	ChoiceDisplay	1	0.296	1	1
5	118.433	1.304	control-reward	ChosenDisplay		0.0		
5	119.72	0.25	control-reward	TurnDisplay				
5	119.971	0.75	control-reward	OutcomeDisplay				
6	120.723		loss-noreward	ImageDisplay1		0.0		
6	122.712	0.75	loss-noreward	StartDisplay				
6	123.464		loss-noreward	ImageDisplay2		0.0		
6	126.724	1.6	loss-noreward	ChoiceDisplay	1	0.551	1	1
6	127.292	1.049	loss-noreward	ChosenDisplay		0.0		
6	128.329	0.25	loss-noreward	TurnDisplay				
6	128.58	0.75	loss-noreward	OutcomeDisplay				
7	129.332		loss-reward	ImageDisplay1		0.0		
7	131.572	0.75	loss-reward	StartDisplay				
7	132.324		loss-reward	ImageDisplay2		0.0		
7	135.333	1.6	loss-reward	ChoiceDisplay	1	0.937	1	1
7	136.286	0.663	loss-reward	ChosenDisplay		0.0		
7	136.938	0.25	loss-reward	TurnDisplay				
7	137.189	0.75	loss-reward	OutcomeDisplay				
8	137.941		loss-reward	ImageDisplay1		0.0		
8	140.181	0.75	loss-reward	StartDisplay				
8	140.933		loss-reward	ImageDisplay2		0.0		
8	143.942	1.6	loss-reward	ChoiceDisplay	1	0.638	1	1
8	144.594	0.962	loss-reward	ChosenDisplay		0.0		
8	145.547	0.25	loss-reward	TurnDisplay				
8	145.798	0.75	loss-reward	OutcomeDisplay				
9	146.55		loss-noreward	ImageDisplay1		0.0		
9	148.79	0.75	loss-noreward	StartDisplay				
9	149.542		loss-noreward	ImageDisplay2		0.0		
9	152.551	1.6	loss-noreward	ChoiceDisplay	1	1.063	1	1
9	153.638	0.537	loss-noreward	ChosenDisplay		0.0		
9	154.156	0.25	loss-noreward	TurnDisplay				
9	154.407	0.75	loss-noreward	OutcomeDisplay				
10	155.159		win-noreward	ImageDisplay1		0.0		
10	157.399	0.75	win-noreward	StartDisplay				
10	158.151		win-noreward	ImageDisplay2		0.0		
10	161.16	1.6	win-noreward	ChoiceDisplay	1	0.783	1	1
10	161.963	0.817	win-noreward	ChosenDisplay		0.0		
10	162.765	0.25	win-noreward	TurnDisplay				
10	163.016	0.75	win-noreward	OutcomeDisplay				
11	163.768		loss-noreward	ImageDisplay1		0.0		
11	166.008	0.75	loss-noreward	StartDisplay				
11	166.76		loss-noreward	ImageDisplay2		0.0		
11	169.769	1.6	loss-noreward	ChoiceDisplay	1	0.523	1	1
11	170.321	1.077	loss-noreward	ChosenDisplay		0.0		
11	171.374	0.25	loss-noreward	TurnDisplay				
11	171.625	0.75	loss-noreward	OutcomeDisplay				
12	172.377		win-reward	ImageDisplay1		0.0		
12	174.366	0.75	win-reward	StartDisplay				
12	175.119		win-reward	ImageDisplay2		0.0		
12	178.378	1.6	win-reward	ChoiceDisplay	1	1.555	1	1
12	179.95	0.0	win-reward	ChosenDisplay		0.0		
12	179.983	0.25	win-reward	TurnDisplay				
12	180.184	0.75	win-reward	OutcomeDisplay				
13	180.936		loss-reward	ImageDisplay1		0.0		
13	183.193	0.75	loss-reward	StartDisplay				
13	183.945		loss-reward	ImageDisplay2		0.0		
13	186.937	1.6	loss-reward	ChoiceDisplay	1	0.33	1	1
13	187.288	1.27	loss-reward	ChosenDisplay		0.0		
13	188.542	0.25	loss-reward	TurnDisplay				
13	188.793	0.75	loss-reward	OutcomeDisplay				
14	189.545		loss-noreward	ImageDisplay1		0.0		
14	191.785	0.75	loss-noreward	StartDisplay				
14	192.537		loss-noreward	ImageDisplay2		0.0		
14	195.546	1.6	loss-noreward	ChoiceDisplay	1	0.737	1	1
14	196.298	0.863	loss-noreward	ChosenDisplay		0.0		
14	197.151	0.25	loss-noreward	TurnDisplay				
14	197.402	0.75	loss-noreward	OutcomeDisplay				
15	198.154		loss-noreward	ImageDisplay1		0.0		
15	200.394	0.75	loss-noreward	StartDisplay				
15	201.146		loss-noreward	ImageDisplay2		0.0		
15	204.155	1.6	loss-noreward	ChoiceDisplay	1	0.557	1	1
15	204.724	1.043	loss-noreward	ChosenDisplay		0.0		
15	205.76	0.25	loss-noreward	TurnDisplay				
15	206.011	0.75	loss-noreward	OutcomeDisplay				
16	206.763		loss-reward	ImageDisplay1		0.0		
16	208.752	0.75	loss-reward	StartDisplay				
16	209.505		loss-reward	ImageDisplay2		0.0		
16	212.764	1.6	loss-reward	ChoiceDisplay	1	0.455	1	1
16	213.232	1.145	loss-reward	ChosenDisplay		0.0		
16	214.369	0.25	loss-reward	TurnDisplay				
16	214.62	0.75	loss-reward	OutcomeDisplay				
17	215.372		win-reward	ImageDisplay1		0.0		
17	217.612	0.75	win-reward	StartDisplay				
17	218.364		win-reward	ImageDisplay2		0.0		
17	221.373	1.6	win-reward	ChoiceDisplay	1	1.25	1	1
17	222.644	0.35	win-reward	ChosenDisplay		0.0		
17	222.978	0.25	win-reward	TurnDisplay				
17	223.229	0.75	win-reward	OutcomeDisplay				
18	223.981		loss-reward	ImageDisplay1		0.0		
18	226.221	0.75	loss-reward	StartDisplay				
18	226.973		loss-reward	ImageDisplay2		0.0		
18	229.982	1.6	loss-reward	ChoiceDisplay	1	1.434	1	1
18	231.437	0.166	loss-reward	ChosenDisplay		0.0		
18	231.587	0.25	loss-reward	TurnDisplay				
18	231.838	0.75	loss-reward	OutcomeDisplay				
19	232.59		win-noreward	ImageDisplay1		0.0		
19	234.579	0.75	win-noreward	StartDisplay				
19	235.332		win-noreward	ImageDisplay2		0.0		
19	238.591	1.6	win-noreward	ChoiceDisplay	1	0.737	1	1
19	239.344	0.863	win-noreward	ChosenDisplay		0.0		
19	240.196	0.25	win-noreward	TurnDisplay				
19	240.447	0.75	win-noreward	OutcomeDisplay				
20	241.199		loss-reward	ImageDisplay1		0.0		
20	243.439	0.75	loss-reward	StartDisplay				
20	244.191		loss-reward	ImageDisplay2		0.0		
20	247.2	1.6	loss-reward	ChoiceDisplay	1	1.001	1	1
20	248.22	0.599	loss-reward	ChosenDisplay		0.0		
20	248.805	0.25	loss-reward	TurnDisplay				
20	249.056	0.75	loss-reward	OutcomeDisplay				
21	249.808		control-noreward	ImageDisplay1		0.0		
21	252.048	0.75	control-noreward	StartDisplay				
21	252.8		control-noreward	ImageDisplay2		0.0		
21	255.809	1.6	control-noreward	ChoiceDisplay	1	0.58	1	1
21	256.411	1.02	control-noreward	ChosenDisplay		0.0		
21	257.414	0.25	control-noreward	TurnDisplay				
21	257.665	0.75	control-noreward	OutcomeDisplay				
22	258.417		win-noreward	ImageDisplay1		0.0		
22	260.657	0.75	win-noreward	StartDisplay				
22	261.41		win-noreward	ImageDisplay2		0.0		
22	264.419	1.6	win-noreward	ChoiceDisplay	1	1.292	1	1
22	265.722	0.308	win-noreward	ChosenDisplay		0.0		
22	266.023	0.25	win-noreward	TurnDisplay				
22	266.274	0.75	win-noreward	OutcomeDisplay				
23	267.026		control-reward	ImageDisplay1		0.0		
23	269.016	0.75	control-reward	StartDisplay				
23	269.768		control-reward	ImageDisplay2		0.0		
23	273.028	1.6	control-reward	ChoiceDisplay	1	0.595	1	1
23	273.646	1.005	control-reward	ChosenDisplay		0.0		
23	274.632	0.25	control-reward	TurnDisplay				
23	274.883	0.75	control-reward	OutcomeDisplay				
24	275.635		win-noreward	ImageDisplay1		0.0		
24	277.875	0.75	win-noreward	StartDisplay				
24	278.628		win-noreward	ImageDisplay2		0.0		
24	281.637	1.6	win-noreward	ChoiceDisplay	1	1.045	1	1
24	282.706	0.555	win-noreward	ChosenDisplay		0.0		
24	283.241	0.25	win-noreward	TurnDisplay				
24	283.492	0.75	win-noreward	OutcomeDisplay				
25	284.244		win-reward	ImageDisplay1		0.0		
25	286.484	0.75	win-reward	StartDisplay				
25	287.237		win-reward	ImageDisplay2		0.0		
25	290.246	1.6	win-reward	ChoiceDisplay	1	1.542	1	1
25	291.8	0.0	win-reward	ChosenDisplay		0.0		
25	291.85	0.25	win-reward	TurnDisplay				
25	292.051	0.75	win-reward	OutcomeDisplay				
26	292.787		loss-noreward	ImageDisplay1		0.0		
26	294.793	0.75	loss-noreward	StartDisplay				
26	295.545		loss-noreward	ImageDisplay2		0.0		
26	298.788	1.6	loss-noreward	ChoiceDisplay	1	0.385	1	1
26	299.189	1.215	loss-noreward	ChosenDisplay		0.0		
26	300.393	0.25	loss-noreward	TurnDisplay				
26	300.643	0.75	loss-noreward	OutcomeDisplay				
27	301.396		win-reward	ImageDisplay1		0.0		
27	303.636	0.75	win-reward	StartDisplay				
27	304.388		win-reward	ImageDisplay2		0.0		
27	307.397	1.6	win-reward	ChoiceDisplay	1	0.499	1	1
27	307.915	1.101	win-reward	ChosenDisplay		0.0		
27	309.002	0.25	win-reward	TurnDisplay				
27	309.252	0.75	win-reward	OutcomeDisplay				
28	310.005		win-noreward	ImageDisplay1		0.0		
28	312.245	0.75	win-noreward	StartDisplay				
28	312.997		win-noreward	ImageDisplay2		0.0		
28	316.006	1.6	win-noreward	ChoiceDisplay	1	0.511	1	1
28	316.541	1.089	win-noreward	ChosenDisplay		0.0		
28	317.611	0.25	win-noreward	TurnDisplay				
28	317.861	0.75	win-noreward	OutcomeDisplay				
29	318.614		control-noreward	ImageDisplay1		0.0		
29	320.854	0.75	control-noreward	StartDisplay				
29	321.606		control-noreward	ImageDisplay2		0.0		
29	324.615	1.6	control-noreward	ChoiceDisplay	1	0.75	1	1
29	325.384	0.85	control-noreward	ChosenDisplay		0.0		
29	326.22	0.25	control-noreward	TurnDisplay				
29	326.47	0.75	control-noreward	OutcomeDisplay				
30	327.223		control-noreward	ImageDisplay1		0.0		
30	329.212	0.75	control-noreward	StartDisplay				
30	329.964		control-noreward	ImageDisplay2		0.0		
30	333.224	1.6	control-noreward	ChoiceDisplay	1	0.712	1	1
30	333.959	0.888	control-noreward	ChosenDisplay		0.0		
30	334.829	0.25	control-noreward	TurnDisplay				
30	335.079	0.75	control-noreward	OutcomeDisplay				
31	335.832		loss-noreward	ImageDisplay1		0.0		
31	338.072	0.75	loss-noreward	StartDisplay				
31	338.824		loss-noreward	ImageDisplay2		0.0		
31	341.833	1.6	loss-noreward	ChoiceDisplay	1	0.361	1	1
31	342.217	1.239	loss-noreward	ChosenDisplay		0.0		
31	343.438	0.25	loss-noreward	TurnDisplay				
31	343.689	0.75	loss-noreward	OutcomeDisplay				
32	344.441		win-noreward	ImageDisplay1		0.0		
32	346.43	0.75	win-noreward	StartDisplay				
32	347.182		win-noreward	ImageDisplay2		0.0		
32	350.442	1.6	win-noreward	ChoiceDisplay	1	0.779	1	1
32	351.244	0.821	win-noreward	ChosenDisplay		0.0		
32	352.047	0.25	win-noreward	TurnDisplay				
32	352.298	0.75	win-noreward	OutcomeDisplay				
33	353.05		control-reward	ImageDisplay1		0.0		
33	355.039	0.75	control-reward	StartDisplay				
33	355.791		control-reward	ImageDisplay2		0.0		
33	359.051	1.6	control-reward	ChoiceDisplay	1	0.748	1	1
33	359.82	0.852	control-reward	ChosenDisplay		0.0		
33	360.656	0.25	control-reward	TurnDisplay				
33	360.907	0.75	control-reward	OutcomeDisplay				
34	361.659		control-noreward	ImageDisplay1		0.0		
34	363.648	0.75	control-noreward	StartDisplay				
34	364.4		control-noreward	ImageDisplay2		0.0		
34	367.66	1.6	control-noreward	ChoiceDisplay	1	0.994	1	1
34	368.68	0.606	control-noreward	ChosenDisplay		0.0		
34	369.265	0.25	control-noreward	TurnDisplay				
34	369.516	0.75	control-noreward	OutcomeDisplay				
35	370.268		win-reward	ImageDisplay1		0.0		
35	372.257	0.75	win-reward	StartDisplay				
35	373.009		win-reward	ImageDisplay2		0.0		
35	376.269	1.6	win-reward	ChoiceDisplay	1	0.935	1	1
35	377.222	0.665	win-reward	ChosenDisplay		0.0		
35	377.874	0.25	win-reward	TurnDisplay				
35	378.125	0.75	win-reward	OutcomeDisplay				
36	378.877		control-reward	ImageDisplay1		0.0		
36	381.117	0.75	control-reward	StartDisplay				
36	381.869		control-reward	ImageDisplay2		0.0		
36	384.878	1.6	control-reward	ChoiceDisplay	1	0.889	1	1
36	385.781	0.711	control-reward	ChosenDisplay		0.0		
36	386.483	0.25	control-reward	TurnDisplay				
36	386.734	0.75	control-reward	OutcomeDisplay				
37	387.486		win-noreward	ImageDisplay1		0.0		
37	389.475	0.75	win-noreward	StartDisplay				
37	390.227		win-noreward	ImageDisplay2		0.0		
37	393.487	1.6	win-noreward	ChoiceDisplay	1	0.837	1	1
37	394.34	0.763	win-noreward	ChosenDisplay		0.0		
37	395.092	0.25	win-noreward	TurnDisplay				
37	395.343	0.75	win-noreward	OutcomeDisplay				
38	396.095		loss-noreward	ImageDisplay1		0.0		
38	398.084	0.75	loss-noreward	StartDisplay				
38	398.837		loss-noreward	ImageDisplay2		0.0		
38	402.096	1.6	loss-noreward	ChoiceDisplay	1	0.632	1	1
38	402.748	0.968	loss-noreward	ChosenDisplay		0.0		
38	403.701	0.25	loss-noreward	TurnDisplay				
38	403.952	0.75	loss-noreward	OutcomeDisplay				
39	404.704		control-noreward	ImageDisplay1		0.0		
39	406.693	0.75	control-noreward	StartDisplay				
39	407.446		control-noreward	ImageDisplay2		0.0		
39	410.705	1.6	control-noreward	ChoiceDisplay	1	0.395	1	1
39	411.123	1.205	control-noreward	ChosenDisplay		0.0		
39	412.31	0.25	control-noreward	TurnDisplay				
39	412.561	0.75	control-noreward	OutcomeDisplay				
40	413.313		loss-reward	ImageDisplay1		0.0		
40	415.302	0.75	loss-reward	StartDisplay				
40	416.055		loss-reward	ImageDisplay2		0.0		
40	419.314	1.6	loss-reward	ChoiceDisplay	1	0.583	1	1
40	419.916	1.017	loss-reward	ChosenDisplay		0.0		
40	420.919	0.25	loss-reward	TurnDisplay				
40	421.17	0.75	loss-reward	OutcomeDisplay				
41	421.922		control-reward	ImageDisplay1		0.0		
41	424.162	0.75	control-reward	StartDisplay				
41	424.914		control-reward	ImageDisplay2		0.0		
41	427.923	1.6	control-reward	ChoiceDisplay	1	0.706	1	1
41	428.642	0.894	control-reward	ChosenDisplay		0.0		
41	429.528	0.25	control-reward	TurnDisplay				
41	429.779	0.75	control-reward	OutcomeDisplay				
42	430.531		control-noreward	ImageDisplay1		0.0		
42	432.771	0.75	control-noreward	StartDisplay				
42	433.523		control-noreward	ImageDisplay2		0.0		
42	436.532	1.6	control-noreward	ChoiceDisplay	1	0.568	1	1
42	437.117	1.032	control-noreward	ChosenDisplay		0.0		
42	438.137	0.25	control-noreward	TurnDisplay				
42	438.388	0.75	control-noreward	OutcomeDisplay				
43	439.14		win-reward	ImageDisplay1		0.0		
43	441.38	0.75	win-reward	StartDisplay				
43	442.132		win-reward	ImageDisplay2		0.0		
43	445.141	1.6	win-reward	ChoiceDisplay	1	0.55	1	1
43	445.71	1.05	win-reward	ChosenDisplay		0.0		
43	446.746	0.25	win-reward	TurnDisplay				
43	446.997	0.75	win-reward	OutcomeDisplay				
44	447.749		loss-reward	ImageDisplay1		0.0		
44	449.738	0.75	loss-reward	StartDisplay				
44	450.491		loss-reward	ImageDisplay2		0.0		
44	453.75	1.6	loss-reward	ChoiceDisplay	1	0.694	1	1
44	454.469	0.906	loss-reward	ChosenDisplay		0.0		
44	455.355	0.25	loss-reward	TurnDisplay				
44	455.606	0.75	loss-reward	OutcomeDisplay				
45	456.358		loss-reward	ImageDisplay1		0.0		
45	458.598	0.75	loss-reward	StartDisplay				
45	459.351		loss-reward	ImageDisplay2		0.0		
45	462.359	1.6	loss-reward	ChoiceDisplay	1	0.798	1	1
45	463.179	0.802	loss-reward	ChosenDisplay		0.0		
45	463.964	0.25	loss-reward	TurnDisplay				
45	464.215	0.75	loss-reward	OutcomeDisplay				
46	464.967		win-reward	ImageDisplay1		0.0		
46	467.207	0.75	win-reward	StartDisplay				
46	467.96		win-reward	ImageDisplay2		0.0		
46	470.969	1.6	win-reward	ChoiceDisplay	1	0.385	1	1
46	471.37	1.215	win-reward	ChosenDisplay		0.0		
46	472.573	0.25	win-reward	TurnDisplay				
46	472.824	0.75	win-reward	OutcomeDisplay				
47	473.576		control-noreward	ImageDisplay1		0.0		
47	475.566	0.75	control-noreward	StartDisplay				
47	476.318		control-noreward	ImageDisplay2		0.0		
47	479.578	1.6	control-noreward	ChoiceDisplay	1	0.525	1	1
47	480.129	1.075	control-noreward	ChosenDisplay		0.0		
47	481.182	0.25	control-noreward	TurnDisplay				
47	481.433	0.75	control-noreward	OutcomeDisplay				
48	482.185		loss-noreward	ImageDisplay1		0.0		
48	484.425	0.75	loss-noreward	StartDisplay				
48	485.178		loss-noreward	ImageDisplay2		0.0		
48	488.187	1.6	loss-noreward	ChoiceDisplay	1	0.53	1	1
48	488.738	1.07	loss-noreward	ChosenDisplay		0.0		
48	489.791	0.25	loss-noreward	TurnDisplay				
48	490.042	0.75	loss-noreward	OutcomeDisplay				
49	490.794		control-reward	ImageDisplay1		0.0		
49	492.784	0.75	control-reward	StartDisplay				
49	493.536		control-reward	ImageDisplay2		0.0		
49	496.796	1.6	control-reward	ChoiceDisplay	1	0.638	1	1
49	497.448	0.962	control-reward	ChosenDisplay		0.0		
49	498.4	0.25	control-reward	TurnDisplay				
49	498.651	0.75	control-reward	OutcomeDisplay				
50	499.403		control-reward	ImageDisplay1		0.0		
50	501.393	0.75	control-reward	StartDisplay				
50	502.145		control-reward	ImageDisplay2		0.0		
50	505.405	1.6	control-reward	ChoiceDisplay	1	0.744	1	1
50	506.174	0.856	control-reward	ChosenDisplay		0.0		
50	507.009	0.25	control-reward	TurnDisplay				
50	507.26	0.75	control-reward	OutcomeDisplay				
51	508.012		win-reward	ImageDisplay1		0.0		
51	510.002	0.75	win-reward	StartDisplay				
51	510.754		win-reward	ImageDisplay2		0.0		
51	514.014	1.6	win-reward	ChoiceDisplay	1	0.348	1	1
51	514.381	1.252	win-reward	ChosenDisplay		0.0		
51	515.619	0.25	win-reward	TurnDisplay				
51	515.869	0.75	win-reward	OutcomeDisplay				
52	516.622		loss-reward	ImageDisplay1		0.0		
52	518.611	0.75	loss-reward	StartDisplay				
52	519.363		loss-reward	ImageDisplay2		0.0		
52	522.623	1.6	loss-reward	ChoiceDisplay	1	0.345	1	1
52	522.991	1.255	loss-reward	ChosenDisplay		0.0		
52	524.228	0.25	loss-reward	TurnDisplay				
52	524.478	0.75	loss-reward	OutcomeDisplay				
53	525.231		control-reward	ImageDisplay1		0.0		
53	527.471	0.75	control-reward	StartDisplay				
53	528.223		control-reward	ImageDisplay2		0.0		
53	531.232	1.6	control-reward	ChoiceDisplay	1	0.883	1	1
53	532.134	0.717	control-reward	ChosenDisplay		0.0		
53	532.837	0.25	control-reward	TurnDisplay				
53	533.087	0.75	control-reward	OutcomeDisplay				
54	533.84		loss-reward	ImageDisplay1		0.0		
54	536.08	0.75	loss-reward	StartDisplay				
54	536.832		loss-reward	ImageDisplay2		0.0		
54	539.841	1.6	loss-reward	ChoiceDisplay		0.0		
54	541.429	0.0	loss-reward	ChosenDisplay		0.0		
54	541.446	0.25	loss-reward	TurnDisplay				
54	541.68	0.75	loss-reward	OutcomeDisplay				
55	542.432		control-reward	ImageDisplay1		0.0		
55	544.689	0.75	control-reward	StartDisplay				
55	545.441		control-reward	ImageDisplay2		0.0		
55	548.433	1.6	control-reward	ChoiceDisplay	1	0.311	1	1
55	548.767	1.289	control-reward	ChosenDisplay		0.0		
55	550.038	0.25	control-reward	TurnDisplay				
55	550.289	0.75	control-reward	OutcomeDisplay				
56	551.041		win-reward	ImageDisplay1		0.0		
56	553.03	0.75	win-reward	StartDisplay				
56	553.782		win-reward	ImageDisplay2		0.0		
56	557.042	1.6	win-reward	ChoiceDisplay		0.0		
56	558.63	0.0	win-reward	ChosenDisplay		0.0		
56	558.647	0.25	win-reward	TurnDisplay				
56	558.881	0.75	win-reward	OutcomeDisplay				
57	559.633		win-noreward	ImageDisplay1		0.0		
57	561.89	0.75	win-noreward	StartDisplay				
57	562.642		win-noreward	ImageDisplay2		0.0		
57	565.635	1.6	win-noreward	ChoiceDisplay	1	0.4	1	1
57	566.052	1.2	win-noreward	ChosenDisplay		0.0		
57	567.239	0.25	win-noreward	TurnDisplay				
57	567.49	0.75	win-noreward	OutcomeDisplay				
58	568.242		control-reward	ImageDisplay1		0.0		
58	570.482	0.75	control-reward	StartDisplay				
58	571.235		control-reward	ImageDisplay2		0.0		
58	574.244	1.6	control-reward	ChoiceDisplay	1	0.635	1	1
58	574.895	0.965	control-reward	ChosenDisplay		0.0		
58	575.848	0.25	control-reward	TurnDisplay				
58	576.099	0.75	control-reward	OutcomeDisplay				
59	576.851		loss-reward	ImageDisplay1		0.0		
59	578.841	0.75	loss-reward	StartDisplay				
59	579.593		loss-reward	ImageDisplay2		0.0		
59	582.853	1.6	loss-reward	ChoiceDisplay	1	0.702	1	1
59	583.571	0.898	loss-reward	ChosenDisplay		0.0		
59	584.457	0.25	loss-reward	TurnDisplay				
59	584.708	0.75	loss-reward	OutcomeDisplay				
60	585.46		loss-noreward	ImageDisplay1		0.0		
60	587.7	0.75	loss-noreward	StartDisplay				
60	588.453		loss-noreward	ImageDisplay2		0.0		
60	591.462	1.6	loss-noreward	ChoiceDisplay	1	1.289	1	1
60	592.765	0.311	loss-noreward	ChosenDisplay		0.0		
60	593.066	0.25	loss-noreward	TurnDisplay				
60	593.317	0.75	loss-noreward	OutcomeDisplay				
61	594.069		control-reward	ImageDisplay1		0.0		
61	596.059	0.75	control-reward	StartDisplay				
61	596.811		control-reward	ImageDisplay2		0.0		
61	600.071	1.6	control-reward	ChoiceDisplay	1	0.484	1	1
61	600.572	1.116	control-reward	ChosenDisplay		0.0		
61	601.675	0.25	control-reward	TurnDisplay				
61	601.926	0.75	control-reward	OutcomeDisplay				
62	602.678		loss-reward	ImageDisplay1		0.0		
62	604.668	0.75	loss-reward	StartDisplay				
62	605.42		loss-reward	ImageDisplay2		0.0		
62	608.68	1.6	loss-reward	ChoiceDisplay	1	0.577	1	1
62	609.281	1.023	loss-reward	ChosenDisplay		0.0		
62	610.284	0.25	loss-reward	TurnDisplay				
62	610.535	0.75	loss-reward	OutcomeDisplay				
63	611.287		loss-noreward	ImageDisplay1		0.0		
63	613.277	0.75	loss-noreward	StartDisplay				
63	614.029		loss-noreward	ImageDisplay2		0.0		
63	617.289	1.6	loss-noreward	ChoiceDisplay	1	0.68	1	1
63	617.991	0.92	loss-noreward	ChosenDisplay		0.0		
63	618.894	0.25	loss-noreward	TurnDisplay				
63	619.144	0.75	loss-noreward	OutcomeDisplay				
64	619.897		control-reward	ImageDisplay1		0.0		
64	621.886	0.75	control-reward	StartDisplay				
64	622.638		control-reward	ImageDisplay2		0.0		
64	625.898	1.6	control-reward	ChoiceDisplay	1	0.458	1	1
64	626.383	1.142	control-reward	ChosenDisplay		0.0		
64	627.503	0.25	control-reward	TurnDisplay				
64	627.753	0.75	control-reward	OutcomeDisplay				
65	628.506		win-noreward	ImageDisplay1		0.0		
65	630.495	0.75	win-noreward	StartDisplay				
65	631.247		win-noreward	ImageDisplay2		0.0		
65	634.507	1.6	win-noreward	ChoiceDisplay	1	0.819	1	1
65	635.343	0.781	win-noreward	ChosenDisplay		0.0		
65	636.112	0.25	win-noreward	TurnDisplay				
65	636.362	0.75	win-noreward	OutcomeDisplay				
66	637.115		loss-reward	ImageDisplay1		0.0		
66	639.355	0.75	loss-reward	StartDisplay				
66	640.107		loss-reward	ImageDisplay2		0.0		
66	643.116	1.6	loss-reward	ChoiceDisplay	1	0.974	1	1
66	644.102	0.626	loss-reward	ChosenDisplay		0.0		
66	644.721	0.25	loss-reward	TurnDisplay				
66	644.971	0.75	loss-reward	OutcomeDisplay				
67	645.724		win-noreward	ImageDisplay1		0.0		
67	647.713	0.75	win-noreward	StartDisplay				
67	648.465		win-noreward	ImageDisplay2		0.0		
67	651.725	1.6	win-noreward	ChoiceDisplay	1	1.25	1	1
67	652.995	0.35	win-noreward	ChosenDisplay		0.0		
67	653.33	0.25	win-noreward	TurnDisplay				
67	653.58	0.75	win-noreward	OutcomeDisplay				
68	654.333		control-noreward	ImageDisplay1		0.0		
68	656.322	0.75	control-noreward	StartDisplay				
68	657.074		control-noreward	ImageDisplay2		0.0		
68	660.334	1.6	control-noreward	ChoiceDisplay	1	0.659	1	1
68	661.019	0.941	control-noreward	ChosenDisplay		0.0		
68	661.939	0.25	control-noreward	TurnDisplay				
68	662.189	0.75	control-noreward	OutcomeDisplay				
69	662.942		win-reward	ImageDisplay1		0.0		
69	664.931	0.75	win-reward	StartDisplay				
69	665.683		win-reward	ImageDisplay2		0.0		
69	668.943	1.6	win-reward	ChoiceDisplay	1	0.564	1	1
69	669.528	1.036	win-reward	ChosenDisplay		0.0		
69	670.548	0.25	win-reward	TurnDisplay				
69	670.798	0.75	win-reward	OutcomeDisplay				
70	671.551		control-noreward	ImageDisplay1		0.0		
70	673.54	0.75	control-noreward	StartDisplay				
70	674.292		control-noreward	ImageDisplay2		0.0		
70	677.552	1.6	control-noreward	ChoiceDisplay	1	0.623	1	1
70	678.187	0.977	control-noreward	ChosenDisplay		0.0		
70	679.157	0.25	control-noreward	TurnDisplay				
70	679.408	0.75	control-noreward	OutcomeDisplay				
71	680.16		control-noreward	ImageDisplay1		0.0		
71	682.149	0.75	control-noreward	StartDisplay				
71	682.901		control-noreward	ImageDisplay2		0.0		
71	686.161	1.6	control-noreward	ChoiceDisplay	1	0.64	1	1
71	686.813	0.96	control-noreward	ChosenDisplay		0.0		
71	687.766	0.25	control-noreward	TurnDisplay				
71	688.017	0.75	control-noreward	OutcomeDisplay				
72	688.769		win-reward	ImageDisplay1		0.0		
72	690.758	0.75	win-reward	StartDisplay				
72	691.51		win-reward	ImageDisplay2		0.0		
72	694.77	1.6	win-reward	ChoiceDisplay	1	0.577	1	1
72	695.372	1.023	win-reward	ChosenDisplay		0.0		
72	696.375	0.25	win-reward	TurnDisplay				
72	696.626	0.75	win-reward	OutcomeDisplay				
73	697.378		win-reward	ImageDisplay1		0.0		
73	699.367	0.75	win-reward	StartDisplay				
73	700.119		win-reward	ImageDisplay2		0.0		
73	703.379	1.6	win-reward	ChoiceDisplay	1	0.376	1	1
73	703.78	1.224	win-reward	ChosenDisplay		0.0		
73	704.984	0.25	win-reward	TurnDisplay				
73	705.235	0.75	win-reward	OutcomeDisplay				
74	705.987		loss-noreward	ImageDisplay1		0.0		
74	707.976	0.75	loss-noreward	StartDisplay				
74	708.728		loss-noreward	ImageDisplay2		0.0		
74	711.988	1.6	loss-noreward	ChoiceDisplay	1	0.55	1	1
74	712.557	1.05	loss-noreward	ChosenDisplay		0.0		
74	713.593	0.25	loss-noreward	TurnDisplay				
74	713.844	0.75	loss-noreward	OutcomeDisplay				
75	714.596		control-reward	ImageDisplay1		0.0		
75	716.836	0.75	control-reward	StartDisplay				
75	717.588		control-reward	ImageDisplay2		0.0		
75	720.597	1.6	control-reward	ChoiceDisplay	1	1.088	1	1
75	721.7	0.512	control-reward	ChosenDisplay		0.0		
75	722.202	0.25	control-reward	TurnDisplay				
75	722.453	0.75	control-reward	OutcomeDisplay				
76	723.205		control-noreward	ImageDisplay1		0.0		
76	725.445	0.75	control-noreward	StartDisplay				
76	726.197		control-noreward	ImageDisplay2		0.0		
76	729.206	1.6	control-noreward	ChoiceDisplay	1	0.473	1	1
76	729.691	1.127	control-noreward	ChosenDisplay		0.0		
76	730.811	0.25	control-noreward	TurnDisplay				
76	731.062	0.75	control-noreward	OutcomeDisplay				
77	731.814		loss-reward	ImageDisplay1		0.0		
77	734.054	0.75	loss-reward	StartDisplay				
77	734.806		loss-reward	ImageDisplay2		0.0		
77	737.815	1.6	loss-reward	ChoiceDisplay	1	0.491	1	1
77	738.333	1.109	loss-reward	ChosenDisplay		0.0		
77	739.42	0.25	loss-reward	TurnDisplay				
77	739.671	0.75	loss-reward	OutcomeDisplay				
78	740.423		win-noreward	ImageDisplay1		0.0		
78	742.412	0.75	win-noreward	StartDisplay				
78	743.165		win-noreward	ImageDisplay2		0.0		
78	746.424	1.6	win-noreward	ChoiceDisplay		0.0		
78	748.012	0.0	win-noreward	ChosenDisplay		0.0		
78	748.029	0.25	win-noreward	TurnDisplay				
78	748.263	0.75	win-noreward	OutcomeDisplay				
79	749.015		win-reward	ImageDisplay1		0.0		
79	751.021	0.75	win-reward	StartDisplay				
79	751.774		win-reward	ImageDisplay2		0.0		
79	755.017	1.6	win-reward	ChoiceDisplay	1	0.664	1	1
79	755.702	0.936	win-reward	ChosenDisplay		0.0		
79	756.621	0.25	win-reward	TurnDisplay				
79	756.872	0.75	win-reward	OutcomeDisplay				
80	757.624		control-reward	ImageDisplay1		0.0		
80	759.614	0.75	control-reward	StartDisplay				
80	760.366		control-reward	ImageDisplay2		0.0		
80	763.626	1.6	control-reward	ChoiceDisplay	1	0.797	1	1
80	764.445	0.803	control-reward	ChosenDisplay		0.0		
80	765.23	0.25	control-reward	TurnDisplay				
80	765.481	0.75	control-reward	OutcomeDisplay				
81	766.233		loss-noreward	ImageDisplay1		0.0		
81	768.223	0.75	loss-noreward	StartDisplay				
81	768.975		loss-noreward	ImageDisplay2		0.0		
81	772.235	1.6	loss-noreward	ChoiceDisplay	1	0.548	1	1
81	772.803	1.052	loss-noreward	ChosenDisplay		0.0		
81	773.839	0.25	loss-noreward	TurnDisplay				
81	774.09	0.75	loss-noreward	OutcomeDisplay				
82	774.842		control-noreward	ImageDisplay1		0.0		
82	776.832	0.75	control-noreward	StartDisplay				
82	777.584		control-noreward	ImageDisplay2		0.0		
82	780.844	1.6	control-noreward	ChoiceDisplay	1	0.471	1	1
82	781.328	1.129	control-noreward	ChosenDisplay		0.0		
82	782.448	0.25	control-noreward	TurnDisplay				
82	782.699	0.75	control-noreward	OutcomeDisplay				
83	783.452		win-reward	ImageDisplay1		0.0		
83	785.692	0.75	win-reward	StartDisplay				
83	786.444		win-reward	ImageDisplay2		0.0		
83	789.453	1.6	win-reward	ChoiceDisplay	1	0.959	1	1
83	790.439	0.641	win-reward	ChosenDisplay		0.0		
83	791.058	0.25	win-reward	TurnDisplay				
83	791.308	0.75	win-reward	OutcomeDisplay				
84	792.061		control-reward	ImageDisplay1		0.0		
84	794.301	0.75	control-reward	StartDisplay				
84	795.053		control-reward	ImageDisplay2		0.0		
84	798.062	1.6	control-reward	ChoiceDisplay	1	0.587	1	1
84	798.664	1.013	control-reward	ChosenDisplay		0.0		
84	799.667	0.25	control-reward	TurnDisplay				
84	799.917	0.75	control-reward	OutcomeDisplay				
85	800.67		loss-noreward	ImageDisplay1		0.0		
85	802.659	0.75	loss-noreward	StartDisplay				
85	803.411		loss-noreward	ImageDisplay2		0.0		
85	806.671	1.6	loss-noreward	ChoiceDisplay		0.0		
85	808.259	0.0	loss-noreward	ChosenDisplay		0.0		
85	808.276	0.25	loss-noreward	TurnDisplay				
85	808.51	0.75	loss-noreward	OutcomeDisplay				
86	809.262		loss-reward	ImageDisplay1		0.0		
86	811.268	0.75	loss-reward	StartDisplay				
86	812.02		loss-reward	ImageDisplay2		0.0		
86	815.263	1.6	loss-reward	ChoiceDisplay	1	0.353	1	1
86	815.631	1.247	loss-reward	ChosenDisplay		0.0		
86	816.868	0.25	loss-reward	TurnDisplay				
86	817.119	0.75	loss-reward	OutcomeDisplay				
87	817.871		control-noreward	ImageDisplay1		0.0		
87	820.111	0.75	control-noreward	StartDisplay				
87	820.863		control-noreward	ImageDisplay2		0.0		
87	823.872	1.6	control-noreward	ChoiceDisplay		0.0		
87	825.46	0.0	control-noreward	ChosenDisplay		0.0		
87	825.477	0.25	control-noreward	TurnDisplay				
87	825.711	0.75	control-noreward	OutcomeDisplay				
88	826.463		win-noreward	ImageDisplay1		0.0		
88	828.72	0.75	win-noreward	StartDisplay				
88	829.472		win-noreward	ImageDisplay2		0.0		
88	832.464	1.6	win-noreward	ChoiceDisplay	1	0.786	1	1
88	833.267	0.814	win-noreward	ChosenDisplay		0.0		
88	834.069	0.25	win-noreward	TurnDisplay				
88	834.32	0.75	win-noreward	OutcomeDisplay				
89	835.072		win-reward	ImageDisplay1		0.0		
89	837.062	0.75	win-reward	StartDisplay				
89	837.814		win-reward	ImageDisplay2		0.0		
89	841.074	1.6	win-reward	ChoiceDisplay	1	0.648	1	1
89	841.742	0.952	win-reward	ChosenDisplay		0.0		
89	842.678	0.25	win-reward	TurnDisplay				
89	842.929	0.75	win-reward	OutcomeDisplay				
90	843.681		control-noreward	ImageDisplay1		0.0		
90	845.921	0.75	control-noreward	StartDisplay				
90	846.674		control-noreward	ImageDisplay2		0.0		
90	849.683	1.6	control-noreward	ChoiceDisplay	1	0.547	1	1
90	850.251	1.053	control-noreward	ChosenDisplay		0.0		
90	851.287	0.25	control-noreward	TurnDisplay				
90	851.538	0.75	control-noreward	OutcomeDisplay				
91	852.29		win-reward	ImageDisplay1		0.0		
91	854.53	0.75	win-reward	StartDisplay				
91	855.283		win-reward	ImageDisplay2		0.0		
91	858.292	1.6	win-reward	ChoiceDisplay	1	0.569	1	1
91	858.877	1.031	win-reward	ChosenDisplay		0.0		
91	859.896	0.25	win-reward	TurnDisplay				
91	860.147	0.75	win-reward	OutcomeDisplay				
92	860.899		control-reward	ImageDisplay1		0.0		
92	863.139	0.75	control-reward	StartDisplay				
92	863.892		control-reward	ImageDisplay2		0.0		
92	866.901	1.6	control-reward	ChoiceDisplay	1	0.4	1	1
92	867.319	1.2	control-reward	ChosenDisplay		0.0		
92	868.505	0.25	control-reward	TurnDisplay				
92	868.756	0.75	control-reward	OutcomeDisplay				
93	869.508		win-noreward	ImageDisplay1		0.0		
93	871.498	0.75	win-noreward	StartDisplay				
93	872.25		win-noreward	ImageDisplay2		0.0		
93	875.51	1.6	win-noreward	ChoiceDisplay	1	0.495	1	1
93	876.028	1.105	win-noreward	ChosenDisplay		0.0		
93	877.114	0.25	win-noreward	TurnDisplay				
93	877.365	0.75	win-noreward	OutcomeDisplay				
94	878.117		win-reward	ImageDisplay1		0.0		
94	880.357	0.75	win-reward	StartDisplay				
94	881.11		win-reward	ImageDisplay2		0.0		
94	884.119	1.6	win-reward	ChoiceDisplay	1	0.417	1	1
94	884.553	1.183	win-reward	ChosenDisplay		0.0		
94	885.724	0.25	win-reward	TurnDisplay				
94	885.974	0.75	win-reward	OutcomeDisplay				
95	886.727		win-noreward	ImageDisplay1		0.0		
95	888.967	0.75	win-noreward	StartDisplay				
95	889.719		win-noreward	ImageDisplay2		0.0		
95	892.728	1.6	win-noreward	ChoiceDisplay	1	0.49	1	1
95	893.229	1.11	win-noreward	ChosenDisplay		0.0		
95	894.333	0.25	win-noreward	TurnDisplay				
95	894.583	0.75	win-noreward	OutcomeDisplay				
