onset	duration	trial_type	response_time	stim_file	accuracy
58.11	1.0	go	0.0	Go_X	0.0
60.634	1.0	go	0.659	Go_O	1.0
63.158	1.0	go	0.444	Go_X	1.0
65.682	1.0	go	0.302	Go_O	1.0
68.206	1.0	go	0.283	Go_X	1.0
70.731	1.0	go	0.405	Go_O	1.0
73.255	0.25	stopsuccess	0.0	Go_O	1.0
75.779	1.0	go	0.494	Go_X	1.0
78.303	0.3	stopsuccess	0.0	Go_X	1.0
80.827	1.0	go	0.504	Go_O	1.0
83.352	1.0	go	0.376	Go_O	0.0
85.876	1.0	go	0.596	Go_X	1.0
88.4	0.35	stopfail	0.578	Go_O	0.0
90.924	1.0	go	0.614	Go_X	1.0
93.449	1.0	go	0.462	Go_O	1.0
95.973	0.3	stopsuccess	0.0	Go_X	1.0
98.497	0.35	stopfail	0.464	Go_O	0.0
101.021	1.0	go	0.816	Go_X	1.0
103.545	1.0	go	0.0	Go_O	0.0
106.07	0.3	stopsuccess	0.0	Go_X	1.0
108.594	1.0	go	0.662	Go_X	1.0
111.118	1.0	go	0.844	Go_O	1.0
113.642	0.35	stopsuccess	0.0	Go_O	1.0
116.166	1.0	go	0.537	Go_O	1.0
118.691	1.0	go	0.906	Go_X	1.0
121.215	0.4	stopsuccess	0.0	Go_X	1.0
123.739	1.0	go	0.453	Go_X	1.0
126.263	1.0	go	0.61	Go_O	1.0
128.787	0.45	stopfail	0.486	Go_O	0.0
131.312	1.0	go	0.907	Go_O	1.0
133.836	1.0	go	0.635	Go_X	1.0
136.36	1.0	go	0.568	Go_O	1.0
138.884	1.0	go	0.721	Go_X	1.0
141.408	1.0	go	0.605	Go_X	1.0
143.933	0.4	stopfail	0.437	Go_X	0.0
146.473	1.0	go	0.708	Go_O	1.0
148.998	1.0	go	0.837	Go_O	1.0
151.522	1.0	go	0.632	Go_X	1.0
154.046	1.0	go	0.49	Go_O	1.0
156.57	1.0	go	0.0	Go_X	0.0
159.094	0.35	stopfail	0.499	Go_O	0.0
161.619	1.0	go	0.245	Go_X	0.0
164.143	1.0	go	0.72	Go_O	1.0
166.667	1.0	go	0.455	Go_X	1.0
169.191	1.0	go	0.437	Go_O	1.0
171.716	1.0	go	0.441	Go_O	1.0
174.24	1.0	go	0.546	Go_X	1.0
176.764	0.3	stopfail	0.528	Go_X	0.0
179.288	1.0	go	0.896	Go_X	0.0
181.812	1.0	go	0.343	Go_O	1.0
184.337	0.25	stopfail	0.268	Go_O	0.0
186.861	1.0	go	0.453	Go_O	1.0
189.385	0.2	stopfail	0.377	Go_X	0.0
191.909	0.15	stopfail	0.334	Go_O	0.0
194.433	1.0	go	0.48	Go_X	1.0
196.958	1.0	go	0.612	Go_O	1.0
199.482	1.0	go	0.933	Go_X	1.0
202.006	1.0	go	0.469	Go_O	1.0
204.53	0.1	stopsuccess	0.0	Go_X	1.0
207.054	1.0	go	0.0	Go_X	0.0
209.579	0.15	stopsuccess	0.0	Go_O	1.0
212.103	1.0	go	0.496	Go_O	1.0
214.627	1.0	go	0.765	Go_X	1.0
217.151	1.0	go	0.0	Go_X	0.0
219.675	1.0	go	0.454	Go_O	1.0
222.2	1.0	go	0.472	Go_O	1.0
224.724	1.0	go	0.0	Go_X	0.0
227.248	1.0	go	0.556	Go_O	1.0
229.772	1.0	go	0.593	Go_X	1.0
232.296	1.0	go	0.536	Go_O	1.0
234.821	0.2	stopsuccess	0.0	Go_X	1.0
237.345	1.0	go	0.562	Go_X	0.0
239.869	1.0	go	0.654	Go_O	1.0
242.393	1.0	go	0.566	Go_X	1.0
244.917	0.25	stopsuccess	0.0	Go_O	1.0
247.442	1.0	go	0.0	Go_X	0.0
249.966	1.0	go	0.0	Go_O	0.0
252.49	1.0	go	0.531	Go_O	1.0
255.014	1.0	go	0.544	Go_X	1.0
257.538	1.0	go	0.491	Go_O	1.0
260.063	1.0	go	0.534	Go_X	0.0
262.587	0.3	stopsuccess	0.0	Go_X	1.0
265.111	1.0	go	0.382	Go_O	1.0
267.635	1.0	go	0.524	Go_X	1.0
270.159	0.35	stopsuccess	0.0	Go_O	1.0
272.684	1.0	go	0.643	Go_O	1.0
275.208	1.0	go	0.529	Go_X	1.0
277.732	0.4	stopfail	0.432	Go_X	0.0
280.256	1.0	go	0.471	Go_X	1.0
282.78	0.35	stopfail	0.463	Go_O	0.0
285.305	1.0	go	0.494	Go_O	1.0
287.829	1.0	go	0.519	Go_O	1.0
290.353	1.0	go	0.391	Go_X	1.0
292.877	1.0	go	0.442	Go_X	1.0
295.401	1.0	go	0.587	Go_O	1.0
297.926	0.3	stopsuccess	0.0	Go_X	1.0
300.45	0.35	stopsuccess	0.0	Go_O	1.0
302.974	1.0	go	0.769	Go_O	1.0
305.498	1.0	go	0.683	Go_X	1.0
308.022	0.4	stopsuccess	0.0	Go_X	1.0
310.547	1.0	go	0.712	Go_O	1.0
313.071	1.0	go	0.0	Go_X	0.0
315.595	1.0	go	0.586	Go_X	1.0
318.119	1.0	go	0.707	Go_O	1.0
320.643	1.0	go	0.377	Go_X	0.0
323.168	1.0	go	0.425	Go_O	1.0
325.692	0.45	stopfail	0.534	Go_O	0.0
328.216	1.0	go	0.469	Go_O	1.0
330.74	1.0	go	0.644	Go_X	1.0
333.265	1.0	go	0.445	Go_X	0.0
335.789	1.0	go	0.528	Go_O	1.0
338.313	1.0	go	0.852	Go_O	1.0
340.837	0.4	stopsuccess	0.0	Go_X	1.0
343.361	1.0	go	0.8	Go_X	1.0
345.886	1.0	go	0.891	Go_X	1.0
348.41	1.0	go	0.572	Go_O	1.0
350.934	1.0	go	0.382	Go_O	1.0
353.458	0.45	stopfail	0.448	Go_O	0.0
355.982	1.0	go	0.681	Go_X	1.0
358.507	1.0	go	0.553	Go_X	0.0
361.031	0.4	stopfail	0.581	Go_X	0.0
363.555	1.0	go	0.0	Go_O	0.0
366.079	0.35	stopsuccess	0.0	Go_O	1.0
368.603	1.0	go	0.567	Go_O	1.0
371.128	1.0	go	0.583	Go_X	1.0
373.652	1.0	go	0.655	Go_O	1.0
376.176	1.0	go	0.659	Go_X	1.0
378.7	1.0	go	0.566	Go_X	1.0
381.224	1.0	go	0.0	Go_O	0.0
383.749	1.0	go	0.0	Go_O	0.0
386.273	0.4	stopfail	0.515	Go_X	0.0
388.797	1.0	go	0.446	Go_X	1.0
391.321	1.0	go	0.765	Go_O	1.0
393.845	1.0	go	0.0	Go_X	0.0
396.37	0.35	stopfail	0.485	Go_O	0.0
398.894	1.0	go	0.0	Go_O	0.0
401.418	1.0	go	0.71	Go_X	1.0
403.942	1.0	go	0.623	Go_O	1.0
406.466	1.0	go	0.582	Go_X	1.0
408.991	0.3	stopfail	0.548	Go_X	0.0
411.515	1.0	go	0.755	Go_O	1.0
414.039	1.0	go	0.704	Go_X	1.0
416.563	0.25	stopsuccess	0.0	Go_O	1.0
419.087	1.0	go	0.985	Go_X	1.0
421.612	1.0	go	0.53	Go_O	1.0
424.136	0.3	stopsuccess	0.0	Go_X	1.0
426.66	1.0	go	0.824	Go_X	1.0
429.184	1.0	go	0.638	Go_O	1.0
431.708	0.35	stopsuccess	0.0	Go_O	1.0
434.233	1.0	go	0.627	Go_O	1.0
436.757	1.0	go	0.763	Go_X	1.0
439.281	1.0	go	0.446	Go_X	1.0
441.805	1.0	go	0.409	Go_O	1.0
444.329	1.0	go	0.497	Go_X	1.0
446.854	1.0	go	0.615	Go_O	1.0
449.378	0.4	stopsuccess	0.0	Go_X	1.0
451.902	1.0	go	0.78	Go_O	1.0
454.426	0.45	stopfail	0.517	Go_O	0.0
456.95	1.0	go	0.456	Go_X	1.0
459.475	1.0	go	0.676	Go_O	1.0
461.999	1.0	go	0.708	Go_X	1.0
464.523	1.0	go	0.524	Go_X	0.0
467.047	1.0	go	0.396	Go_O	1.0
469.571	0.4	stopfail	0.48	Go_X	0.0
472.096	1.0	go	0.665	Go_X	1.0
474.62	1.0	go	0.67	Go_O	1.0
477.144	1.0	go	0.955	Go_O	1.0
479.668	0.35	stopsuccess	0.0	Go_O	1.0
482.192	0.4	stopfail	0.803	Go_X	0.0
484.717	0.35	stopfail	0.392	Go_O	0.0
487.241	1.0	go	0.4	Go_X	0.0
489.765	0.3	stopfail	0.446	Go_X	0.0
492.289	1.0	go	0.477	Go_O	1.0
494.814	1.0	go	0.768	Go_X	1.0
497.338	1.0	go	0.752	Go_X	1.0
499.862	1.0	go	0.519	Go_O	1.0
502.386	1.0	go	0.595	Go_X	1.0
504.91	1.0	go	0.795	Go_O	1.0
507.435	1.0	go	0.409	Go_O	1.0
509.959	1.0	go	0.542	Go_X	1.0
512.483	0.25	stopsuccess	0.0	Go_O	1.0
515.007	1.0	go	0.994	Go_X	1.0
517.531	1.0	go	0.783	Go_O	1.0
520.056	0.3	stopsuccess	0.0	Go_X	1.0
522.58	1.0	go	0.0	Go_O	0.0
525.104	1.0	go	0.53	Go_X	1.0
527.628	1.0	go	0.327	Go_O	1.0
530.152	1.0	go	0.681	Go_X	1.0
532.677	1.0	go	0.615	Go_O	1.0
535.201	0.35	stopsuccess	0.0	Go_O	1.0
537.725	1.0	go	0.591	Go_X	0.0
540.249	1.0	go	0.66	Go_X	1.0
542.773	1.0	go	0.795	Go_O	1.0
545.298	0.4	stopfail	0.624	Go_X	0.0
547.822	1.0	go	0.0	Go_O	0.0
550.346	0.35	stopsuccess	0.0	Go_O	1.0
552.87	1.0	go	0.96	Go_X	1.0
555.394	1.0	go	0.538	Go_O	1.0
557.919	1.0	go	0.565	Go_X	1.0
560.443	1.0	go	0.359	Go_O	1.0
562.967	1.0	go	0.42	Go_X	1.0
565.491	1.0	go	0.476	Go_O	1.0
568.015	1.0	go	0.64	Go_X	1.0
570.54	0.4	stopfail	0.501	Go_X	0.0
573.064	1.0	go	0.66	Go_X	1.0
575.588	1.0	go	0.627	Go_O	1.0
578.112	1.0	go	0.428	Go_X	1.0
580.636	1.0	go	0.446	Go_O	1.0
583.161	0.35	stopsuccess	0.0	Go_O	1.0
585.685	1.0	go	0.709	Go_X	0.0
588.209	0.4	stopfail	0.437	Go_X	0.0
590.733	1.0	go	0.415	Go_O	1.0
593.257	1.0	go	0.601	Go_X	1.0
595.782	0.35	stopfail	0.594	Go_O	0.0
598.306	1.0	go	0.462	Go_O	1.0
600.83	1.0	go	0.823	Go_O	1.0
603.354	1.0	go	0.607	Go_X	1.0
605.878	1.0	go	0.486	Go_O	1.0
608.403	1.0	go	0.0	Go_X	0.0
610.927	1.0	go	0.578	Go_O	1.0
613.451	1.0	go	0.317	Go_X	1.0
615.975	1.0	go	0.8	Go_X	1.0
618.499	1.0	go	0.403	Go_O	1.0
621.024	1.0	go	0.445	Go_X	1.0
623.548	0.3	stopsuccess	0.0	Go_X	1.0
626.072	1.0	go	0.502	Go_O	1.0
628.596	1.0	go	0.654	Go_O	1.0
631.12	0.35	stopfail	0.37	Go_O	0.0
633.645	1.0	go	0.705	Go_X	0.0
636.169	0.3	stopfail	0.482	Go_X	0.0
638.693	1.0	go	0.546	Go_O	1.0
641.217	1.0	go	0.681	Go_X	1.0
643.742	0.25	stopsuccess	0.0	Go_O	1.0
646.266	1.0	go	0.0	Go_X	0.0
648.79	0.3	stopfail	0.424	Go_X	0.0
651.314	1.0	go	0.403	Go_O	1.0
653.838	1.0	go	0.745	Go_X	1.0
656.362	1.0	go	0.75	Go_O	1.0
658.887	0.25	stopsuccess	0.0	Go_O	1.0
661.411	1.0	go	0.59	Go_X	0.0
663.935	1.0	go	0.533	Go_O	1.0
666.459	1.0	go	0.691	Go_X	1.0
668.983	1.0	go	0.923	Go_O	1.0
671.508	0.3	stopfail	0.479	Go_X	0.0
674.032	1.0	go	0.0	Go_X	0.0
676.556	1.0	go	0.938	Go_O	1.0
679.08	0.25	stopsuccess	0.0	Go_O	1.0
681.605	1.0	go	0.0	Go_O	0.0
684.129	1.0	go	0.416	Go_X	1.0
686.653	1.0	go	0.388	Go_O	1.0
689.177	1.0	go	0.466	Go_X	1.0
691.701	0.3	stopsuccess	0.0	Go_X	1.0
694.226	1.0	go	0.503	Go_O	1.0
696.75	0.35	stopsuccess	0.0	Go_O	1.0
699.274	1.0	go	0.468	Go_X	0.0
701.798	1.0	go	0.589	Go_O	1.0
704.322	0.4	stopfail	0.464	Go_X	0.0
706.847	1.0	go	0.44	Go_X	1.0
709.371	1.0	go	0.585	Go_X	1.0
711.895	1.0	go	0.429	Go_O	1.0
714.419	1.0	go	0.0	Go_O	0.0
716.943	0.35	stopsuccess	0.0	Go_O	1.0
719.468	1.0	go	0.0	Go_X	0.0
721.992	0.4	stopfail	0.428	Go_X	0.0
724.516	1.0	go	0.526	Go_X	1.0
727.04	1.0	go	0.0	Go_O	0.0
729.564	1.0	go	0.421	Go_O	1.0
732.089	1.0	go	0.479	Go_X	1.0
734.613	1.0	go	0.276	Go_O	1.0
737.137	1.0	go	0.371	Go_X	1.0
739.661	0.35	stopfail	0.574	Go_O	0.0
742.185	1.0	go	0.617	Go_X	1.0
744.71	1.0	go	0.696	Go_O	1.0
747.234	0.3	stopsuccess	0.0	Go_X	1.0
749.775	1.0	go	0.517	Go_X	1.0
752.299	1.0	go	0.448	Go_O	1.0
754.823	0.35	stopfail	0.424	Go_O	0.0
757.347	1.0	go	0.635	Go_O	1.0
759.872	1.0	go	0.489	Go_X	1.0
762.396	1.0	go	0.629	Go_O	1.0
764.92	1.0	go	0.949	Go_X	1.0
767.444	0.3	stopsuccess	0.0	Go_X	1.0
769.968	1.0	go	0.76	Go_O	1.0
772.493	0.35	stopsuccess	0.0	Go_O	1.0
775.017	1.0	go	0.428	Go_X	1.0
777.541	1.0	go	0.411	Go_O	1.0
780.065	1.0	go	0.445	Go_X	1.0
782.589	1.0	go	0.729	Go_O	1.0
785.114	1.0	go	0.528	Go_X	1.0
787.638	0.4	stopfail	0.698	Go_X	0.0
790.162	1.0	go	0.425	Go_X	1.0
792.686	1.0	go	0.567	Go_O	1.0
795.21	0.35	stopsuccess	0.0	Go_O	1.0
797.735	0.4	stopfail	0.529	Go_X	0.0
800.259	1.0	go	0.481	Go_O	1.0
802.783	1.0	go	0.438	Go_X	1.0
805.307	1.0	go	0.455	Go_O	1.0
807.831	1.0	go	0.839	Go_X	0.0
810.356	0.35	stopfail	0.296	Go_O	0.0
812.88	1.0	go	0.468	Go_X	1.0
