frame	onset	duration	trial_type	event_type	response_type	response_time	stim_file	accuracy
0	80.397		loss-noreward	ImageDisplay1		0.0		
0	82.386		loss-noreward	StartDisplay		0.0		
0	83.138		loss-noreward	ImageDisplay2		0.0		
0	86.381		loss-noreward	ChoiceDisplay		0.0		
0	87.986		loss-noreward	ChosenDisplay		0.0		
0	88.036		loss-noreward	TurnDisplay				
0	88.237		loss-noreward	OutcomeDisplay				
1	88.989		win-reward	ImageDisplay1		0.0		
1	91.229		win-reward	StartDisplay		0.0		
1	91.982		win-reward	ImageDisplay2		0.0		
1	94.991		win-reward	ChoiceDisplay		0.0		
1	96.579		win-reward	ChosenDisplay		0.0		
1	96.629		win-reward	TurnDisplay				
1	96.829		win-reward	OutcomeDisplay				
2	97.582		loss-noreward	ImageDisplay1		0.0		
2	99.588		loss-noreward	StartDisplay		0.0		
2	100.34		loss-noreward	ImageDisplay2		0.0		
2	103.583		loss-noreward	ChoiceDisplay	3	0.475	3	3
2	104.084		loss-noreward	ChosenDisplay		0.0		
2	105.188		loss-noreward	TurnDisplay				
2	105.455		loss-noreward	OutcomeDisplay				
3	106.191		control-noreward	ImageDisplay1		0.0		
3	108.18		control-noreward	StartDisplay		0.0		
3	108.932		control-noreward	ImageDisplay2		0.0		
3	112.192		control-noreward	ChoiceDisplay	3	0.415	3	3
3	112.627		control-noreward	ChosenDisplay		0.0		
3	113.797		control-noreward	TurnDisplay				
3	114.047		control-noreward	OutcomeDisplay				
4	114.8		control-noreward	ImageDisplay1		0.0		
4	116.789		control-noreward	StartDisplay		0.0		
4	117.541		control-noreward	ImageDisplay2		0.0		
4	120.801		control-noreward	ChoiceDisplay	3	0.238	3	3
4	121.052		control-noreward	ChosenDisplay		0.0		
4	122.406		control-noreward	TurnDisplay				
4	122.656		control-noreward	OutcomeDisplay				
5	123.409		control-noreward	ImageDisplay1		0.0		
5	125.398		control-noreward	StartDisplay		0.0		
5	126.15		control-noreward	ImageDisplay2		0.0		
5	129.41		control-noreward	ChoiceDisplay	3	0.453	3	3
5	129.878		control-noreward	ChosenDisplay		0.0		
5	131.015		control-noreward	TurnDisplay				
5	131.265		control-noreward	OutcomeDisplay				
6	132.018		loss-noreward	ImageDisplay1		0.0		
6	134.007		loss-noreward	StartDisplay		0.0		
6	134.759		loss-noreward	ImageDisplay2		0.0		
6	138.019		loss-noreward	ChoiceDisplay	3	0.369	3	3
6	138.403		loss-noreward	ChosenDisplay		0.0		
6	139.624		loss-noreward	TurnDisplay				
6	139.875		loss-noreward	OutcomeDisplay				
7	140.627		win-reward	ImageDisplay1		0.0		
7	142.867		win-reward	StartDisplay		0.0		
7	143.619		win-reward	ImageDisplay2		0.0		
7	146.628		win-reward	ChoiceDisplay	3	0.268	3	3
7	146.912		win-reward	ChosenDisplay		0.0		
7	148.233		win-reward	TurnDisplay				
7	148.484		win-reward	OutcomeDisplay				
8	149.236		win-noreward	ImageDisplay1		0.0		
8	151.225		win-noreward	StartDisplay		0.0		
8	151.977		win-noreward	ImageDisplay2		0.0		
8	155.237		win-noreward	ChoiceDisplay	3	0.192	3	3
8	155.454		win-noreward	ChosenDisplay		0.0		
8	156.842		win-noreward	TurnDisplay				
8	157.093		win-noreward	OutcomeDisplay				
9	157.845		control-noreward	ImageDisplay1		0.0		
9	159.834		control-noreward	StartDisplay		0.0		
9	160.586		control-noreward	ImageDisplay2		0.0		
9	163.846		control-noreward	ChoiceDisplay	3	0.924	3	3
9	164.782		control-noreward	ChosenDisplay		0.0		
9	165.451		control-noreward	TurnDisplay				
9	165.702		control-noreward	OutcomeDisplay				
10	166.454		control-reward	ImageDisplay1		0.0		
10	168.694		control-reward	StartDisplay		0.0		
10	169.446		control-reward	ImageDisplay2		0.0		
10	172.455		control-reward	ChoiceDisplay	3	0.57	3	3
10	173.04		control-reward	ChosenDisplay		0.0		
10	174.06		control-reward	TurnDisplay				
10	174.311		control-reward	OutcomeDisplay				
11	175.063		win-noreward	ImageDisplay1		0.0		
11	177.052		win-noreward	StartDisplay		0.0		
11	177.804		win-noreward	ImageDisplay2		0.0		
11	181.064		win-noreward	ChoiceDisplay	3	0.454	3	3
11	181.532		win-noreward	ChosenDisplay		0.0		
11	182.669		win-noreward	TurnDisplay				
11	182.92		win-noreward	OutcomeDisplay				
12	183.672		control-noreward	ImageDisplay1		0.0		
12	185.661		control-noreward	StartDisplay		0.0		
12	186.413		control-noreward	ImageDisplay2		0.0		
12	189.673		control-noreward	ChoiceDisplay	3	0.53	3	3
12	190.225		control-noreward	ChosenDisplay		0.0		
12	191.278		control-noreward	TurnDisplay				
12	191.529		control-noreward	OutcomeDisplay				
13	192.281		loss-reward	ImageDisplay1		0.0		
13	194.521		loss-reward	StartDisplay		0.0		
13	195.273		loss-reward	ImageDisplay2		0.0		
13	198.282		loss-reward	ChoiceDisplay	3	0.263	3	3
13	198.566		loss-reward	ChosenDisplay		0.0		
13	199.887		loss-reward	TurnDisplay				
13	200.138		loss-reward	OutcomeDisplay				
14	200.89		loss-reward	ImageDisplay1		0.0		
14	203.13		loss-reward	StartDisplay		0.0		
14	203.882		loss-reward	ImageDisplay2		0.0		
14	206.891		loss-reward	ChoiceDisplay	3	0.43	3	3
14	207.343		loss-reward	ChosenDisplay		0.0		
14	208.496		loss-reward	TurnDisplay				
14	208.747		loss-reward	OutcomeDisplay				
15	209.499		control-noreward	ImageDisplay1		0.0		
15	211.488		control-noreward	StartDisplay		0.0		
15	212.241		control-noreward	ImageDisplay2		0.0		
15	215.5		control-noreward	ChoiceDisplay	3	0.4	3	3
15	215.918		control-noreward	ChosenDisplay		0.0		
15	217.105		control-noreward	TurnDisplay				
15	217.356		control-noreward	OutcomeDisplay				
16	218.108		win-noreward	ImageDisplay1		0.0		
16	220.097		win-noreward	StartDisplay		0.0		
16	220.85		win-noreward	ImageDisplay2		0.0		
16	224.109		win-noreward	ChoiceDisplay	3	0.665	3	3
16	224.795		win-noreward	ChosenDisplay		0.0		
16	225.714		win-noreward	TurnDisplay				
16	225.965		win-noreward	OutcomeDisplay				
17	226.717		loss-reward	ImageDisplay1		0.0		
17	228.957		loss-reward	StartDisplay		0.0		
17	229.709		loss-reward	ImageDisplay2		0.0		
17	232.718		loss-reward	ChoiceDisplay	3	0.544	3	3
17	233.287		loss-reward	ChosenDisplay		0.0		
17	234.323		loss-reward	TurnDisplay				
17	234.574		loss-reward	OutcomeDisplay				
18	235.326		win-reward	ImageDisplay1		0.0		
18	237.566		win-reward	StartDisplay		0.0		
18	238.318		win-reward	ImageDisplay2		0.0		
18	241.327		win-reward	ChoiceDisplay	3	0.738	3	3
18	242.08		win-reward	ChosenDisplay		0.0		
18	242.932		win-reward	TurnDisplay				
18	243.183		win-reward	OutcomeDisplay				
19	243.935		control-reward	ImageDisplay1		0.0		
19	246.175		control-reward	StartDisplay		0.0		
19	246.927		control-reward	ImageDisplay2		0.0		
19	249.936		control-reward	ChoiceDisplay	3	0.485	3	3
19	250.438		control-reward	ChosenDisplay		0.0		
19	251.541		control-reward	TurnDisplay				
19	251.792		control-reward	OutcomeDisplay				
20	252.544		win-noreward	ImageDisplay1		0.0		
20	254.534		win-noreward	StartDisplay		0.0		
20	255.286		win-noreward	ImageDisplay2		0.0		
20	258.546		win-noreward	ChoiceDisplay	3	0.984	3	3
20	259.548		win-noreward	ChosenDisplay		0.0		
20	260.15		win-noreward	TurnDisplay				
20	260.401		win-noreward	OutcomeDisplay				
21	261.153		loss-reward	ImageDisplay1		0.0		
21	263.393		loss-reward	StartDisplay		0.0		
21	264.146		loss-reward	ImageDisplay2		0.0		
21	267.155		loss-reward	ChoiceDisplay	3	0.602	3	3
21	267.773		loss-reward	ChosenDisplay		0.0		
21	268.759		loss-reward	TurnDisplay				
21	269.01		loss-reward	OutcomeDisplay				
22	269.762		win-reward	ImageDisplay1		0.0		
22	272.002		win-reward	StartDisplay		0.0		
22	272.755		win-reward	ImageDisplay2		0.0		
22	275.764		win-reward	ChoiceDisplay	3	0.745	3	3
22	276.533		win-reward	ChosenDisplay		0.0		
22	277.368		win-reward	TurnDisplay				
22	277.619		win-reward	OutcomeDisplay				
23	278.371		win-reward	ImageDisplay1		0.0		
23	280.611		win-reward	StartDisplay		0.0		
23	281.364		win-reward	ImageDisplay2		0.0		
23	284.373		win-reward	ChoiceDisplay	3	0.669	3	3
23	285.058		win-reward	ChosenDisplay		0.0		
23	285.977		win-reward	TurnDisplay				
23	286.228		win-reward	OutcomeDisplay				
24	286.98		win-noreward	ImageDisplay1		0.0		
24	288.97		win-noreward	StartDisplay		0.0		
24	289.722		win-noreward	ImageDisplay2		0.0		
24	292.982		win-noreward	ChoiceDisplay	3	0.501	3	3
24	293.5		win-noreward	ChosenDisplay		0.0		
24	294.586		win-noreward	TurnDisplay				
24	294.837		win-noreward	OutcomeDisplay				
25	295.589		control-reward	ImageDisplay1		0.0		
25	297.829		control-reward	StartDisplay		0.0		
25	298.582		control-reward	ImageDisplay2		0.0		
25	301.591		control-reward	ChoiceDisplay	3	0.723	3	3
25	302.326		control-reward	ChosenDisplay		0.0		
25	303.195		control-reward	TurnDisplay				
25	303.446		control-reward	OutcomeDisplay				
26	304.198		win-noreward	ImageDisplay1		0.0		
26	306.188		win-noreward	StartDisplay		0.0		
26	306.94		win-noreward	ImageDisplay2		0.0		
26	310.2		win-noreward	ChoiceDisplay	3	0.373	3	3
26	310.584		win-noreward	ChosenDisplay		0.0		
26	311.805		win-noreward	TurnDisplay				
26	312.055		win-noreward	OutcomeDisplay				
27	312.808		loss-reward	ImageDisplay1		0.0		
27	315.048		loss-reward	StartDisplay		0.0		
27	315.8		loss-reward	ImageDisplay2		0.0		
27	318.809		loss-reward	ChoiceDisplay	3	0.554	3	3
27	319.377		loss-reward	ChosenDisplay		0.0		
27	320.414		loss-reward	TurnDisplay				
27	320.664		loss-reward	OutcomeDisplay				
28	321.417		control-reward	ImageDisplay1		0.0		
28	323.657		control-reward	StartDisplay		0.0		
28	324.409		control-reward	ImageDisplay2		0.0		
28	327.418		control-reward	ChoiceDisplay	3	0.515	3	3
28	327.953		control-reward	ChosenDisplay		0.0		
28	329.023		control-reward	TurnDisplay				
28	329.273		control-reward	OutcomeDisplay				
29	330.026		loss-reward	ImageDisplay1		0.0		
29	332.266		loss-reward	StartDisplay		0.0		
29	333.018		loss-reward	ImageDisplay2		0.0		
29	336.027		loss-reward	ChoiceDisplay	3	0.515	3	3
29	336.562		loss-reward	ChosenDisplay		0.0		
29	337.632		loss-reward	TurnDisplay				
29	337.882		loss-reward	OutcomeDisplay				
30	338.635		loss-reward	ImageDisplay1		0.0		
30	340.875		loss-reward	StartDisplay		0.0		
30	341.627		loss-reward	ImageDisplay2		0.0		
30	344.636		loss-reward	ChoiceDisplay	3	0.602	3	3
30	345.254		loss-reward	ChosenDisplay		0.0		
30	346.241		loss-reward	TurnDisplay				
30	346.491		loss-reward	OutcomeDisplay				
31	347.244		control-noreward	ImageDisplay1		0.0		
31	349.233		control-noreward	StartDisplay		0.0		
31	349.985		control-noreward	ImageDisplay2		0.0		
31	353.245		control-noreward	ChoiceDisplay	3	0.647	3	3
31	353.914		control-noreward	ChosenDisplay		0.0		
31	354.85		control-noreward	TurnDisplay				
31	355.1		control-noreward	OutcomeDisplay				
32	355.853		control-reward	ImageDisplay1		0.0		
32	358.093		control-reward	StartDisplay		0.0		
32	358.845		control-reward	ImageDisplay2		0.0		
32	361.854		control-reward	ChoiceDisplay	3	0.555	3	3
32	362.422		control-reward	ChosenDisplay		0.0		
32	363.459		control-reward	TurnDisplay				
32	363.709		control-reward	OutcomeDisplay				
33	364.462		win-reward	ImageDisplay1		0.0		
33	366.702		win-reward	StartDisplay		0.0		
33	367.454		win-reward	ImageDisplay2		0.0		
33	370.463		win-reward	ChoiceDisplay	3	0.557	3	3
33	371.031		win-reward	ChosenDisplay		0.0		
33	372.068		win-reward	TurnDisplay				
33	372.319		win-reward	OutcomeDisplay				
34	373.071		loss-noreward	ImageDisplay1		0.0		
34	375.06		loss-noreward	StartDisplay		0.0		
34	375.812		loss-noreward	ImageDisplay2		0.0		
34	379.072		loss-noreward	ChoiceDisplay	3	0.524	3	3
34	379.624		loss-noreward	ChosenDisplay		0.0		
34	380.677		loss-noreward	TurnDisplay				
34	380.928		loss-noreward	OutcomeDisplay				
35	381.68		loss-reward	ImageDisplay1		0.0		
35	383.92		loss-reward	StartDisplay		0.0		
35	384.672		loss-reward	ImageDisplay2		0.0		
35	387.681		loss-reward	ChoiceDisplay	3	0.412	3	3
35	388.116		loss-reward	ChosenDisplay		0.0		
35	389.286		loss-reward	TurnDisplay				
35	389.537		loss-reward	OutcomeDisplay				
36	390.289		control-reward	ImageDisplay1		0.0		
36	392.529		control-reward	StartDisplay		0.0		
36	393.281		control-reward	ImageDisplay2		0.0		
36	396.29		control-reward	ChoiceDisplay		0.0		
36	397.878		control-reward	ChosenDisplay		0.0		
36	397.895		control-reward	TurnDisplay				
36	398.463		control-reward	OutcomeDisplay				
37	398.881		loss-reward	ImageDisplay1		0.0		
37	401.138		loss-reward	StartDisplay		0.0		
37	401.89		loss-reward	ImageDisplay2		0.0		
37	404.882		loss-reward	ChoiceDisplay	3	0.325	3	3
37	405.233		loss-reward	ChosenDisplay		0.0		
37	406.487		loss-reward	TurnDisplay				
37	406.738		loss-reward	OutcomeDisplay				
38	407.49		win-reward	ImageDisplay1		0.0		
38	409.73		win-reward	StartDisplay		0.0		
38	410.482		win-reward	ImageDisplay2		0.0		
38	413.491		win-reward	ChoiceDisplay	3	0.452	3	3
38	413.96		win-reward	ChosenDisplay		0.0		
38	415.096		win-reward	TurnDisplay				
38	415.347		win-reward	OutcomeDisplay				
39	416.099		loss-reward	ImageDisplay1		0.0		
39	418.339		loss-reward	StartDisplay		0.0		
39	419.092		loss-reward	ImageDisplay2		0.0		
39	422.1		loss-reward	ChoiceDisplay	3	0.366	3	3
39	422.485		loss-reward	ChosenDisplay		0.0		
39	423.705		loss-reward	TurnDisplay				
39	423.956		loss-reward	OutcomeDisplay				
40	424.708		win-reward	ImageDisplay1		0.0		
40	426.948		win-reward	StartDisplay		0.0		
40	427.701		win-reward	ImageDisplay2		0.0		
40	430.71		win-reward	ChoiceDisplay	3	0.431	3	3
40	431.161		win-reward	ChosenDisplay		0.0		
40	432.314		win-reward	TurnDisplay				
40	432.565		win-reward	OutcomeDisplay				
41	433.317		win-reward	ImageDisplay1		0.0		
41	435.557		win-reward	StartDisplay		0.0		
41	436.31		win-reward	ImageDisplay2		0.0		
41	439.319		win-reward	ChoiceDisplay	3	0.442	3	3
41	439.787		win-reward	ChosenDisplay		0.0		
41	440.923		win-reward	TurnDisplay				
41	441.174		win-reward	OutcomeDisplay				
42	441.926		win-noreward	ImageDisplay1		0.0		
42	443.916		win-noreward	StartDisplay		0.0		
42	444.668		win-noreward	ImageDisplay2		0.0		
42	447.928		win-noreward	ChoiceDisplay	3	0.538	3	3
42	448.479		win-noreward	ChosenDisplay		0.0		
42	449.532		win-noreward	TurnDisplay				
42	449.783		win-noreward	OutcomeDisplay				
43	450.535		win-reward	ImageDisplay1		0.0		
43	452.775		win-reward	StartDisplay		0.0		
43	453.528		win-reward	ImageDisplay2		0.0		
43	456.537		win-reward	ChoiceDisplay	3	0.484	3	3
43	457.038		win-reward	ChosenDisplay		0.0		
43	458.141		win-reward	TurnDisplay				
43	458.392		win-reward	OutcomeDisplay				
44	459.144		control-reward	ImageDisplay1		0.0		
44	461.384		control-reward	StartDisplay		0.0		
44	462.137		control-reward	ImageDisplay2		0.0		
44	465.146		control-reward	ChoiceDisplay	3	0.538	3	3
44	465.697		control-reward	ChosenDisplay		0.0		
44	466.75		control-reward	TurnDisplay				
44	467.001		control-reward	OutcomeDisplay				
45	467.753		control-reward	ImageDisplay1		0.0		
45	469.993		control-reward	StartDisplay		0.0		
45	470.746		control-reward	ImageDisplay2		0.0		
45	473.755		control-reward	ChoiceDisplay	3	0.419	3	3
45	474.189		control-reward	ChosenDisplay		0.0		
45	475.36		control-reward	TurnDisplay				
45	475.61		control-reward	OutcomeDisplay				
46	476.363		control-noreward	ImageDisplay1		0.0		
46	478.352		control-noreward	StartDisplay		0.0		
46	479.104		control-noreward	ImageDisplay2		0.0		
46	482.364		control-noreward	ChoiceDisplay	3	0.773	3	3
46	483.149		control-noreward	ChosenDisplay		0.0		
46	483.969		control-noreward	TurnDisplay				
46	484.219		control-noreward	OutcomeDisplay				
47	484.972		control-noreward	ImageDisplay1		0.0		
47	486.961		control-noreward	StartDisplay		0.0		
47	487.713		control-noreward	ImageDisplay2		0.0		
47	490.973		control-noreward	ChoiceDisplay	3	0.971	3	3
47	491.959		control-noreward	ChosenDisplay		0.0		
47	492.578		control-noreward	TurnDisplay				
47	492.828		control-noreward	OutcomeDisplay				
48	493.581		loss-reward	ImageDisplay1		0.0		
48	495.821		loss-reward	StartDisplay		0.0		
48	496.573		loss-reward	ImageDisplay2		0.0		
48	499.582		loss-reward	ChoiceDisplay	3	0.73	3	3
48	500.334		loss-reward	ChosenDisplay		0.0		
48	501.187		loss-reward	TurnDisplay				
48	501.437		loss-reward	OutcomeDisplay				
49	502.19		loss-noreward	ImageDisplay1		0.0		
49	504.179		loss-noreward	StartDisplay		0.0		
49	504.931		loss-noreward	ImageDisplay2		0.0		
49	508.191		loss-noreward	ChoiceDisplay	3	0.594	3	3
49	508.809		loss-noreward	ChosenDisplay		0.0		
49	509.796		loss-noreward	TurnDisplay				
49	510.046		loss-noreward	OutcomeDisplay				
50	510.799		win-reward	ImageDisplay1		0.0		
50	513.039		win-reward	StartDisplay		0.0		
50	513.791		win-reward	ImageDisplay2		0.0		
50	516.8		win-reward	ChoiceDisplay	3	0.357	3	3
50	517.184		win-reward	ChosenDisplay		0.0		
50	518.405		win-reward	TurnDisplay				
50	518.655		win-reward	OutcomeDisplay				
51	519.408		control-noreward	ImageDisplay1		0.0		
51	521.397		control-noreward	StartDisplay		0.0		
51	522.149		control-noreward	ImageDisplay2		0.0		
51	525.409		control-noreward	ChoiceDisplay	3	0.493	3	3
51	525.927		control-noreward	ChosenDisplay		0.0		
51	527.014		control-noreward	TurnDisplay				
51	527.264		control-noreward	OutcomeDisplay				
52	528.017		control-noreward	ImageDisplay1		0.0		
52	530.006		control-noreward	StartDisplay		0.0		
52	530.758		control-noreward	ImageDisplay2		0.0		
52	534.018		control-noreward	ChoiceDisplay	3	0.482	3	3
52	534.519		control-noreward	ChosenDisplay		0.0		
52	535.623		control-noreward	TurnDisplay				
52	535.874		control-noreward	OutcomeDisplay				
53	536.626		loss-noreward	ImageDisplay1		0.0		
53	538.615		loss-noreward	StartDisplay		0.0		
53	539.367		loss-noreward	ImageDisplay2		0.0		
53	542.627		loss-noreward	ChoiceDisplay	3	0.396	3	3
53	543.045		loss-noreward	ChosenDisplay		0.0		
53	544.232		loss-noreward	TurnDisplay				
53	544.483		loss-noreward	OutcomeDisplay				
54	545.235		control-noreward	ImageDisplay1		0.0		
54	547.224		control-noreward	StartDisplay		0.0		
54	547.976		control-noreward	ImageDisplay2		0.0		
54	551.236		control-noreward	ChoiceDisplay	3	0.852	3	3
54	552.105		control-noreward	ChosenDisplay		0.0		
54	552.841		control-noreward	TurnDisplay				
54	553.092		control-noreward	OutcomeDisplay				
55	553.844		control-reward	ImageDisplay1		0.0		
55	556.084		control-reward	StartDisplay		0.0		
55	556.836		control-reward	ImageDisplay2		0.0		
55	559.845		control-reward	ChoiceDisplay	3	0.678	3	3
55	560.547		control-reward	ChosenDisplay		0.0		
55	561.45		control-reward	TurnDisplay				
55	561.701		control-reward	OutcomeDisplay				
56	562.453		win-noreward	ImageDisplay1		0.0		
56	564.442		win-noreward	StartDisplay		0.0		
56	565.194		win-noreward	ImageDisplay2		0.0		
56	568.454		win-noreward	ChoiceDisplay	3	0.519	3	3
56	568.989		win-noreward	ChosenDisplay		0.0		
56	570.059		win-noreward	TurnDisplay				
56	570.31		win-noreward	OutcomeDisplay				
57	571.062		loss-noreward	ImageDisplay1		0.0		
57	573.051		loss-noreward	StartDisplay		0.0		
57	573.803		loss-noreward	ImageDisplay2		0.0		
57	577.063		loss-noreward	ChoiceDisplay	3	0.598	3	3
57	577.682		loss-noreward	ChosenDisplay		0.0		
57	578.668		loss-noreward	TurnDisplay				
57	578.919		loss-noreward	OutcomeDisplay				
58	579.671		loss-reward	ImageDisplay1		0.0		
58	581.911		loss-reward	StartDisplay		0.0		
58	582.663		loss-reward	ImageDisplay2		0.0		
58	585.672		loss-reward	ChoiceDisplay	3	0.41	3	3
58	586.107		loss-reward	ChosenDisplay		0.0		
58	587.277		loss-reward	TurnDisplay				
58	587.528		loss-reward	OutcomeDisplay				
59	588.28		control-noreward	ImageDisplay1		0.0		
59	590.269		control-noreward	StartDisplay		0.0		
59	591.022		control-noreward	ImageDisplay2		0.0		
59	594.281		control-noreward	ChoiceDisplay	3	0.664	3	3
59	594.967		control-noreward	ChosenDisplay		0.0		
59	595.886		control-noreward	TurnDisplay				
59	596.137		control-noreward	OutcomeDisplay				
60	596.889		control-noreward	ImageDisplay1		0.0		
60	598.878		control-noreward	StartDisplay		0.0		
60	599.631		control-noreward	ImageDisplay2		0.0		
60	602.89		control-noreward	ChoiceDisplay	3	0.362	3	3
60	603.275		control-noreward	ChosenDisplay		0.0		
60	604.495		control-noreward	TurnDisplay				
60	604.746		control-noreward	OutcomeDisplay				
61	605.498		win-reward	ImageDisplay1		0.0		
61	607.738		win-reward	StartDisplay		0.0		
61	608.49		win-reward	ImageDisplay2		0.0		
61	611.499		win-reward	ChoiceDisplay	3	0.611	3	3
61	612.135		win-reward	ChosenDisplay		0.0		
61	613.104		win-reward	TurnDisplay				
61	613.355		win-reward	OutcomeDisplay				
62	614.107		loss-noreward	ImageDisplay1		0.0		
62	616.096		loss-noreward	StartDisplay		0.0		
62	616.849		loss-noreward	ImageDisplay2		0.0		
62	620.108		loss-noreward	ChoiceDisplay	3	0.445	3	3
62	620.576		loss-noreward	ChosenDisplay		0.0		
62	621.713		loss-noreward	TurnDisplay				
62	621.964		loss-noreward	OutcomeDisplay				
63	622.716		loss-noreward	ImageDisplay1		0.0		
63	624.705		loss-noreward	StartDisplay		0.0		
63	625.458		loss-noreward	ImageDisplay2		0.0		
63	628.717		loss-noreward	ChoiceDisplay	3	0.414	3	3
63	629.152		loss-noreward	ChosenDisplay		0.0		
63	630.322		loss-noreward	TurnDisplay				
63	630.573		loss-noreward	OutcomeDisplay				
64	631.325		loss-noreward	ImageDisplay1		0.0		
64	633.314		loss-noreward	StartDisplay		0.0		
64	634.067		loss-noreward	ImageDisplay2		0.0		
64	637.326		loss-noreward	ChoiceDisplay	3	0.577	3	3
64	637.928		loss-noreward	ChosenDisplay		0.0		
64	638.931		loss-noreward	TurnDisplay				
64	639.182		loss-noreward	OutcomeDisplay				
65	639.934		win-reward	ImageDisplay1		0.0		
65	642.174		win-reward	StartDisplay		0.0		
65	642.926		win-reward	ImageDisplay2		0.0		
65	645.935		win-reward	ChoiceDisplay	3	0.238	3	3
65	646.186		win-reward	ChosenDisplay		0.0		
65	647.54		win-reward	TurnDisplay				
65	647.791		win-reward	OutcomeDisplay				
66	648.543		loss-reward	ImageDisplay1		0.0		
66	650.783		loss-reward	StartDisplay		0.0		
66	651.536		loss-reward	ImageDisplay2		0.0		
66	654.544		loss-reward	ChoiceDisplay	3	0.261	3	3
66	654.829		loss-reward	ChosenDisplay		0.0		
66	656.149		loss-reward	TurnDisplay				
66	656.4		loss-reward	OutcomeDisplay				
67	657.152		win-reward	ImageDisplay1		0.0		
67	659.392		win-reward	StartDisplay		0.0		
67	660.145		win-reward	ImageDisplay2		0.0		
67	663.154		win-reward	ChoiceDisplay	3	0.543	3	3
67	663.722		win-reward	ChosenDisplay		0.0		
67	664.758		win-reward	TurnDisplay				
67	665.009		win-reward	OutcomeDisplay				
68	665.761		control-noreward	ImageDisplay1		0.0		
68	667.751		control-noreward	StartDisplay		0.0		
68	668.503		control-noreward	ImageDisplay2		0.0		
68	671.763		control-noreward	ChoiceDisplay	3	0.732	3	3
68	672.515		control-noreward	ChosenDisplay		0.0		
68	673.367		control-noreward	TurnDisplay				
68	673.618		control-noreward	OutcomeDisplay				
69	674.37		win-noreward	ImageDisplay1		0.0		
69	676.36		win-noreward	StartDisplay		0.0		
69	677.112		win-noreward	ImageDisplay2		0.0		
69	680.372		win-noreward	ChoiceDisplay	3	0.502	3	3
69	680.89		win-noreward	ChosenDisplay		0.0		
69	681.976		win-noreward	TurnDisplay				
69	682.227		win-noreward	OutcomeDisplay				
70	682.979		control-reward	ImageDisplay1		0.0		
70	685.219		control-reward	StartDisplay		0.0		
70	685.972		control-reward	ImageDisplay2		0.0		
70	688.981		control-reward	ChoiceDisplay	3	0.401	3	3
70	689.399		control-reward	ChosenDisplay		0.0		
70	690.585		control-reward	TurnDisplay				
70	690.836		control-reward	OutcomeDisplay				
71	691.588		loss-reward	ImageDisplay1		0.0		
71	693.828		loss-reward	StartDisplay		0.0		
71	694.581		loss-reward	ImageDisplay2		0.0		
71	697.59		loss-reward	ChoiceDisplay	3	0.532	3	3
71	698.141		loss-reward	ChosenDisplay		0.0		
71	699.194		loss-reward	TurnDisplay				
71	699.445		loss-reward	OutcomeDisplay				
72	700.197		loss-noreward	ImageDisplay1		0.0		
72	702.187		loss-noreward	StartDisplay		0.0		
72	702.939		loss-noreward	ImageDisplay2		0.0		
72	706.199		loss-noreward	ChoiceDisplay	3	0.47	3	3
72	706.684		loss-noreward	ChosenDisplay		0.0		
72	707.804		loss-noreward	TurnDisplay				
72	708.054		loss-noreward	OutcomeDisplay				
73	708.807		win-reward	ImageDisplay1		0.0		
73	711.047		win-reward	StartDisplay		0.0		
73	711.799		win-reward	ImageDisplay2		0.0		
73	714.808		win-reward	ChoiceDisplay	3	0.499	3	3
73	715.326		win-reward	ChosenDisplay		0.0		
73	716.413		win-reward	TurnDisplay				
73	716.663		win-reward	OutcomeDisplay				
74	717.416		loss-noreward	ImageDisplay1		0.0		
74	719.405		loss-noreward	StartDisplay		0.0		
74	720.157		loss-noreward	ImageDisplay2		0.0		
74	723.417		loss-noreward	ChoiceDisplay	3	0.777	3	3
74	724.219		loss-noreward	ChosenDisplay		0.0		
74	725.022		loss-noreward	TurnDisplay				
74	725.272		loss-noreward	OutcomeDisplay				
75	726.025		loss-reward	ImageDisplay1		0.0		
75	728.265		loss-reward	StartDisplay		0.0		
75	729.017		loss-reward	ImageDisplay2		0.0		
75	732.026		loss-reward	ChoiceDisplay	3	0.596	3	3
75	732.644		loss-reward	ChosenDisplay		0.0		
75	733.631		loss-reward	TurnDisplay				
75	733.881		loss-reward	OutcomeDisplay				
76	734.634		win-noreward	ImageDisplay1		0.0		
76	736.623		win-noreward	StartDisplay		0.0		
76	737.375		win-noreward	ImageDisplay2		0.0		
76	740.635		win-noreward	ChoiceDisplay	3	0.582	3	3
76	741.237		win-noreward	ChosenDisplay		0.0		
76	742.24		win-noreward	TurnDisplay				
76	742.49		win-noreward	OutcomeDisplay				
77	743.243		control-reward	ImageDisplay1		0.0		
77	745.483		control-reward	StartDisplay		0.0		
77	746.235		control-reward	ImageDisplay2		0.0		
77	749.244		control-reward	ChoiceDisplay	3	0.607	3	3
77	749.879		control-reward	ChosenDisplay		0.0		
77	750.849		control-reward	TurnDisplay				
77	751.099		control-reward	OutcomeDisplay				
78	751.852		win-noreward	ImageDisplay1		0.0		
78	753.841		win-noreward	StartDisplay		0.0		
78	754.593		win-noreward	ImageDisplay2		0.0		
78	757.853		win-noreward	ChoiceDisplay	3	0.613	3	3
78	758.488		win-noreward	ChosenDisplay		0.0		
78	759.458		win-noreward	TurnDisplay				
78	759.708		win-noreward	OutcomeDisplay				
79	760.461		control-reward	ImageDisplay1		0.0		
79	762.701		control-reward	StartDisplay		0.0		
79	763.453		control-reward	ImageDisplay2		0.0		
79	766.462		control-reward	ChoiceDisplay	3	0.361	3	3
79	766.846		control-reward	ChosenDisplay		0.0		
79	768.067		control-reward	TurnDisplay				
79	768.317		control-reward	OutcomeDisplay				
80	769.07		control-noreward	ImageDisplay1		0.0		
80	771.059		control-noreward	StartDisplay		0.0		
80	771.811		control-noreward	ImageDisplay2		0.0		
80	775.071		control-noreward	ChoiceDisplay	3	0.703	3	3
80	775.79		control-noreward	ChosenDisplay		0.0		
80	776.676		control-noreward	TurnDisplay				
80	776.927		control-noreward	OutcomeDisplay				
81	777.679		loss-noreward	ImageDisplay1		0.0		
81	779.668		loss-noreward	StartDisplay		0.0		
81	780.42		loss-noreward	ImageDisplay2		0.0		
81	783.68		loss-noreward	ChoiceDisplay	3	0.317	3	3
81	784.014		loss-noreward	ChosenDisplay		0.0		
81	785.285		loss-noreward	TurnDisplay				
81	785.536		loss-noreward	OutcomeDisplay				
82	786.288		win-noreward	ImageDisplay1		0.0		
82	788.277		win-noreward	StartDisplay		0.0		
82	789.029		win-noreward	ImageDisplay2		0.0		
82	792.289		win-noreward	ChoiceDisplay	3	0.416	3	3
82	792.724		win-noreward	ChosenDisplay		0.0		
82	793.894		win-noreward	TurnDisplay				
82	794.145		win-noreward	OutcomeDisplay				
83	794.897		win-reward	ImageDisplay1		0.0		
83	797.137		win-reward	StartDisplay		0.0		
83	797.889		win-reward	ImageDisplay2		0.0		
83	800.898		win-reward	ChoiceDisplay	3	0.379	3	3
83	801.299		win-reward	ChosenDisplay		0.0		
83	802.503		win-reward	TurnDisplay				
83	802.754		win-reward	OutcomeDisplay				
84	803.506		control-reward	ImageDisplay1		0.0		
84	805.746		control-reward	StartDisplay		0.0		
84	806.498		control-reward	ImageDisplay2		0.0		
84	809.507		control-reward	ChoiceDisplay	3	0.488	3	3
84	810.009		control-reward	ChosenDisplay		0.0		
84	811.112		control-reward	TurnDisplay				
84	811.363		control-reward	OutcomeDisplay				
85	812.115		win-noreward	ImageDisplay1		0.0		
85	814.104		win-noreward	StartDisplay		0.0		
85	814.856		win-noreward	ImageDisplay2		0.0		
85	818.116		win-noreward	ChoiceDisplay	3	0.873	3	3
85	819.002		win-noreward	ChosenDisplay		0.0		
85	819.721		win-noreward	TurnDisplay				
85	819.972		win-noreward	OutcomeDisplay				
86	820.724		control-reward	ImageDisplay1		0.0		
86	822.964		control-reward	StartDisplay		0.0		
86	823.716		control-reward	ImageDisplay2		0.0		
86	826.725		control-reward	ChoiceDisplay	3	0.46	3	3
86	827.21		control-reward	ChosenDisplay		0.0		
86	828.33		control-reward	TurnDisplay				
86	828.581		control-reward	OutcomeDisplay				
87	829.333		win-reward	ImageDisplay1		0.0		
87	831.573		win-reward	StartDisplay		0.0		
87	832.325		win-reward	ImageDisplay2		0.0		
87	835.334		win-reward	ChoiceDisplay	3	0.392	3	3
87	835.752		win-reward	ChosenDisplay		0.0		
87	836.939		win-reward	TurnDisplay				
87	837.19		win-reward	OutcomeDisplay				
88	837.942		loss-reward	ImageDisplay1		0.0		
88	840.182		loss-reward	StartDisplay		0.0		
88	840.934		loss-reward	ImageDisplay2		0.0		
88	843.943		loss-reward	ChoiceDisplay	3	0.358	3	3
88	844.328		loss-reward	ChosenDisplay		0.0		
88	845.548		loss-reward	TurnDisplay				
88	845.799		loss-reward	OutcomeDisplay				
89	846.551		control-reward	ImageDisplay1		0.0		
89	848.791		control-reward	StartDisplay		0.0		
89	849.543		control-reward	ImageDisplay2		0.0		
89	852.552		control-reward	ChoiceDisplay	3	0.648	3	3
89	853.221		control-reward	ChosenDisplay		0.0		
89	854.157		control-reward	TurnDisplay				
89	854.408		control-reward	OutcomeDisplay				
90	855.16		win-noreward	ImageDisplay1		0.0		
90	857.149		win-noreward	StartDisplay		0.0		
90	857.902		win-noreward	ImageDisplay2		0.0		
90	861.161		win-noreward	ChoiceDisplay	3	0.718	3	3
90	861.897		win-noreward	ChosenDisplay		0.0		
90	862.766		win-noreward	TurnDisplay				
90	863.017		win-noreward	OutcomeDisplay				
91	863.769		loss-noreward	ImageDisplay1		0.0		
91	865.758		loss-noreward	StartDisplay		0.0		
91	866.511		loss-noreward	ImageDisplay2		0.0		
91	869.77		loss-noreward	ChoiceDisplay	3	0.469	3	3
91	870.255		loss-noreward	ChosenDisplay		0.0		
91	871.375		loss-noreward	TurnDisplay				
91	871.626		loss-noreward	OutcomeDisplay				
92	872.378		loss-reward	ImageDisplay1		0.0		
92	874.618		loss-reward	StartDisplay		0.0		
92	875.37		loss-reward	ImageDisplay2		0.0		
92	878.379		loss-reward	ChoiceDisplay	3	0.65	3	3
92	879.048		loss-reward	ChosenDisplay		0.0		
92	879.984		loss-reward	TurnDisplay				
92	880.235		loss-reward	OutcomeDisplay				
93	880.987		control-reward	ImageDisplay1		0.0		
93	883.227		control-reward	StartDisplay		0.0		
93	883.979		control-reward	ImageDisplay2		0.0		
93	886.988		control-reward	ChoiceDisplay	3	0.482	3	3
93	887.49		control-reward	ChosenDisplay		0.0		
93	888.593		control-reward	TurnDisplay				
93	888.844		control-reward	OutcomeDisplay				
94	889.596		win-reward	ImageDisplay1		0.0		
94	891.836		win-reward	StartDisplay		0.0		
94	892.589		win-reward	ImageDisplay2		0.0		
94	895.598		win-reward	ChoiceDisplay	3	0.575	3	3
94	896.199		win-reward	ChosenDisplay		0.0		
94	897.202		win-reward	TurnDisplay				
94	897.453		win-reward	OutcomeDisplay				
95	898.205		loss-reward	ImageDisplay1		0.0		
95	900.445		loss-reward	StartDisplay		0.0		
95	901.198		loss-reward	ImageDisplay2		0.0		
95	904.207		loss-reward	ChoiceDisplay	3	0.936	3	3
95	905.159		loss-reward	ChosenDisplay		0.0		
95	905.811		loss-reward	TurnDisplay				
95	906.062		loss-reward	OutcomeDisplay				
