onset	duration	trial_type	response_time	stim_file	accuracy
43.653	1.0	go	0.0	Go_O	0.0
46.186	1.0	go	0.784	Go_X	1.0
48.719	1.0	go	0.402	Go_O	1.0
51.253	1.0	go	0.74	Go_X	1.0
53.786	1.0	go	0.95	Go_X	1.0
56.319	1.0	go	0.438	Go_O	1.0
58.852	0.25	stop	0.0	Go_O	1.0
61.386	1.0	go	0.656	Go_O	1.0
63.919	0.3	stop	0.0	Go_X	1.0
66.452	1.0	go	0.702	Go_X	1.0
68.985	1.0	go	0.374	Go_O	1.0
71.519	1.0	go	0.543	Go_X	1.0
74.052	0.35	stop	0.415	Go_O	0.0
76.585	1.0	go	0.812	Go_X	1.0
79.118	1.0	go	0.542	Go_O	1.0
81.652	0.3	stop	0.0	Go_X	1.0
84.185	0.35	stop	0.384	Go_O	0.0
86.718	1.0	go	0.562	Go_O	1.0
89.252	1.0	go	0.586	Go_X	1.0
91.785	0.3	stop	0.0	Go_X	1.0
94.318	1.0	go	0.429	Go_O	1.0
96.851	1.0	go	0.586	Go_X	1.0
99.385	0.35	stop	0.0	Go_O	1.0
101.918	1.0	go	0.568	Go_X	1.0
104.451	1.0	go	0.532	Go_O	1.0
106.984	0.4	stop	0.498	Go_X	0.0
109.518	1.0	go	0.554	Go_O	1.0
112.051	1.0	go	0.581	Go_X	1.0
114.584	0.35	stop	0.0	Go_O	1.0
117.117	1.0	go	0.494	Go_O	1.0
119.651	1.0	go	0.698	Go_X	1.0
122.184	1.0	go	0.712	Go_O	1.0
124.717	1.0	go	0.615	Go_X	1.0
127.251	1.0	go	0.842	Go_X	1.0
129.8	0.4	stop	0.0	Go_X	1.0
132.334	1.0	go	0.426	Go_O	1.0
134.867	1.0	go	0.755	Go_O	1.0
137.4	1.0	go	0.609	Go_X	1.0
139.933	1.0	go	0.532	Go_X	1.0
142.467	1.0	go	0.53	Go_O	1.0
145.0	0.45	stop	0.0	Go_O	1.0
147.533	1.0	go	0.732	Go_X	1.0
150.067	1.0	go	0.582	Go_O	1.0
152.616	1.0	go	0.674	Go_O	1.0
155.15	1.0	go	0.557	Go_X	1.0
157.683	1.0	go	0.657	Go_O	1.0
160.216	1.0	go	0.738	Go_X	1.0
162.75	0.5	stop	0.0	Go_X	1.0
165.299	1.0	go	0.507	Go_O	1.0
167.833	1.0	go	0.651	Go_X	1.0
170.366	0.55	stop	0.724	Go_O	0.0
172.899	1.0	go	0.796	Go_X	1.0
175.433	0.5	stop	0.0	Go_X	1.0
177.982	0.55	stop	0.696	Go_O	0.0
180.516	1.0	go	0.908	Go_O	1.0
183.049	1.0	go	0.867	Go_O	1.0
185.582	1.0	go	0.84	Go_X	1.0
188.115	1.0	go	0.703	Go_O	1.0
190.649	0.5	stop	0.0	Go_X	1.0
193.182	1.0	go	0.651	Go_X	1.0
195.715	0.55	stop	0.0	Go_O	1.0
198.249	1.0	go	0.591	Go_X	1.0
200.782	1.0	go	0.679	Go_O	1.0
203.315	1.0	go	0.665	Go_O	1.0
205.848	1.0	go	0.694	Go_X	1.0
208.382	1.0	go	0.563	Go_O	1.0
210.915	1.0	go	0.672	Go_X	1.0
213.448	1.0	go	0.0	Go_X	0.0
215.981	1.0	go	0.726	Go_O	1.0
218.515	1.0	go	0.636	Go_X	1.0
221.048	0.6	stop	0.837	Go_X	0.0
223.581	1.0	go	0.877	Go_O	1.0
226.114	1.0	go	0.624	Go_O	1.0
228.648	1.0	go	0.803	Go_X	1.0
231.181	0.55	stop	0.67	Go_O	0.0
233.714	1.0	go	0.769	Go_O	1.0
236.247	1.0	go	0.816	Go_X	1.0
238.781	1.0	go	0.786	Go_X	1.0
241.314	1.0	go	0.922	Go_O	1.0
243.847	1.0	go	0.807	Go_O	1.0
246.381	1.0	go	0.81	Go_X	1.0
248.914	0.5	stop	0.0	Go_X	1.0
251.447	1.0	go	0.492	Go_X	1.0
253.98	1.0	go	0.736	Go_O	1.0
256.514	0.55	stop	0.614	Go_O	0.0
259.047	1.0	go	0.545	Go_O	1.0
261.58	1.0	go	0.655	Go_X	1.0
264.113	0.5	stop	0.543	Go_X	0.0
266.647	1.0	go	0.649	Go_X	1.0
269.18	0.45	stop	0.0	Go_O	1.0
271.713	1.0	go	0.534	Go_O	1.0
274.246	1.0	go	0.549	Go_O	1.0
276.78	1.0	go	0.891	Go_X	1.0
279.313	1.0	go	0.936	Go_O	1.0
281.846	1.0	go	0.449	Go_X	1.0
284.38	0.5	stop	0.0	Go_X	1.0
286.929	0.55	stop	0.6	Go_O	0.0
289.463	1.0	go	0.688	Go_X	1.0
291.996	1.0	go	0.581	Go_O	1.0
294.529	0.5	stop	0.0	Go_X	1.0
297.062	1.0	go	0.369	Go_O	1.0
299.596	1.0	go	0.606	Go_X	1.0
302.129	1.0	go	0.699	Go_X	1.0
304.662	1.0	go	0.56	Go_O	1.0
307.196	1.0	go	0.0	Go_X	0.0
309.729	1.0	go	0.542	Go_O	1.0
312.262	0.55	stop	0.572	Go_O	0.0
314.795	1.0	go	0.724	Go_O	1.0
317.329	1.0	go	0.625	Go_X	1.0
319.862	1.0	go	0.678	Go_X	1.0
322.395	1.0	go	0.652	Go_O	1.0
324.928	1.0	go	0.399	Go_O	0.0
327.462	0.5	stop	0.6	Go_X	0.0
329.995	1.0	go	0.555	Go_X	1.0
332.528	1.0	go	0.639	Go_X	1.0
335.061	1.0	go	0.817	Go_O	1.0
337.595	1.0	go	0.75	Go_X	1.0
340.128	0.45	stop	0.0	Go_O	1.0
342.661	1.0	go	0.491	Go_O	1.0
345.195	1.0	go	0.441	Go_O	1.0
347.744	0.5	stop	0.0	Go_X	1.0
350.278	1.0	go	0.683	Go_X	1.0
352.811	0.55	stop	0.619	Go_O	0.0
355.344	1.0	go	0.515	Go_O	1.0
357.877	1.0	go	0.653	Go_X	1.0
360.411	1.0	go	0.595	Go_O	1.0
362.944	1.0	go	0.673	Go_X	1.0
365.477	1.0	go	0.645	Go_X	1.0
368.011	1.0	go	0.309	Go_O	1.0
370.56	1.0	go	0.281	Go_X	1.0
373.094	0.5	stop	0.227	Go_X	0.0
375.627	1.0	go	0.648	Go_O	1.0
378.16	1.0	go	0.644	Go_X	1.0
380.694	1.0	go	0.56	Go_O	1.0
383.243	0.45	stop	0.427	Go_O	0.0
385.777	1.0	go	0.489	Go_O	1.0
388.31	1.0	go	0.7	Go_X	1.0
390.843	1.0	go	0.483	Go_X	1.0
393.376	1.0	go	0.411	Go_O	1.0
395.91	0.4	stop	0.456	Go_X	0.0
398.443	1.0	go	0.702	Go_O	1.0
400.976	1.0	go	0.513	Go_X	1.0
403.51	0.35	stop	0.256	Go_O	0.0
406.043	1.0	go	0.438	Go_O	1.0
408.576	1.0	go	0.531	Go_X	1.0
411.109	0.3	stop	0.509	Go_X	0.0
413.643	1.0	go	0.61	Go_O	1.0
416.176	1.0	go	0.453	Go_X	1.0
418.709	0.25	stop	0.0	Go_O	1.0
421.242	1.0	go	0.456	Go_O	1.0
423.776	1.0	go	0.312	Go_X	1.0
426.309	1.0	go	0.481	Go_X	1.0
428.842	1.0	go	0.529	Go_O	1.0
431.375	1.0	go	0.463	Go_X	1.0
433.909	1.0	go	0.902	Go_O	1.0
436.442	0.3	stop	0.0	Go_X	1.0
438.975	1.0	go	0.53	Go_X	0.0
441.509	0.35	stop	0.49	Go_O	0.0
444.058	1.0	go	0.561	Go_O	1.0
446.592	1.0	go	0.422	Go_X	1.0
449.125	1.0	go	0.406	Go_O	1.0
451.658	1.0	go	0.624	Go_O	1.0
454.191	1.0	go	0.917	Go_X	1.0
456.725	0.3	stop	0.632	Go_X	0.0
459.258	1.0	go	0.52	Go_O	1.0
461.791	1.0	go	0.671	Go_X	1.0
464.325	1.0	go	0.427	Go_X	1.0
466.858	0.25	stop	0.0	Go_O	1.0
469.391	0.3	stop	0.0	Go_X	1.0
471.924	0.35	stop	0.332	Go_O	0.0
474.458	1.0	go	0.608	Go_O	1.0
476.991	0.3	stop	0.423	Go_X	0.0
479.524	1.0	go	0.579	Go_X	1.0
482.057	1.0	go	0.669	Go_O	1.0
484.591	1.0	go	0.549	Go_X	1.0
487.124	1.0	go	0.342	Go_O	1.0
489.657	1.0	go	0.419	Go_X	1.0
492.19	1.0	go	0.356	Go_O	1.0
494.724	1.0	go	0.625	Go_O	1.0
497.257	1.0	go	0.485	Go_X	1.0
499.79	0.25	stop	0.0	Go_O	1.0
502.323	1.0	go	0.699	Go_O	1.0
504.857	1.0	go	0.465	Go_X	1.0
507.39	0.3	stop	0.0	Go_X	1.0
509.923	1.0	go	0.436	Go_O	1.0
512.457	1.0	go	0.785	Go_X	1.0
514.99	1.0	go	0.386	Go_O	1.0
517.523	1.0	go	0.623	Go_X	1.0
520.056	1.0	go	0.574	Go_X	1.0
522.59	0.35	stop	0.0	Go_O	1.0
525.123	1.0	go	0.509	Go_O	1.0
527.656	1.0	go	0.599	Go_X	1.0
530.189	1.0	go	0.716	Go_O	1.0
532.723	0.4	stop	0.51	Go_X	0.0
535.256	1.0	go	0.491	Go_X	1.0
537.789	0.35	stop	0.297	Go_O	0.0
540.322	1.0	go	0.46	Go_O	1.0
542.856	1.0	go	0.695	Go_X	1.0
545.389	1.0	go	0.381	Go_O	1.0
547.922	1.0	go	0.438	Go_O	1.0
550.456	1.0	go	0.584	Go_X	1.0
553.005	1.0	go	0.546	Go_X	1.0
555.539	1.0	go	0.503	Go_O	1.0
558.072	0.3	stop	0.0	Go_X	1.0
560.605	1.0	go	0.732	Go_O	1.0
563.138	1.0	go	0.54	Go_X	1.0
565.672	1.0	go	0.657	Go_X	1.0
568.205	1.0	go	0.563	Go_O	1.0
570.738	0.35	stop	0.446	Go_O	0.0
573.272	1.0	go	0.746	Go_O	1.0
575.805	0.3	stop	0.0	Go_X	1.0
578.338	1.0	go	0.792	Go_X	1.0
580.871	1.0	go	0.456	Go_O	1.0
583.405	0.35	stop	0.499	Go_O	0.0
585.938	1.0	go	0.833	Go_X	1.0
588.471	1.0	go	0.428	Go_X	1.0
591.004	1.0	go	0.712	Go_O	1.0
593.538	1.0	go	0.418	Go_O	1.0
596.071	1.0	go	0.686	Go_X	1.0
598.604	1.0	go	0.69	Go_X	1.0
601.137	1.0	go	0.632	Go_O	1.0
603.671	1.0	go	0.799	Go_X	1.0
606.204	1.0	go	0.413	Go_O	1.0
608.737	1.0	go	0.395	Go_O	1.0
611.27	0.3	stop	0.279	Go_X	0.0
613.804	1.0	go	0.298	Go_X	1.0
616.337	1.0	go	0.542	Go_O	1.0
618.87	0.25	stop	0.362	Go_O	0.0
621.404	1.0	go	0.338	Go_X	1.0
623.937	0.2	stop	0.0	Go_X	1.0
626.47	1.0	go	0.465	Go_X	1.0
629.003	1.0	go	0.597	Go_O	1.0
631.537	0.25	stop	0.0	Go_O	1.0
634.07	1.0	go	0.366	Go_X	1.0
636.603	0.3	stop	0.0	Go_X	1.0
639.136	1.0	go	0.628	Go_O	1.0
641.67	1.0	go	0.72	Go_O	1.0
644.203	1.0	go	0.545	Go_X	1.0
646.736	0.35	stop	0.575	Go_O	0.0
649.269	1.0	go	0.576	Go_O	1.0
651.803	1.0	go	0.712	Go_X	1.0
654.336	1.0	go	0.418	Go_O	1.0
656.869	1.0	go	0.28	Go_X	1.0
659.403	0.3	stop	0.718	Go_X	0.0
661.952	1.0	go	0.361	Go_O	1.0
664.486	1.0	go	0.0	Go_X	0.0
667.019	0.25	stop	0.0	Go_O	1.0
669.552	1.0	go	0.396	Go_O	1.0
672.085	1.0	go	0.477	Go_X	1.0
674.619	1.0	go	0.509	Go_X	1.0
677.152	1.0	go	0.673	Go_O	0.0
679.685	0.3	stop	0.0	Go_X	1.0
682.219	1.0	go	0.518	Go_X	1.0
684.752	0.35	stop	0.45	Go_O	0.0
687.285	1.0	go	0.397	Go_O	1.0
689.818	1.0	go	0.69	Go_O	1.0
692.352	0.3	stop	0.0	Go_X	1.0
694.885	1.0	go	0.542	Go_X	1.0
697.418	1.0	go	0.657	Go_X	1.0
699.951	1.0	go	0.0	Go_O	0.0
702.485	1.0	go	0.525	Go_X	1.0
705.019	0.35	stop	0.555	Go_O	0.0
707.568	1.0	go	0.372	Go_O	1.0
710.101	0.3	stop	0.0	Go_X	1.0
712.634	1.0	go	0.473	Go_O	1.0
715.168	1.0	go	0.706	Go_X	1.0
717.701	1.0	go	0.529	Go_X	1.0
720.234	1.0	go	0.421	Go_O	1.0
722.767	1.0	go	0.516	Go_O	1.0
725.301	1.0	go	0.578	Go_X	1.0
727.834	0.35	stop	0.407	Go_O	0.0
730.367	1.0	go	0.486	Go_X	1.0
732.9	1.0	go	0.382	Go_O	1.0
735.434	0.3	stop	0.0	Go_X	1.0
737.967	1.0	go	0.53	Go_X	1.0
740.5	1.0	go	0.353	Go_O	1.0
743.034	0.35	stop	0.525	Go_O	0.0
745.583	1.0	go	0.623	Go_X	1.0
748.117	1.0	go	0.785	Go_O	1.0
750.65	1.0	go	0.51	Go_O	1.0
753.183	1.0	go	0.564	Go_X	1.0
755.717	0.3	stop	0.0	Go_X	1.0
758.266	1.0	go	0.575	Go_X	1.0
760.8	0.35	stop	0.515	Go_O	0.0
763.333	1.0	go	0.489	Go_O	1.0
765.866	1.0	go	0.311	Go_O	1.0
768.399	1.0	go	0.487	Go_X	1.0
770.933	1.0	go	0.633	Go_X	1.0
773.466	1.0	go	0.717	Go_O	1.0
775.999	0.3	stop	0.0	Go_X	1.0
778.533	1.0	go	0.298	Go_O	1.0
781.066	1.0	go	0.488	Go_X	1.0
783.599	0.35	stop	0.314	Go_O	0.0
786.132	0.3	stop	0.0	Go_X	1.0
788.666	1.0	go	0.797	Go_X	1.0
791.199	1.0	go	0.455	Go_O	1.0
793.732	1.0	go	0.0	Go_O	0.0
796.265	1.0	go	0.439	Go_X	1.0
798.799	0.35	stop	0.404	Go_O	0.0
801.332	1.0	go	0.319	Go_X	1.0
