onset	duration	trial_type	response_time	stim_file	accuracy
94.787	1.0	go	0.937	Go_X	0.0
97.311	1.0	go	0.837	Go_O	1.0
99.835	1.0	go	0.254	Go_O	0.0
102.36	1.0	go	0.377	Go_X	1.0
104.884	1.0	go	0.366	Go_O	1.0
107.408	1.0	go	0.651	Go_X	1.0
109.932	0.25	stop	0.0	Go_O	1.0
112.456	1.0	go	0.408	Go_X	1.0
114.981	0.3	stop	0.0	Go_X	1.0
117.505	1.0	go	0.305	Go_O	1.0
120.029	1.0	go	0.419	Go_O	1.0
122.553	1.0	go	0.438	Go_X	1.0
125.077	0.35	stop	0.0	Go_O	1.0
127.618	1.0	go	0.492	Go_O	1.0
130.143	1.0	go	0.556	Go_X	1.0
132.667	0.4	stop	0.449	Go_X	0.0
135.191	0.35	stop	0.353	Go_O	0.0
137.732	1.0	go	0.619	Go_X	1.0
140.256	1.0	go	0.56	Go_O	1.0
142.78	0.3	stop	0.0	Go_X	1.0
145.321	1.0	go	0.596	Go_X	1.0
147.846	1.0	go	0.54	Go_O	1.0
150.37	0.35	stop	0.0	Go_O	1.0
152.894	1.0	go	0.401	Go_O	1.0
155.435	1.0	go	0.446	Go_X	1.0
157.959	0.4	stop	0.581	Go_X	0.0
160.483	1.0	go	0.49	Go_X	1.0
163.008	1.0	go	0.533	Go_O	1.0
165.532	0.35	stop	0.0	Go_O	1.0
168.056	1.0	go	0.381	Go_X	1.0
170.58	1.0	go	0.482	Go_O	1.0
173.104	1.0	go	0.689	Go_O	1.0
175.645	1.0	go	0.574	Go_X	1.0
178.17	1.0	go	0.563	Go_O	1.0
180.711	0.4	stop	0.553	Go_X	0.0
183.235	1.0	go	0.526	Go_X	1.0
185.776	1.0	go	0.424	Go_X	1.0
188.3	1.0	go	0.469	Go_O	1.0
190.841	1.0	go	0.655	Go_O	1.0
193.365	1.0	go	0.484	Go_X	1.0
195.889	0.35	stop	0.484	Go_O	0.0
198.413	1.0	go	0.424	Go_O	1.0
200.938	1.0	go	0.482	Go_X	1.0
203.462	1.0	go	0.568	Go_X	1.0
205.986	1.0	go	0.486	Go_O	1.0
208.51	1.0	go	0.508	Go_O	1.0
211.034	1.0	go	0.442	Go_X	1.0
213.559	0.3	stop	0.0	Go_X	1.0
216.083	1.0	go	0.392	Go_X	1.0
218.607	1.0	go	0.637	Go_O	1.0
221.131	0.35	stop	0.0	Go_O	1.0
223.672	1.0	go	0.515	Go_O	1.0
226.197	0.4	stop	0.404	Go_X	0.0
228.721	0.35	stop	0.0	Go_O	1.0
231.262	1.0	go	0.523	Go_X	1.0
233.786	1.0	go	0.555	Go_X	1.0
236.327	1.0	go	0.575	Go_O	1.0
238.868	1.0	go	0.584	Go_O	1.0
241.409	0.4	stop	0.0	Go_X	1.0
243.95	1.0	go	0.769	Go_X	1.0
246.474	0.45	stop	0.0	Go_O	1.0
248.998	1.0	go	0.496	Go_X	1.0
251.522	1.0	go	0.623	Go_O	1.0
254.046	1.0	go	0.421	Go_X	1.0
256.571	1.0	go	0.532	Go_O	1.0
259.112	1.0	go	0.621	Go_X	1.0
261.636	1.0	go	0.703	Go_O	1.0
264.177	1.0	go	0.612	Go_O	1.0
266.701	1.0	go	0.41	Go_X	1.0
269.225	1.0	go	0.357	Go_O	1.0
271.766	0.5	stop	0.431	Go_X	0.0
274.29	1.0	go	0.409	Go_X	1.0
276.814	1.0	go	0.49	Go_X	1.0
279.339	1.0	go	0.568	Go_O	1.0
281.863	0.45	stop	0.556	Go_O	0.0
284.387	1.0	go	0.394	Go_O	1.0
286.928	1.0	go	0.583	Go_X	1.0
289.452	1.0	go	0.419	Go_O	1.0
291.976	1.0	go	0.49	Go_X	1.0
294.501	1.0	go	0.47	Go_O	1.0
297.025	1.0	go	0.534	Go_X	1.0
299.549	0.4	stop	0.0	Go_X	1.0
302.073	1.0	go	0.534	Go_X	1.0
304.598	1.0	go	0.473	Go_O	1.0
307.122	0.45	stop	0.423	Go_O	0.0
309.646	1.0	go	0.529	Go_X	1.0
312.17	1.0	go	0.454	Go_O	1.0
314.694	0.4	stop	0.455	Go_X	0.0
317.235	1.0	go	0.422	Go_X	1.0
319.76	0.35	stop	0.392	Go_O	0.0
322.3	1.0	go	0.383	Go_O	1.0
324.825	1.0	go	0.464	Go_O	1.0
327.349	1.0	go	0.562	Go_X	1.0
329.873	1.0	go	0.769	Go_O	1.0
332.414	1.0	go	0.522	Go_X	1.0
334.938	0.3	stop	0.0	Go_X	1.0
337.462	0.35	stop	0.42	Go_O	0.0
339.987	1.0	go	0.457	Go_O	1.0
342.511	1.0	go	0.43	Go_X	1.0
345.035	0.3	stop	0.0	Go_X	1.0
347.559	1.0	go	0.648	Go_X	1.0
350.084	1.0	go	0.51	Go_O	1.0
352.608	1.0	go	0.56	Go_O	1.0
355.132	1.0	go	0.604	Go_X	1.0
357.656	1.0	go	0.494	Go_O	1.0
360.18	1.0	go	0.544	Go_X	1.0
362.705	0.35	stop	0.0	Go_O	1.0
365.246	1.0	go	0.517	Go_X	1.0
367.77	1.0	go	0.601	Go_O	1.0
370.311	1.0	go	0.91	Go_O	1.0
372.835	1.0	go	0.41	Go_X	1.0
375.359	1.0	go	0.51	Go_X	1.0
377.883	0.4	stop	0.465	Go_X	0.0
380.424	1.0	go	0.371	Go_O	1.0
382.949	1.0	go	0.457	Go_O	1.0
385.473	1.0	go	0.531	Go_X	1.0
387.997	1.0	go	0.595	Go_O	1.0
390.521	0.35	stop	0.0	Go_O	1.0
393.062	1.0	go	0.54	Go_X	1.0
395.586	1.0	go	0.524	Go_X	1.0
398.111	0.4	stop	0.0	Go_X	1.0
400.635	1.0	go	0.455	Go_O	1.0
403.159	0.45	stop	0.491	Go_O	0.0
405.7	1.0	go	0.485	Go_O	1.0
408.224	1.0	go	0.478	Go_X	1.0
410.748	1.0	go	0.6	Go_X	1.0
413.272	1.0	go	0.76	Go_O	1.0
415.797	1.0	go	0.642	Go_O	1.0
418.321	1.0	go	0.589	Go_X	1.0
420.862	1.0	go	0.52	Go_O	1.0
423.386	0.4	stop	0.526	Go_X	0.0
425.91	1.0	go	0.569	Go_X	1.0
428.434	1.0	go	0.498	Go_X	1.0
430.959	1.0	go	0.728	Go_O	1.0
433.483	0.35	stop	0.0	Go_O	1.0
436.007	1.0	go	0.445	Go_O	1.0
438.531	1.0	go	0.496	Go_X	1.0
441.056	1.0	go	0.573	Go_O	1.0
443.58	1.0	go	0.586	Go_X	1.0
446.121	0.4	stop	0.55	Go_X	0.0
448.662	1.0	go	0.612	Go_O	0.0
451.186	1.0	go	0.634	Go_X	1.0
453.71	0.35	stop	0.0	Go_O	1.0
456.234	1.0	go	0.48	Go_O	1.0
458.758	1.0	go	0.411	Go_X	1.0
461.283	0.4	stop	0.0	Go_X	1.0
463.807	1.0	go	0.451	Go_O	1.0
466.331	1.0	go	0.518	Go_X	1.0
468.855	0.45	stop	0.0	Go_O	1.0
471.38	1.0	go	0.548	Go_X	1.0
473.904	1.0	go	0.539	Go_O	1.0
476.428	1.0	go	0.883	Go_O	1.0
478.952	1.0	go	0.546	Go_X	1.0
481.476	1.0	go	0.471	Go_X	1.0
484.001	1.0	go	0.594	Go_O	1.0
486.525	0.5	stop	0.561	Go_X	0.0
489.049	1.0	go	0.526	Go_O	1.0
491.573	0.45	stop	0.481	Go_O	0.0
494.097	1.0	go	0.0	Go_X	0.0
496.622	1.0	go	0.632	Go_O	1.0
499.146	1.0	go	0.478	Go_X	1.0
501.67	1.0	go	0.77	Go_O	1.0
504.194	1.0	go	0.796	Go_X	1.0
506.719	0.4	stop	0.388	Go_X	0.0
509.259	1.0	go	0.43	Go_X	1.0
511.784	1.0	go	0.566	Go_O	1.0
514.308	1.0	go	0.59	Go_X	1.0
516.832	0.35	stop	0.0	Go_O	1.0
519.356	0.4	stop	0.466	Go_X	0.0
521.881	0.35	stop	0.0	Go_O	1.0
524.421	1.0	go	0.549	Go_O	1.0
526.946	0.4	stop	0.536	Go_X	0.0
529.47	1.0	go	0.648	Go_X	1.0
531.994	1.0	go	0.512	Go_O	1.0
534.518	1.0	go	0.485	Go_X	1.0
537.043	1.0	go	0.52	Go_O	1.0
539.567	1.0	go	0.704	Go_O	1.0
542.091	1.0	go	0.439	Go_X	1.0
544.615	1.0	go	0.45	Go_X	1.0
547.14	1.0	go	0.495	Go_O	1.0
549.664	0.35	stop	0.0	Go_O	1.0
552.188	1.0	go	0.639	Go_O	1.0
554.712	1.0	go	0.561	Go_X	1.0
557.253	0.4	stop	0.0	Go_X	1.0
559.794	1.0	go	0.581	Go_O	1.0
562.318	1.0	go	0.565	Go_X	1.0
564.859	1.0	go	0.726	Go_O	1.0
567.383	1.0	go	0.767	Go_X	1.0
569.907	1.0	go	0.822	Go_X	1.0
572.432	0.45	stop	0.0	Go_O	1.0
574.956	1.0	go	0.608	Go_O	1.0
577.48	1.0	go	0.721	Go_X	1.0
580.004	1.0	go	0.0	Go_O	0.0
582.529	0.5	stop	0.329	Go_X	0.0
585.053	1.0	go	0.52	Go_X	1.0
587.577	0.45	stop	0.516	Go_O	0.0
590.101	1.0	go	0.624	Go_O	1.0
592.625	1.0	go	0.593	Go_X	1.0
595.15	1.0	go	0.586	Go_O	1.0
597.674	1.0	go	0.574	Go_X	1.0
600.198	1.0	go	0.61	Go_O	1.0
602.722	1.0	go	0.536	Go_O	1.0
605.247	1.0	go	0.508	Go_X	1.0
607.771	0.4	stop	0.0	Go_X	1.0
610.295	1.0	go	0.487	Go_O	1.0
612.819	1.0	go	0.593	Go_X	1.0
615.343	1.0	go	0.621	Go_X	1.0
617.868	1.0	go	0.524	Go_O	1.0
620.392	0.45	stop	0.0	Go_O	1.0
622.933	1.0	go	0.603	Go_X	1.0
625.457	0.5	stop	0.0	Go_X	1.0
627.981	1.0	go	0.578	Go_O	1.0
630.505	1.0	go	0.479	Go_O	1.0
633.03	0.55	stop	0.0	Go_O	1.0
635.554	1.0	go	0.358	Go_X	1.0
638.078	1.0	go	0.566	Go_O	1.0
640.602	1.0	go	0.0	Go_X	0.0
643.126	1.0	go	0.449	Go_X	1.0
645.651	1.0	go	0.515	Go_O	1.0
648.175	1.0	go	0.586	Go_X	1.0
650.699	1.0	go	0.477	Go_O	1.0
653.223	1.0	go	0.564	Go_O	1.0
655.747	1.0	go	0.496	Go_X	1.0
658.272	1.0	go	0.554	Go_X	1.0
660.796	0.6	stop	0.588	Go_X	0.0
663.337	1.0	go	0.635	Go_O	1.0
665.861	1.0	go	0.691	Go_O	1.0
668.385	0.55	stop	0.613	Go_O	0.0
670.926	1.0	go	0.474	Go_X	1.0
673.45	0.5	stop	0.658	Go_X	0.0
675.975	1.0	go	0.547	Go_X	1.0
678.499	1.0	go	0.576	Go_O	1.0
681.023	0.45	stop	0.623	Go_O	0.0
683.547	1.0	go	0.642	Go_O	1.0
686.071	0.4	stop	0.0	Go_X	1.0
688.596	1.0	go	0.639	Go_X	1.0
691.12	1.0	go	0.836	Go_X	1.0
693.644	1.0	go	0.82	Go_O	1.0
696.168	0.45	stop	0.484	Go_O	0.0
698.693	1.0	go	0.566	Go_X	1.0
701.217	1.0	go	0.491	Go_O	1.0
703.741	1.0	go	0.467	Go_X	1.0
706.265	1.0	go	0.474	Go_O	1.0
708.789	0.4	stop	0.0	Go_X	1.0
711.314	1.0	go	0.511	Go_X	1.0
713.838	1.0	go	0.615	Go_O	1.0
716.362	0.45	stop	0.476	Go_O	0.0
718.886	1.0	go	0.706	Go_O	1.0
721.411	1.0	go	0.473	Go_X	1.0
723.935	1.0	go	0.592	Go_O	1.0
726.476	1.0	go	0.464	Go_X	1.0
729.0	0.4	stop	0.0	Go_X	1.0
731.524	1.0	go	0.624	Go_O	1.0
734.048	0.45	stop	0.0	Go_O	1.0
736.572	1.0	go	0.665	Go_X	1.0
739.097	1.0	go	0.56	Go_X	1.0
741.638	0.5	stop	0.0	Go_X	1.0
744.179	1.0	go	0.581	Go_O	1.0
746.719	1.0	go	0.481	Go_X	1.0
749.244	1.0	go	0.853	Go_O	1.0
751.785	1.0	go	0.657	Go_O	1.0
754.309	0.55	stop	0.525	Go_O	0.0
756.833	1.0	go	0.561	Go_X	1.0
759.357	0.5	stop	0.536	Go_X	0.0
761.881	1.0	go	0.624	Go_O	1.0
764.406	1.0	go	0.6	Go_X	1.0
766.93	1.0	go	0.558	Go_O	1.0
769.454	1.0	go	0.645	Go_X	1.0
771.978	1.0	go	0.587	Go_X	1.0
774.503	1.0	go	0.659	Go_O	1.0
777.027	0.45	stop	0.0	Go_O	1.0
779.551	1.0	go	0.65	Go_X	1.0
782.075	1.0	go	0.927	Go_O	1.0
784.599	0.5	stop	0.612	Go_X	0.0
787.124	1.0	go	0.431	Go_X	1.0
789.648	1.0	go	0.559	Go_O	1.0
792.172	0.45	stop	0.568	Go_O	0.0
794.696	1.0	go	0.486	Go_O	1.0
797.22	1.0	go	0.578	Go_X	1.0
799.745	1.0	go	0.455	Go_X	1.0
802.269	1.0	go	0.534	Go_O	1.0
804.793	0.4	stop	0.474	Go_X	0.0
807.317	1.0	go	0.384	Go_X	1.0
809.841	0.35	stop	0.428	Go_O	0.0
812.382	1.0	go	0.318	Go_O	1.0
814.907	1.0	go	0.545	Go_O	1.0
817.431	1.0	go	0.582	Go_X	1.0
819.955	1.0	go	0.589	Go_O	1.0
822.479	1.0	go	0.711	Go_X	1.0
825.003	0.3	stop	0.0	Go_X	1.0
827.528	1.0	go	0.522	Go_O	1.0
830.069	1.0	go	0.611	Go_X	1.0
832.593	0.35	stop	0.0	Go_O	1.0
835.117	0.4	stop	0.0	Go_X	1.0
837.641	1.0	go	0.608	Go_X	1.0
840.166	1.0	go	0.486	Go_O	1.0
842.69	1.0	go	0.733	Go_O	1.0
845.214	1.0	go	0.832	Go_X	1.0
847.738	0.45	stop	0.0	Go_O	1.0
850.262	1.0	go	0.63	Go_X	1.0
