onset	duration	trial_type	response_time	stim_file	accuracy
46.029	1.0	go	0.737	Go_X	1.0
48.603	1.0	go	0.36	Go_O	1.0
51.194	1.0	go	0.386	Go_X	1.0
53.752	1.0	go	0.43	Go_O	1.0
56.276	1.0	go	0.387	Go_O	1.0
58.851	1.0	go	0.473	Go_X	1.0
61.375	0.25	stopfail	0.31	Go_O	0.0
63.899	1.0	go	0.481	Go_X	1.0
66.423	0.2	stopsuccess	0.0	Go_X	1.0
68.947	1.0	go	0.283	Go_O	1.0
71.472	1.0	go	0.489	Go_O	1.0
73.996	1.0	go	0.517	Go_X	1.0
76.52	0.25	stopfail	0.299	Go_O	0.0
79.044	1.0	go	0.369	Go_X	1.0
81.568	1.0	go	0.637	Go_O	1.0
84.092	0.2	stopsuccess	0.0	Go_X	1.0
86.617	0.25	stopfail	0.352	Go_O	0.0
89.141	1.0	go	0.583	Go_O	1.0
91.665	1.0	go	0.374	Go_X	1.0
94.189	0.2	stopsuccess	0.0	Go_X	1.0
96.713	1.0	go	0.556	Go_O	1.0
99.238	1.0	go	0.444	Go_X	1.0
101.762	0.25	stopfail	0.344	Go_O	0.0
104.286	1.0	go	0.558	Go_X	1.0
106.81	1.0	go	0.455	Go_O	1.0
109.334	0.2	stopsuccess	0.0	Go_X	1.0
111.859	1.0	go	0.428	Go_O	1.0
114.383	1.0	go	0.496	Go_X	1.0
116.907	0.25	stopsuccess	0.0	Go_O	1.0
119.431	1.0	go	0.556	Go_O	1.0
121.955	1.0	go	0.363	Go_X	1.0
124.48	1.0	go	0.337	Go_O	1.0
127.004	1.0	go	0.418	Go_X	1.0
129.528	1.0	go	0.424	Go_O	1.0
132.052	0.3	stopfail	0.429	Go_X	0.0
134.576	1.0	go	0.593	Go_X	1.0
137.101	1.0	go	0.46	Go_O	1.0
139.625	1.0	go	0.474	Go_X	1.0
142.149	1.0	go	0.414	Go_O	1.0
144.673	1.0	go	0.275	Go_X	1.0
147.197	0.25	stopfail	0.307	Go_O	0.0
149.721	1.0	go	0.435	Go_O	1.0
152.246	1.0	go	0.485	Go_X	1.0
154.77	1.0	go	0.568	Go_O	1.0
157.294	1.0	go	0.448	Go_X	1.0
159.818	1.0	go	0.452	Go_O	1.0
162.342	1.0	go	0.316	Go_X	1.0
164.867	0.2	stopsuccess	0.0	Go_X	1.0
167.391	1.0	go	0.384	Go_O	1.0
169.915	1.0	go	0.362	Go_X	1.0
172.439	0.25	stopsuccess	0.0	Go_O	1.0
174.963	1.0	go	0.712	Go_O	1.0
177.488	0.3	stopfail	0.482	Go_X	0.0
180.012	0.25	stopsuccess	0.0	Go_O	1.0
182.536	1.0	go	0.519	Go_X	1.0
185.06	1.0	go	0.473	Go_O	1.0
187.584	1.0	go	0.504	Go_X	1.0
190.109	1.0	go	0.878	Go_O	1.0
192.633	0.3	stopfail	0.363	Go_X	0.0
195.157	1.0	go	0.513	Go_X	1.0
197.681	0.25	stopsuccess	0.0	Go_O	1.0
200.205	1.0	go	0.569	Go_X	1.0
202.73	1.0	go	0.518	Go_O	1.0
205.254	1.0	go	0.751	Go_O	1.0
207.778	1.0	go	0.459	Go_X	1.0
210.302	1.0	go	0.453	Go_X	1.0
212.826	1.0	go	0.603	Go_O	1.0
215.35	1.0	go	0.678	Go_X	1.0
217.875	1.0	go	0.534	Go_O	1.0
220.399	1.0	go	0.665	Go_O	1.0
222.923	0.3	stopsuccess	0.0	Go_X	1.0
225.447	1.0	go	0.463	Go_X	1.0
227.971	1.0	go	0.483	Go_X	1.0
230.496	1.0	go	0.466	Go_O	1.0
233.02	0.35	stopfail	0.375	Go_O	0.0
235.544	1.0	go	0.459	Go_O	1.0
238.068	1.0	go	0.453	Go_X	1.0
240.592	1.0	go	0.729	Go_X	1.0
243.117	1.0	go	0.0	Go_O	0.0
245.641	1.0	go	0.377	Go_X	1.0
248.165	1.0	go	0.34	Go_O	1.0
250.689	0.3	stopfail	0.428	Go_X	0.0
253.213	1.0	go	0.863	Go_O	1.0
255.738	1.0	go	0.756	Go_X	1.0
258.262	0.25	stopsuccess	0.0	Go_O	1.0
260.786	1.0	go	0.541	Go_O	1.0
263.31	1.0	go	0.535	Go_X	1.0
265.834	0.3	stopsuccess	0.0	Go_X	1.0
268.359	1.0	go	0.563	Go_X	1.0
270.883	0.35	stopsuccess	0.0	Go_O	1.0
273.407	1.0	go	0.468	Go_O	1.0
275.931	1.0	go	0.507	Go_O	1.0
278.455	1.0	go	0.658	Go_X	1.0
280.979	1.0	go	0.5	Go_O	1.0
283.504	1.0	go	0.464	Go_X	1.0
286.028	0.4	stopsuccess	0.0	Go_X	1.0
288.552	0.45	stopsuccess	0.0	Go_O	1.0
291.076	1.0	go	0.446	Go_X	1.0
293.6	1.0	go	0.794	Go_O	1.0
296.125	0.5	stopfail	0.356	Go_X	0.0
298.649	1.0	go	0.34	Go_O	1.0
301.173	1.0	go	0.41	Go_X	1.0
303.697	1.0	go	0.54	Go_X	1.0
306.221	1.0	go	0.482	Go_O	1.0
308.746	1.0	go	0.616	Go_X	1.0
311.27	1.0	go	0.456	Go_O	1.0
313.794	0.45	stopfail	0.451	Go_O	0.0
316.318	1.0	go	0.541	Go_O	1.0
318.842	1.0	go	0.521	Go_X	1.0
321.367	1.0	go	0.459	Go_X	1.0
323.891	1.0	go	0.366	Go_O	1.0
326.415	1.0	go	0.766	Go_O	1.0
328.939	0.4	stopfail	0.52	Go_X	0.0
331.463	1.0	go	0.423	Go_X	1.0
333.988	1.0	go	0.49	Go_X	1.0
336.512	1.0	go	0.576	Go_O	1.0
339.036	1.0	go	0.373	Go_X	1.0
341.56	0.35	stopfail	0.47	Go_O	0.0
344.084	1.0	go	0.568	Go_O	1.0
346.608	1.0	go	0.449	Go_O	1.0
349.133	0.3	stopfail	0.272	Go_X	0.0
351.657	1.0	go	0.744	Go_X	1.0
354.181	0.25	stopfail	0.374	Go_O	0.0
356.705	1.0	go	0.518	Go_X	1.0
359.229	1.0	go	0.371	Go_O	1.0
361.754	1.0	go	0.506	Go_O	1.0
364.278	1.0	go	0.448	Go_X	1.0
366.802	1.0	go	0.0	Go_O	0.0
369.326	1.0	go	0.328	Go_X	1.0
371.85	1.0	go	0.3	Go_O	1.0
374.375	0.2	stopsuccess	0.0	Go_X	1.0
376.899	1.0	go	0.375	Go_X	1.0
379.423	1.0	go	0.374	Go_X	1.0
381.947	1.0	go	0.301	Go_O	1.0
384.471	0.25	stopfail	0.408	Go_O	0.0
386.996	1.0	go	0.693	Go_X	1.0
389.52	1.0	go	0.372	Go_O	1.0
392.044	1.0	go	0.529	Go_O	1.0
394.568	1.0	go	0.602	Go_X	1.0
397.092	0.2	stopsuccess	0.0	Go_X	1.0
399.617	1.0	go	0.393	Go_O	1.0
402.141	1.0	go	0.39	Go_X	1.0
404.665	0.25	stopsuccess	0.0	Go_O	1.0
407.189	1.0	go	0.489	Go_O	1.0
409.713	1.0	go	0.537	Go_X	1.0
412.237	0.3	stopsuccess	0.0	Go_X	1.0
414.762	1.0	go	0.469	Go_O	1.0
417.286	1.0	go	0.526	Go_X	1.0
419.81	0.35	stopsuccess	0.0	Go_O	1.0
422.334	1.0	go	0.634	Go_X	0.0
424.858	1.0	go	0.411	Go_O	1.0
427.383	1.0	go	0.403	Go_X	1.0
429.907	1.0	go	0.485	Go_O	1.0
432.431	1.0	go	0.5	Go_X	1.0
434.955	1.0	go	0.481	Go_O	1.0
437.479	0.4	stopfail	0.347	Go_X	0.0
440.004	1.0	go	0.0	Go_X	0.0
442.528	0.35	stopfail	0.315	Go_O	0.0
445.052	1.0	go	0.353	Go_O	1.0
447.576	1.0	go	0.512	Go_X	1.0
450.1	1.0	go	0.333	Go_O	1.0
452.625	1.0	go	0.503	Go_X	1.0
455.149	1.0	go	0.354	Go_O	1.0
457.673	0.3	stopfail	0.413	Go_X	0.0
460.197	1.0	go	0.525	Go_O	1.0
462.721	1.0	go	0.467	Go_X	1.0
465.246	1.0	go	0.372	Go_O	1.0
467.77	0.25	stopsuccess	0.0	Go_O	1.0
470.294	0.3	stopfail	0.445	Go_X	0.0
472.818	0.25	stopsuccess	0.0	Go_O	1.0
475.342	1.0	go	0.4	Go_X	1.0
477.866	0.3	stopsuccess	0.0	Go_X	1.0
480.391	1.0	go	0.781	Go_O	1.0
482.915	1.0	go	0.534	Go_X	1.0
485.439	1.0	go	0.485	Go_X	1.0
487.963	1.0	go	0.421	Go_O	1.0
490.487	1.0	go	0.557	Go_O	1.0
493.012	1.0	go	0.499	Go_X	1.0
495.536	1.0	go	0.535	Go_O	1.0
498.06	1.0	go	0.509	Go_X	1.0
500.584	0.35	stopsuccess	0.0	Go_O	1.0
503.108	1.0	go	0.684	Go_X	1.0
505.633	1.0	go	0.615	Go_O	1.0
508.157	0.4	stopfail	0.435	Go_X	0.0
510.681	1.0	go	0.402	Go_O	1.0
513.205	1.0	go	0.503	Go_X	1.0
515.729	1.0	go	0.612	Go_X	1.0
518.254	1.0	go	0.491	Go_O	1.0
520.778	1.0	go	0.466	Go_O	1.0
523.302	0.35	stopfail	0.286	Go_O	0.0
525.826	1.0	go	0.451	Go_X	1.0
528.35	1.0	go	0.463	Go_O	1.0
530.875	1.0	go	0.565	Go_X	1.0
533.399	0.3	stopsuccess	0.0	Go_X	1.0
535.923	1.0	go	0.362	Go_O	1.0
538.447	0.35	stopsuccess	0.0	Go_O	1.0
540.971	1.0	go	0.533	Go_X	1.0
543.495	1.0	go	0.778	Go_O	1.0
546.02	1.0	go	0.49	Go_X	1.0
548.544	1.0	go	0.464	Go_X	1.0
551.068	1.0	go	0.388	Go_O	1.0
553.592	1.0	go	0.308	Go_X	1.0
556.116	1.0	go	0.498	Go_O	1.0
558.641	0.4	stopfail	0.345	Go_X	0.0
561.165	1.0	go	0.478	Go_O	1.0
563.689	1.0	go	0.511	Go_X	1.0
566.213	1.0	go	0.518	Go_O	1.0
568.737	1.0	go	0.342	Go_X	1.0
571.262	0.35	stopfail	0.454	Go_O	0.0
573.786	1.0	go	0.427	Go_X	1.0
576.31	0.3	stopfail	0.469	Go_X	0.0
578.834	1.0	go	0.0	Go_O	0.0
581.358	1.0	go	0.545	Go_X	1.0
583.883	0.25	stopfail	0.327	Go_O	0.0
586.407	1.0	go	0.488	Go_O	1.0
588.931	1.0	go	0.466	Go_O	1.0
591.455	1.0	go	0.455	Go_X	1.0
593.979	1.0	go	0.471	Go_X	1.0
596.504	1.0	go	0.402	Go_O	1.0
599.028	1.0	go	0.456	Go_O	1.0
601.552	1.0	go	0.5	Go_X	1.0
604.076	1.0	go	0.615	Go_O	1.0
606.6	1.0	go	0.474	Go_X	1.0
609.124	1.0	go	0.43	Go_O	1.0
611.649	0.2	stopsuccess	0.0	Go_X	1.0
614.173	1.0	go	0.509	Go_X	1.0
616.697	1.0	go	0.448	Go_X	1.0
619.221	0.25	stopsuccess	0.0	Go_O	1.0
621.745	1.0	go	0.331	Go_O	1.0
624.27	0.3	stopsuccess	0.0	Go_X	1.0
626.794	1.0	go	0.381	Go_X	0.0
629.318	1.0	go	0.633	Go_O	1.0
631.842	0.35	stopsuccess	0.0	Go_O	1.0
634.366	1.0	go	0.49	Go_X	1.0
636.891	0.4	stopsuccess	0.0	Go_X	1.0
639.415	1.0	go	0.487	Go_O	1.0
641.939	1.0	go	0.682	Go_O	1.0
644.463	1.0	go	0.615	Go_X	1.0
646.987	0.45	stopfail	0.486	Go_O	0.0
649.512	1.0	go	0.958	Go_O	1.0
652.036	1.0	go	0.352	Go_X	1.0
654.56	1.0	go	0.548	Go_O	1.0
657.084	1.0	go	0.494	Go_X	1.0
659.608	0.4	stopfail	0.47	Go_X	0.0
662.133	1.0	go	0.92	Go_O	1.0
664.657	1.0	go	0.4	Go_X	1.0
667.181	0.35	stopfail	0.369	Go_O	0.0
669.705	1.0	go	0.461	Go_X	1.0
672.229	1.0	go	0.405	Go_O	1.0
674.753	1.0	go	0.428	Go_O	1.0
677.278	1.0	go	0.449	Go_X	1.0
679.802	0.3	stopsuccess	0.0	Go_X	1.0
682.326	1.0	go	0.659	Go_O	1.0
684.85	0.35	stopfail	0.431	Go_O	0.0
687.374	1.0	go	0.609	Go_X	1.0
689.899	1.0	go	0.509	Go_X	1.0
692.423	0.3	stopfail	0.422	Go_X	0.0
694.947	1.0	go	0.311	Go_O	1.0
697.471	1.0	go	0.0	Go_X	0.0
699.995	1.0	go	0.459	Go_O	1.0
702.52	1.0	go	0.331	Go_X	1.0
705.044	0.25	stopfail	0.325	Go_O	0.0
707.568	1.0	go	0.575	Go_O	1.0
710.092	0.2	stopsuccess	0.0	Go_X	1.0
712.616	1.0	go	0.369	Go_O	1.0
715.141	1.0	go	0.667	Go_X	1.0
717.665	1.0	go	0.521	Go_X	1.0
720.189	1.0	go	0.294	Go_O	1.0
722.713	1.0	go	0.521	Go_O	1.0
725.237	1.0	go	0.5	Go_X	1.0
727.762	0.25	stopsuccess	0.0	Go_O	1.0
730.286	1.0	go	0.415	Go_X	1.0
732.81	1.0	go	0.635	Go_O	1.0
735.334	0.3	stopsuccess	0.0	Go_X	1.0
737.858	1.0	go	0.553	Go_O	1.0
740.382	1.0	go	0.571	Go_X	1.0
742.907	0.35	stopsuccess	0.0	Go_O	1.0
745.431	1.0	go	0.407	Go_X	1.0
747.955	1.0	go	0.581	Go_O	1.0
750.479	1.0	go	0.364	Go_X	1.0
753.003	1.0	go	0.302	Go_O	1.0
755.528	0.4	stopfail	0.503	Go_X	0.0
758.052	1.0	go	0.4	Go_O	1.0
760.576	0.35	stopfail	0.008	Go_O	0.0
763.1	1.0	go	0.54	Go_X	1.0
765.624	1.0	go	0.474	Go_O	1.0
768.149	1.0	go	0.407	Go_X	1.0
770.673	1.0	go	0.704	Go_X	0.0
773.197	1.0	go	0.508	Go_O	1.0
775.721	0.3	stopfail	0.524	Go_X	0.0
778.245	1.0	go	0.442	Go_O	1.0
780.77	1.0	go	0.641	Go_X	1.0
783.294	0.25	stopsuccess	0.0	Go_O	1.0
785.818	0.3	stopfail	0.387	Go_X	0.0
788.342	1.0	go	0.396	Go_X	1.0
790.866	1.0	go	0.424	Go_O	1.0
793.391	1.0	go	0.42	Go_O	1.0
795.915	1.0	go	0.433	Go_X	1.0
798.439	0.25	stopsuccess	0.0	Go_O	1.0
800.963	1.0	go	0.99	Go_X	1.0
