onset	duration	trial_type	response_time	stim_file	accuracy
578.67	1.0	go	0.875	Go_O	1.0
581.295	1.0	go	0.525	Go_X	1.0
583.819	1.0	go	0.399	Go_X	1.0
586.343	1.0	go	0.38	Go_O	1.0
588.867	1.0	go	0.218	Go_X	1.0
591.392	1.0	go	0.286	Go_O	1.0
593.916	0.25	stop	0.0	Go_O	1.0
596.44	1.0	go	0.429	Go_O	1.0
598.964	0.3	stop	0.351	Go_X	0.0
601.488	1.0	go	0.565	Go_X	1.0
604.012	1.0	go	0.434	Go_X	1.0
606.537	1.0	go	0.355	Go_O	1.0
609.061	0.25	stop	0.0	Go_O	1.0
611.585	1.0	go	0.52	Go_O	1.0
614.109	1.0	go	0.506	Go_X	1.0
616.633	0.3	stop	0.0	Go_X	1.0
619.157	0.35	stop	0.0	Go_O	1.0
621.682	1.0	go	0.318	Go_O	1.0
624.206	1.0	go	0.47	Go_X	1.0
626.73	0.4	stop	0.0	Go_X	1.0
629.254	1.0	go	0.982	Go_X	1.0
631.778	1.0	go	0.281	Go_O	1.0
634.302	0.45	stop	0.566	Go_O	0.0
636.827	1.0	go	0.55	Go_X	1.0
639.351	1.0	go	0.64	Go_O	1.0
641.875	0.4	stop	0.0	Go_X	1.0
644.399	1.0	go	0.414	Go_O	1.0
646.923	1.0	go	0.0	Go_X	0.0
649.447	0.45	stop	0.517	Go_O	0.0
651.972	1.0	go	0.554	Go_O	1.0
654.496	1.0	go	0.514	Go_X	1.0
657.02	1.0	go	0.552	Go_O	1.0
659.544	1.0	go	0.691	Go_X	1.0
662.068	1.0	go	0.445	Go_O	1.0
664.592	0.4	stop	0.0	Go_X	1.0
667.117	1.0	go	0.562	Go_X	1.0
669.641	1.0	go	0.361	Go_O	1.0
672.165	1.0	go	0.588	Go_X	1.0
674.689	1.0	go	0.567	Go_O	1.0
677.213	1.0	go	0.532	Go_X	1.0
679.738	0.45	stop	0.473	Go_O	0.0
682.262	1.0	go	0.662	Go_O	1.0
684.786	1.0	go	0.595	Go_X	1.0
687.31	1.0	go	0.636	Go_O	1.0
689.834	1.0	go	0.501	Go_X	1.0
692.358	1.0	go	0.512	Go_X	1.0
694.883	1.0	go	0.622	Go_O	1.0
697.407	0.4	stop	0.0	Go_X	1.0
699.931	1.0	go	0.471	Go_O	1.0
702.455	1.0	go	0.893	Go_X	1.0
704.979	0.45	stop	0.306	Go_O	0.0
707.503	1.0	go	0.283	Go_O	1.0
710.028	0.4	stop	0.353	Go_X	0.0
712.552	0.35	stop	0.334	Go_O	0.0
715.076	1.0	go	0.405	Go_X	1.0
717.6	1.0	go	0.512	Go_X	1.0
720.124	1.0	go	0.545	Go_O	1.0
722.648	1.0	go	0.664	Go_X	1.0
725.173	0.3	stop	0.482	Go_X	0.0
727.697	1.0	go	0.698	Go_O	1.0
730.221	0.25	stop	0.411	Go_O	0.0
732.745	1.0	go	0.378	Go_X	1.0
735.269	1.0	go	0.318	Go_O	1.0
737.793	1.0	go	0.62	Go_O	1.0
740.318	1.0	go	0.47	Go_X	1.0
742.842	1.0	go	0.475	Go_O	1.0
745.366	1.0	go	0.407	Go_X	0.0
747.89	1.0	go	0.406	Go_O	0.0
750.414	1.0	go	0.432	Go_X	1.0
752.939	1.0	go	0.37	Go_O	1.0
755.463	0.2	stop	0.408	Go_X	0.0
757.987	1.0	go	0.298	Go_X	1.0
760.511	1.0	go	0.508	Go_X	1.0
763.035	1.0	go	0.398	Go_O	1.0
765.559	0.15	stop	0.0	Go_O	1.0
768.084	1.0	go	0.39	Go_O	1.0
770.608	1.0	go	0.443	Go_X	1.0
773.132	1.0	go	0.656	Go_X	1.0
775.656	1.0	go	0.287	Go_O	1.0
778.18	1.0	go	0.452	Go_X	1.0
780.704	1.0	go	0.429	Go_O	1.0
783.229	0.2	stop	0.0	Go_X	1.0
785.753	1.0	go	0.444	Go_O	1.0
788.277	1.0	go	0.472	Go_X	1.0
790.801	0.25	stop	0.0	Go_O	1.0
793.325	1.0	go	0.416	Go_O	1.0
795.849	1.0	go	0.523	Go_X	1.0
798.374	0.3	stop	0.0	Go_X	1.0
800.898	1.0	go	0.397	Go_X	1.0
803.422	0.35	stop	0.47	Go_O	0.0
805.946	1.0	go	0.616	Go_O	1.0
808.47	1.0	go	0.554	Go_X	1.0
810.994	1.0	go	0.622	Go_O	1.0
813.519	1.0	go	0.512	Go_X	1.0
816.043	1.0	go	0.396	Go_O	1.0
818.567	0.3	stop	0.0	Go_X	1.0
821.091	0.35	stop	0.407	Go_O	0.0
823.615	1.0	go	0.374	Go_X	1.0
826.139	1.0	go	0.631	Go_O	1.0
828.664	0.3	stop	0.453	Go_X	0.0
831.188	1.0	go	0.414	Go_X	1.0
833.712	1.0	go	0.37	Go_O	1.0
836.236	1.0	go	0.657	Go_X	0.0
838.76	1.0	go	0.5	Go_O	1.0
841.285	1.0	go	0.614	Go_O	1.0
843.809	1.0	go	0.461	Go_X	1.0
846.333	0.25	stop	0.424	Go_O	0.0
848.857	1.0	go	0.534	Go_O	1.0
851.381	1.0	go	0.423	Go_X	0.0
853.905	1.0	go	0.465	Go_O	1.0
856.43	1.0	go	0.716	Go_X	1.0
858.954	1.0	go	0.402	Go_X	1.0
861.478	0.2	stop	0.0	Go_X	1.0
864.002	1.0	go	0.501	Go_O	1.0
866.526	1.0	go	0.645	Go_X	1.0
869.05	1.0	go	0.395	Go_O	1.0
871.575	1.0	go	0.499	Go_X	1.0
874.099	0.25	stop	0.371	Go_O	0.0
876.623	1.0	go	0.36	Go_O	1.0
879.147	1.0	go	0.526	Go_X	1.0
881.671	0.2	stop	0.0	Go_X	1.0
884.195	1.0	go	0.351	Go_O	1.0
886.72	0.25	stop	0.0	Go_O	1.0
889.244	1.0	go	0.488	Go_X	1.0
891.768	1.0	go	0.504	Go_O	1.0
894.292	1.0	go	0.452	Go_O	1.0
896.816	1.0	go	0.749	Go_X	1.0
899.34	1.0	go	0.722	Go_O	1.0
901.865	1.0	go	0.565	Go_X	1.0
904.389	1.0	go	0.662	Go_X	1.0
906.913	0.3	stop	0.495	Go_X	0.0
909.437	1.0	go	0.597	Go_O	1.0
911.961	1.0	go	0.45	Go_O	1.0
914.485	1.0	go	0.598	Go_X	1.0
917.01	0.25	stop	0.421	Go_O	0.0
919.534	1.0	go	0.413	Go_O	1.0
922.058	1.0	go	0.59	Go_X	1.0
924.582	1.0	go	0.925	Go_O	1.0
927.106	1.0	go	0.679	Go_X	1.0
929.631	0.2	stop	0.0	Go_X	1.0
932.155	1.0	go	0.697	Go_X	1.0
934.679	1.0	go	0.511	Go_O	1.0
937.203	0.25	stop	0.0	Go_O	1.0
939.727	1.0	go	0.327	Go_X	1.0
942.251	1.0	go	0.426	Go_O	1.0
944.776	0.3	stop	0.542	Go_X	0.0
947.3	1.0	go	0.335	Go_X	1.0
949.824	1.0	go	0.343	Go_O	1.0
952.348	0.25	stop	0.0	Go_O	1.0
954.872	1.0	go	0.354	Go_O	1.0
957.396	1.0	go	0.452	Go_X	1.0
959.921	1.0	go	0.447	Go_X	1.0
962.445	1.0	go	0.451	Go_O	1.0
964.969	1.0	go	0.799	Go_O	1.0
967.493	1.0	go	0.498	Go_X	1.0
970.017	0.3	stop	0.461	Go_X	0.0
972.541	1.0	go	0.385	Go_O	1.0
975.066	0.25	stop	0.0	Go_O	1.0
977.59	1.0	go	0.486	Go_X	1.0
980.114	1.0	go	0.443	Go_X	1.0
982.638	1.0	go	0.414	Go_O	1.0
985.162	1.0	go	0.659	Go_O	1.0
987.686	1.0	go	0.552	Go_X	1.0
990.211	0.3	stop	0.0	Go_X	1.0
992.735	1.0	go	0.403	Go_O	1.0
995.259	1.0	go	0.56	Go_X	1.0
997.783	1.0	go	0.402	Go_X	1.0
1000.307	0.35	stop	0.509	Go_O	0.0
1002.832	0.3	stop	0.453	Go_X	0.0
1005.356	0.25	stop	0.355	Go_O	0.0
1007.88	1.0	go	0.306	Go_O	1.0
1010.404	0.2	stop	0.0	Go_X	1.0
1012.928	1.0	go	0.546	Go_X	1.0
1015.452	1.0	go	0.533	Go_O	1.0
1017.977	1.0	go	0.427	Go_O	1.0
1020.501	1.0	go	0.453	Go_X	1.0
1023.025	1.0	go	0.419	Go_X	1.0
1025.549	1.0	go	0.551	Go_O	1.0
1028.073	1.0	go	0.639	Go_O	1.0
1030.597	1.0	go	0.485	Go_X	1.0
1033.122	0.25	stop	0.43	Go_O	0.0
1035.646	1.0	go	0.438	Go_X	1.0
1038.17	1.0	go	0.486	Go_O	1.0
1040.694	0.2	stop	0.0	Go_X	1.0
1043.218	1.0	go	0.726	Go_X	1.0
1045.742	1.0	go	0.7	Go_O	1.0
1048.267	1.0	go	0.477	Go_O	1.0
1050.791	1.0	go	0.542	Go_X	1.0
1053.315	1.0	go	0.0	Go_O	0.0
1055.839	0.25	stop	0.431	Go_O	0.0
1058.363	1.0	go	0.572	Go_X	1.0
1060.887	1.0	go	0.599	Go_O	1.0
1063.412	1.0	go	0.45	Go_X	1.0
1065.936	0.2	stop	0.0	Go_X	1.0
1068.46	1.0	go	0.331	Go_X	1.0
1070.984	0.25	stop	0.377	Go_O	0.0
1073.508	1.0	go	0.498	Go_O	1.0
1076.032	1.0	go	0.0	Go_O	0.0
1078.557	1.0	go	0.388	Go_X	1.0
1081.081	1.0	go	0.443	Go_X	1.0
1083.605	1.0	go	0.331	Go_O	0.0
1086.129	1.0	go	0.59	Go_X	1.0
1088.653	1.0	go	0.406	Go_O	1.0
1091.178	0.2	stop	0.0	Go_X	1.0
1093.702	1.0	go	0.583	Go_X	1.0
1096.226	1.0	go	0.0	Go_O	0.0
1098.75	1.0	go	0.452	Go_O	1.0
1101.274	1.0	go	0.378	Go_X	1.0
1103.798	0.25	stop	0.453	Go_O	0.0
1106.323	1.0	go	0.381	Go_O	1.0
1108.847	0.2	stop	0.25	Go_X	0.0
1111.371	1.0	go	0.354	Go_X	0.0
1113.895	1.0	go	0.396	Go_O	1.0
1116.419	0.15	stop	0.0	Go_O	1.0
1118.943	1.0	go	0.539	Go_X	1.0
1121.468	1.0	go	0.446	Go_O	1.0
1123.992	1.0	go	0.478	Go_X	1.0
1126.516	1.0	go	0.869	Go_X	1.0
1129.04	1.0	go	0.437	Go_O	1.0
1131.564	1.0	go	0.545	Go_X	1.0
1134.088	1.0	go	0.331	Go_O	1.0
1136.613	1.0	go	0.389	Go_O	1.0
1139.137	1.0	go	0.441	Go_X	1.0
1141.661	1.0	go	0.561	Go_X	1.0
1144.185	0.2	stop	0.0	Go_X	1.0
1146.709	1.0	go	0.406	Go_O	1.0
1149.233	1.0	go	0.352	Go_O	1.0
1151.758	0.25	stop	0.346	Go_O	0.0
1154.282	1.0	go	0.435	Go_X	1.0
1156.806	0.2	stop	0.0	Go_X	1.0
1159.33	1.0	go	0.301	Go_X	0.0
1161.854	1.0	go	0.354	Go_O	1.0
1164.378	0.25	stop	0.386	Go_O	0.0
1166.903	1.0	go	0.555	Go_X	1.0
1169.427	0.2	stop	0.0	Go_X	1.0
1171.951	1.0	go	0.593	Go_O	0.0
1174.475	1.0	go	0.629	Go_X	1.0
1176.999	1.0	go	0.472	Go_O	1.0
1179.524	0.25	stop	0.446	Go_O	0.0
1182.048	1.0	go	0.452	Go_X	1.0
1184.572	1.0	go	0.538	Go_O	1.0
1187.096	1.0	go	0.477	Go_X	1.0
1189.62	1.0	go	0.448	Go_O	1.0
1192.144	0.2	stop	0.425	Go_X	0.0
1194.669	1.0	go	0.433	Go_O	1.0
1197.193	1.0	go	0.505	Go_X	1.0
1199.717	0.15	stop	0.0	Go_O	1.0
1202.241	1.0	go	0.523	Go_X	1.0
1204.765	1.0	go	0.734	Go_O	1.0
1207.289	1.0	go	0.0	Go_O	0.0
1209.814	1.0	go	0.392	Go_X	1.0
1212.338	0.2	stop	0.0	Go_X	1.0
1214.862	1.0	go	0.396	Go_O	1.0
1217.386	0.25	stop	0.0	Go_O	1.0
1219.91	1.0	go	0.622	Go_X	0.0
1222.434	1.0	go	0.595	Go_X	0.0
1224.959	0.3	stop	0.0	Go_X	1.0
1227.483	1.0	go	0.717	Go_O	1.0
1230.007	1.0	go	0.503	Go_O	1.0
1232.531	1.0	go	0.84	Go_X	0.0
1235.055	1.0	go	0.615	Go_O	1.0
1237.579	0.35	stop	0.0	Go_O	1.0
1240.104	1.0	go	0.441	Go_X	1.0
1242.628	0.4	stop	0.0	Go_X	1.0
1245.169	1.0	go	0.607	Go_X	0.0
1247.693	1.0	go	0.31	Go_O	1.0
1250.217	1.0	go	0.582	Go_X	1.0
1252.741	1.0	go	0.45	Go_O	1.0
1255.265	1.0	go	0.497	Go_X	1.0
1257.79	1.0	go	0.534	Go_O	1.0
1260.314	0.45	stop	0.451	Go_O	0.0
1262.838	1.0	go	0.44	Go_X	1.0
1265.362	1.0	go	0.519	Go_O	1.0
1267.886	0.4	stop	0.46	Go_X	0.0
1270.41	1.0	go	0.927	Go_X	1.0
1272.935	1.0	go	0.468	Go_O	1.0
1275.459	0.35	stop	0.0	Go_O	1.0
1277.983	1.0	go	0.0	Go_O	0.0
1280.507	1.0	go	0.55	Go_X	1.0
1283.031	1.0	go	0.595	Go_O	1.0
1285.555	1.0	go	0.512	Go_X	1.0
1288.08	0.4	stop	0.445	Go_X	0.0
1290.604	1.0	go	0.0	Go_O	0.0
1293.128	0.35	stop	0.487	Go_O	0.0
1295.652	1.0	go	0.63	Go_X	1.0
1298.176	1.0	go	0.542	Go_X	1.0
1300.7	1.0	go	0.568	Go_O	1.0
1303.225	1.0	go	0.406	Go_X	1.0
1305.749	1.0	go	0.644	Go_O	1.0
1308.273	0.3	stop	0.0	Go_X	1.0
1310.797	1.0	go	0.528	Go_O	1.0
1313.321	1.0	go	0.426	Go_X	1.0
1315.846	0.35	stop	0.505	Go_O	0.0
1318.37	0.3	stop	0.533	Go_X	0.0
1320.894	1.0	go	0.392	Go_O	1.0
1323.418	1.0	go	0.488	Go_X	1.0
1325.942	1.0	go	0.57	Go_X	1.0
1328.466	1.0	go	0.51	Go_O	1.0
1330.991	0.25	stop	0.0	Go_O	1.0
1333.515	1.0	go	0.879	Go_X	1.0
