onset	duration	trial_type	response_time	stim_file	accuracy
0.5869999999999891	1.0	go	0.875	Go_O	1.0
3.211999999999989	1.0	go	0.525	Go_X	1.0
5.73599999999999	1.0	go	0.399	Go_X	1.0
8.259999999999991	1.0	go	0.38	Go_O	1.0
10.783999999999992	1.0	go	0.218	Go_X	1.0
13.309000000000083	1.0	go	0.286	Go_O	1.0
15.833000000000084	0.25	stopsuccess	0.0	Go_O	1.0
18.357000000000085	1.0	go	0.429	Go_O	1.0
20.881000000000085	0.3	stopfail	0.351	Go_X	0.0
23.405000000000086	1.0	go	0.565	Go_X	1.0
25.928999999999974	1.0	go	0.434	Go_X	1.0
28.454000000000065	1.0	go	0.355	Go_O	1.0
30.978000000000065	0.25	stopsuccess	0.0	Go_O	1.0
33.502000000000066	1.0	go	0.52	Go_O	1.0
36.02600000000007	1.0	go	0.506	Go_X	1.0
38.55000000000007	0.3	stopsuccess	0.0	Go_X	1.0
41.07400000000007	0.35	stopsuccess	0.0	Go_O	1.0
43.599000000000046	1.0	go	0.318	Go_O	1.0
46.12300000000005	1.0	go	0.47	Go_X	1.0
48.64700000000005	0.4	stopsuccess	0.0	Go_X	1.0
51.17100000000005	1.0	go	0.982	Go_X	1.0
53.69500000000005	1.0	go	0.281	Go_O	1.0
56.21900000000005	0.45	stopfail	0.566	Go_O	0.0
58.74400000000003	1.0	go	0.55	Go_X	1.0
61.26800000000003	1.0	go	0.64	Go_O	1.0
63.79200000000003	0.4	stopsuccess	0.0	Go_X	1.0
66.31600000000003	1.0	go	0.414	Go_O	1.0
68.84000000000003	1.0	go	0.0	Go_X	0.0
71.36400000000003	0.45	stopfail	0.517	Go_O	0.0
73.88900000000001	1.0	go	0.554	Go_O	1.0
76.41300000000001	1.0	go	0.514	Go_X	1.0
78.93700000000001	1.0	go	0.552	Go_O	1.0
81.46100000000001	1.0	go	0.691	Go_X	1.0
83.98500000000001	1.0	go	0.445	Go_O	1.0
86.50900000000001	0.4	stopsuccess	0.0	Go_X	1.0
89.03399999999999	1.0	go	0.562	Go_X	1.0
91.55799999999999	1.0	go	0.361	Go_O	1.0
94.082	1.0	go	0.588	Go_X	1.0
96.606	1.0	go	0.567	Go_O	1.0
99.13	1.0	go	0.532	Go_X	1.0
101.65500000000009	0.45	stopfail	0.473	Go_O	0.0
104.17899999999997	1.0	go	0.662	Go_O	1.0
106.70299999999997	1.0	go	0.595	Go_X	1.0
109.22699999999998	1.0	go	0.636	Go_O	1.0
111.75099999999998	1.0	go	0.501	Go_X	1.0
114.27499999999998	1.0	go	0.512	Go_X	1.0
116.80000000000007	1.0	go	0.622	Go_O	1.0
119.32400000000007	0.4	stopsuccess	0.0	Go_X	1.0
121.84800000000007	1.0	go	0.471	Go_O	1.0
124.37200000000007	1.0	go	0.893	Go_X	1.0
126.89600000000007	0.45	stopfail	0.306	Go_O	0.0
129.42000000000007	1.0	go	0.283	Go_O	1.0
131.94500000000005	0.4	stopfail	0.353	Go_X	0.0
134.46900000000005	0.35	stopfail	0.334	Go_O	0.0
136.99300000000005	1.0	go	0.405	Go_X	1.0
139.51700000000005	1.0	go	0.512	Go_X	1.0
142.04100000000005	1.0	go	0.545	Go_O	1.0
144.56500000000005	1.0	go	0.664	Go_X	1.0
147.09000000000003	0.3	stopfail	0.482	Go_X	0.0
149.61400000000003	1.0	go	0.698	Go_O	1.0
152.13800000000003	0.25	stopfail	0.411	Go_O	0.0
154.66200000000003	1.0	go	0.378	Go_X	1.0
157.18600000000004	1.0	go	0.318	Go_O	1.0
159.71000000000004	1.0	go	0.62	Go_O	1.0
162.235	1.0	go	0.47	Go_X	1.0
164.75900000000001	1.0	go	0.475	Go_O	1.0
167.28300000000002	1.0	go	0.407	Go_X	0.0
169.80700000000002	1.0	go	0.406	Go_O	0.0
172.33100000000002	1.0	go	0.432	Go_X	1.0
174.856	1.0	go	0.37	Go_O	1.0
177.38	0.2	stopfail	0.408	Go_X	0.0
179.904	1.0	go	0.298	Go_X	1.0
182.428	1.0	go	0.508	Go_X	1.0
184.952	1.0	go	0.398	Go_O	1.0
187.476	0.15	stopsuccess	0.0	Go_O	1.0
190.00099999999998	1.0	go	0.39	Go_O	1.0
192.52499999999998	1.0	go	0.443	Go_X	1.0
195.04899999999998	1.0	go	0.656	Go_X	1.0
197.57299999999998	1.0	go	0.287	Go_O	1.0
200.09699999999998	1.0	go	0.452	Go_X	1.0
202.62099999999998	1.0	go	0.429	Go_O	1.0
205.14600000000007	0.2	stopsuccess	0.0	Go_X	1.0
207.67000000000007	1.0	go	0.444	Go_O	1.0
210.19400000000007	1.0	go	0.472	Go_X	1.0
212.71800000000007	0.25	stopsuccess	0.0	Go_O	1.0
215.24200000000008	1.0	go	0.416	Go_O	1.0
217.76600000000008	1.0	go	0.523	Go_X	1.0
220.29100000000005	0.3	stopsuccess	0.0	Go_X	1.0
222.81500000000005	1.0	go	0.397	Go_X	1.0
225.33900000000006	0.35	stopfail	0.47	Go_O	0.0
227.86300000000006	1.0	go	0.616	Go_O	1.0
230.38700000000006	1.0	go	0.554	Go_X	1.0
232.91100000000006	1.0	go	0.622	Go_O	1.0
235.43600000000004	1.0	go	0.512	Go_X	1.0
237.96000000000004	1.0	go	0.396	Go_O	1.0
240.48400000000004	0.3	stopsuccess	0.0	Go_X	1.0
243.00800000000004	0.35	stopfail	0.407	Go_O	0.0
245.53200000000004	1.0	go	0.374	Go_X	1.0
248.05600000000004	1.0	go	0.631	Go_O	1.0
250.58100000000002	0.3	stopfail	0.453	Go_X	0.0
253.10500000000002	1.0	go	0.414	Go_X	1.0
255.62900000000002	1.0	go	0.37	Go_O	1.0
258.153	1.0	go	0.657	Go_X	0.0
260.677	1.0	go	0.5	Go_O	1.0
263.202	1.0	go	0.614	Go_O	1.0
265.726	1.0	go	0.461	Go_X	1.0
268.25	0.25	stopfail	0.424	Go_O	0.0
270.774	1.0	go	0.534	Go_O	1.0
273.298	1.0	go	0.423	Go_X	0.0
275.822	1.0	go	0.465	Go_O	1.0
278.347	1.0	go	0.716	Go_X	1.0
280.871	1.0	go	0.402	Go_X	1.0
283.395	0.2	stopsuccess	0.0	Go_X	1.0
285.919	1.0	go	0.501	Go_O	1.0
288.443	1.0	go	0.645	Go_X	1.0
290.967	1.0	go	0.395	Go_O	1.0
293.4920000000001	1.0	go	0.499	Go_X	1.0
296.0160000000001	0.25	stopfail	0.371	Go_O	0.0
298.5400000000001	1.0	go	0.36	Go_O	1.0
301.0640000000001	1.0	go	0.526	Go_X	1.0
303.5880000000001	0.2	stopsuccess	0.0	Go_X	1.0
306.1120000000001	1.0	go	0.351	Go_O	1.0
308.63700000000006	0.25	stopsuccess	0.0	Go_O	1.0
311.16100000000006	1.0	go	0.488	Go_X	1.0
313.68500000000006	1.0	go	0.504	Go_O	1.0
316.20900000000006	1.0	go	0.452	Go_O	1.0
318.73300000000006	1.0	go	0.749	Go_X	1.0
321.25700000000006	1.0	go	0.722	Go_O	1.0
323.78200000000004	1.0	go	0.565	Go_X	1.0
326.30600000000004	1.0	go	0.662	Go_X	1.0
328.83000000000004	0.3	stopfail	0.495	Go_X	0.0
331.35400000000004	1.0	go	0.597	Go_O	1.0
333.87800000000004	1.0	go	0.45	Go_O	1.0
336.40200000000004	1.0	go	0.598	Go_X	1.0
338.927	0.25	stopfail	0.421	Go_O	0.0
341.451	1.0	go	0.413	Go_O	1.0
343.975	1.0	go	0.59	Go_X	1.0
346.499	1.0	go	0.925	Go_O	1.0
349.023	1.0	go	0.679	Go_X	1.0
351.548	0.2	stopsuccess	0.0	Go_X	1.0
354.072	1.0	go	0.697	Go_X	1.0
356.596	1.0	go	0.511	Go_O	1.0
359.12	0.25	stopsuccess	0.0	Go_O	1.0
361.644	1.0	go	0.327	Go_X	1.0
364.168	1.0	go	0.426	Go_O	1.0
366.693	0.3	stopfail	0.542	Go_X	0.0
369.217	1.0	go	0.335	Go_X	1.0
371.741	1.0	go	0.343	Go_O	1.0
374.265	0.25	stopsuccess	0.0	Go_O	1.0
376.789	1.0	go	0.354	Go_O	1.0
379.313	1.0	go	0.452	Go_X	1.0
381.8380000000001	1.0	go	0.447	Go_X	1.0
384.3620000000001	1.0	go	0.451	Go_O	1.0
386.8860000000001	1.0	go	0.799	Go_O	1.0
389.4100000000001	1.0	go	0.498	Go_X	1.0
391.9340000000001	0.3	stopfail	0.461	Go_X	0.0
394.4580000000001	1.0	go	0.385	Go_O	1.0
396.98300000000006	0.25	stopsuccess	0.0	Go_O	1.0
399.50700000000006	1.0	go	0.486	Go_X	1.0
402.03100000000006	1.0	go	0.443	Go_X	1.0
404.55500000000006	1.0	go	0.414	Go_O	1.0
407.07900000000006	1.0	go	0.659	Go_O	1.0
409.60300000000007	1.0	go	0.552	Go_X	1.0
412.12800000000004	0.3	stopsuccess	0.0	Go_X	1.0
414.65200000000004	1.0	go	0.403	Go_O	1.0
417.17600000000004	1.0	go	0.56	Go_X	1.0
419.70000000000005	1.0	go	0.402	Go_X	1.0
422.22400000000005	0.35	stopfail	0.509	Go_O	0.0
424.749	0.3	stopfail	0.453	Go_X	0.0
427.273	0.25	stopfail	0.355	Go_O	0.0
429.797	1.0	go	0.306	Go_O	1.0
432.321	0.2	stopsuccess	0.0	Go_X	1.0
434.845	1.0	go	0.546	Go_X	1.0
437.369	1.0	go	0.533	Go_O	1.0
439.894	1.0	go	0.427	Go_O	1.0
442.418	1.0	go	0.453	Go_X	1.0
444.942	1.0	go	0.419	Go_X	1.0
447.466	1.0	go	0.551	Go_O	1.0
449.9900000000001	1.0	go	0.639	Go_O	1.0
452.514	1.0	go	0.485	Go_X	1.0
455.0390000000001	0.25	stopfail	0.43	Go_O	0.0
457.563	1.0	go	0.438	Go_X	1.0
460.0870000000001	1.0	go	0.486	Go_O	1.0
462.611	0.2	stopsuccess	0.0	Go_X	1.0
465.1350000000001	1.0	go	0.726	Go_X	1.0
467.659	1.0	go	0.7	Go_O	1.0
470.1840000000001	1.0	go	0.477	Go_O	1.0
472.70799999999997	1.0	go	0.542	Go_X	1.0
475.2320000000001	1.0	go	0.0	Go_O	0.0
477.756	0.25	stopfail	0.431	Go_O	0.0
480.2800000000001	1.0	go	0.572	Go_X	1.0
482.804	1.0	go	0.599	Go_O	1.0
485.32900000000006	1.0	go	0.45	Go_X	1.0
487.85299999999995	0.2	stopsuccess	0.0	Go_X	1.0
490.37700000000007	1.0	go	0.331	Go_X	1.0
492.90099999999995	0.25	stopfail	0.377	Go_O	0.0
495.42500000000007	1.0	go	0.498	Go_O	1.0
497.94899999999996	1.0	go	0.0	Go_O	0.0
500.47400000000005	1.0	go	0.388	Go_X	1.0
502.99799999999993	1.0	go	0.443	Go_X	1.0
505.52200000000005	1.0	go	0.331	Go_O	0.0
508.04599999999994	1.0	go	0.59	Go_X	1.0
510.57000000000005	1.0	go	0.406	Go_O	1.0
513.0950000000001	0.2	stopsuccess	0.0	Go_X	1.0
515.619	1.0	go	0.583	Go_X	1.0
518.1430000000001	1.0	go	0.0	Go_O	0.0
520.667	1.0	go	0.452	Go_O	1.0
523.1909999999999	1.0	go	0.378	Go_X	1.0
525.715	0.25	stopfail	0.453	Go_O	0.0
528.2400000000001	1.0	go	0.381	Go_O	1.0
530.764	0.2	stopfail	0.25	Go_X	0.0
533.2880000000001	1.0	go	0.354	Go_X	0.0
535.812	1.0	go	0.396	Go_O	1.0
538.3360000000001	0.15	stopsuccess	0.0	Go_O	1.0
540.86	1.0	go	0.539	Go_X	1.0
543.3850000000001	1.0	go	0.446	Go_O	1.0
545.909	1.0	go	0.478	Go_X	1.0
548.4330000000001	1.0	go	0.869	Go_X	1.0
550.957	1.0	go	0.437	Go_O	1.0
553.4810000000001	1.0	go	0.545	Go_X	1.0
556.005	1.0	go	0.331	Go_O	1.0
558.5300000000001	1.0	go	0.389	Go_O	1.0
561.054	1.0	go	0.441	Go_X	1.0
563.5780000000001	1.0	go	0.561	Go_X	1.0
566.102	0.2	stopsuccess	0.0	Go_X	1.0
568.6260000000001	1.0	go	0.406	Go_O	1.0
571.15	1.0	go	0.352	Go_O	1.0
573.6750000000001	0.25	stopfail	0.346	Go_O	0.0
576.199	1.0	go	0.435	Go_X	1.0
578.7230000000001	0.2	stopsuccess	0.0	Go_X	1.0
581.247	1.0	go	0.301	Go_X	0.0
583.7710000000001	1.0	go	0.354	Go_O	1.0
586.295	0.25	stopfail	0.386	Go_O	0.0
588.82	1.0	go	0.555	Go_X	1.0
591.3439999999999	0.2	stopsuccess	0.0	Go_X	1.0
593.868	1.0	go	0.593	Go_O	0.0
596.3919999999999	1.0	go	0.629	Go_X	1.0
598.916	1.0	go	0.472	Go_O	1.0
601.4409999999999	0.25	stopfail	0.446	Go_O	0.0
603.965	1.0	go	0.452	Go_X	1.0
606.4889999999999	1.0	go	0.538	Go_O	1.0
609.013	1.0	go	0.477	Go_X	1.0
611.5369999999999	1.0	go	0.448	Go_O	1.0
614.061	0.2	stopfail	0.425	Go_X	0.0
616.5860000000001	1.0	go	0.433	Go_O	1.0
619.11	1.0	go	0.505	Go_X	1.0
621.6340000000001	0.15	stopsuccess	0.0	Go_O	1.0
624.158	1.0	go	0.523	Go_X	1.0
626.6820000000001	1.0	go	0.734	Go_O	1.0
629.206	1.0	go	0.0	Go_O	0.0
631.7310000000001	1.0	go	0.392	Go_X	1.0
634.255	0.2	stopsuccess	0.0	Go_X	1.0
636.7790000000001	1.0	go	0.396	Go_O	1.0
639.303	0.25	stopsuccess	0.0	Go_O	1.0
641.8270000000001	1.0	go	0.622	Go_X	0.0
644.351	1.0	go	0.595	Go_X	0.0
646.8760000000001	0.3	stopsuccess	0.0	Go_X	1.0
649.4	1.0	go	0.717	Go_O	1.0
651.9240000000001	1.0	go	0.503	Go_O	1.0
654.448	1.0	go	0.84	Go_X	0.0
656.9720000000001	1.0	go	0.615	Go_O	1.0
659.496	0.35	stopsuccess	0.0	Go_O	1.0
662.0210000000001	1.0	go	0.441	Go_X	1.0
664.545	0.4	stopsuccess	0.0	Go_X	1.0
667.0860000000001	1.0	go	0.607	Go_X	0.0
669.61	1.0	go	0.31	Go_O	1.0
672.1340000000001	1.0	go	0.582	Go_X	1.0
674.658	1.0	go	0.45	Go_O	1.0
677.1820000000001	1.0	go	0.497	Go_X	1.0
679.707	1.0	go	0.534	Go_O	1.0
682.2310000000001	0.45	stopfail	0.451	Go_O	0.0
684.755	1.0	go	0.44	Go_X	1.0
687.2790000000001	1.0	go	0.519	Go_O	1.0
689.803	0.4	stopfail	0.46	Go_X	0.0
692.3270000000001	1.0	go	0.927	Go_X	1.0
694.852	1.0	go	0.468	Go_O	1.0
697.3760000000001	0.35	stopsuccess	0.0	Go_O	1.0
699.9	1.0	go	0.0	Go_O	0.0
702.4240000000001	1.0	go	0.55	Go_X	1.0
704.948	1.0	go	0.595	Go_O	1.0
707.4720000000001	1.0	go	0.512	Go_X	1.0
709.997	0.4	stopfail	0.445	Go_X	0.0
712.5210000000001	1.0	go	0.0	Go_O	0.0
715.045	0.35	stopfail	0.487	Go_O	0.0
717.5690000000001	1.0	go	0.63	Go_X	1.0
720.093	1.0	go	0.542	Go_X	1.0
722.6170000000001	1.0	go	0.568	Go_O	1.0
725.1419999999999	1.0	go	0.406	Go_X	1.0
727.666	1.0	go	0.644	Go_O	1.0
730.1899999999999	0.3	stopsuccess	0.0	Go_X	1.0
732.714	1.0	go	0.528	Go_O	1.0
735.2379999999999	1.0	go	0.426	Go_X	1.0
737.763	0.35	stopfail	0.505	Go_O	0.0
740.2869999999999	0.3	stopfail	0.533	Go_X	0.0
742.811	1.0	go	0.392	Go_O	1.0
745.3349999999999	1.0	go	0.488	Go_X	1.0
747.859	1.0	go	0.57	Go_X	1.0
750.3829999999999	1.0	go	0.51	Go_O	1.0
752.908	0.25	stopsuccess	0.0	Go_O	1.0
755.4320000000001	1.0	go	0.879	Go_X	1.0
