onset	duration	trial_type	response_time	stim_file	accuracy
72.37	1.0	go	0.792	Go_O	0.0
74.895	1.0	stopsuccess	0.0	Go_O	1.0
77.419	1.0	go	0.36	Go_X	0.0
79.943	1.0	stopsuccess	0.0	Go_X	1.0
82.467	1.0	go	0.451	Go_O	0.0
84.991	1.0	go	0.55	Go_X	0.0
87.516	1.0	go	0.566	Go_O	0.0
90.04	1.0	stopfail	0.271	Go_O	0.0
92.564	1.0	go	0.407	Go_X	0.0
95.088	1.0	go	0.287	Go_X	0.0
97.612	1.0	stopfail	0.352	Go_X	0.0
100.137	1.0	go	0.363	Go_O	0.0
102.661	1.0	stopfail	0.376	Go_O	0.0
105.185	1.0	go	0.331	Go_O	0.0
107.709	1.0	stopsuccess	0.0	Go_X	1.0
110.234	1.0	go	0.498	Go_X	0.0
112.758	1.0	stopfail	0.603	Go_O	0.0
115.282	1.0	go	0.651	Go_X	0.0
117.806	1.0	go	0.741	Go_O	0.0
120.33	1.0	go	0.486	Go_X	0.0
122.855	1.0	go	0.278	Go_O	0.0
125.379	1.0	go	0.604	Go_O	0.0
127.903	1.0	go	0.648	Go_X	0.0
130.427	1.0	go	0.62	Go_X	0.0
132.951	1.0	go	0.586	Go_O	0.0
135.476	1.0	go	0.545	Go_O	0.0
138.0	1.0	go	0.507	Go_X	0.0
140.524	1.0	go	0.6	Go_X	0.0
143.048	1.0	stopsuccess	0.0	Go_X	1.0
145.573	1.0	go	0.446	Go_O	0.0
148.097	1.0	go	0.495	Go_O	0.0
150.621	1.0	go	0.629	Go_X	0.0
153.145	1.0	go	0.614	Go_X	0.0
155.669	1.0	go	0.569	Go_O	0.0
158.194	1.0	go	0.461	Go_O	0.0
160.718	1.0	go	0.498	Go_X	0.0
163.242	1.0	go	0.438	Go_X	0.0
165.766	1.0	go	0.728	Go_O	0.0
168.29	1.0	stopsuccess	0.0	Go_O	1.0
170.815	1.0	go	0.489	Go_X	0.0
173.339	1.0	go	0.559	Go_O	0.0
175.863	1.0	stopfail	0.435	Go_X	0.0
178.387	1.0	go	0.383	Go_O	0.0
180.912	1.0	go	0.34	Go_X	0.0
183.436	1.0	stopfail	0.905	Go_O	0.0
185.96	1.0	go	0.695	Go_O	0.0
188.484	1.0	stopfail	0.857	Go_X	0.0
191.008	1.0	go	0.819	Go_X	0.0
193.533	1.0	go	0.59	Go_O	0.0
196.057	1.0	go	0.498	Go_X	0.0
198.581	1.0	go	0.464	Go_O	0.0
201.105	1.0	go	0.495	Go_X	0.0
203.629	1.0	go	0.681	Go_X	0.0
206.154	1.0	go	0.498	Go_O	0.0
208.678	1.0	stopfail	0.661	Go_O	0.0
211.202	1.0	stopfail	0.637	Go_X	0.0
213.726	1.0	go	0.593	Go_O	0.0
216.251	1.0	go	0.588	Go_X	0.0
218.775	1.0	go	0.465	Go_O	0.0
221.299	1.0	go	0.54	Go_X	0.0
223.823	1.0	go	0.464	Go_O	0.0
226.347	1.0	go	0.402	Go_X	0.0
228.872	1.0	go	0.467	Go_O	0.0
231.396	1.0	go	0.443	Go_X	0.0
233.92	1.0	go	0.419	Go_X	0.0
236.444	1.0	go	0.395	Go_O	0.0
238.968	1.0	go	0.37	Go_O	0.0
241.493	1.0	stopfail	0.345	Go_O	0.0
244.017	1.0	go	0.321	Go_X	0.0
246.541	1.0	stopfail	0.297	Go_X	0.0
249.082	1.0	go	0.256	Go_X	0.0
251.606	1.0	go	0.232	Go_O	0.0
254.13	1.0	stopfail	0.208	Go_O	0.0
256.671	1.0	go	0.167	Go_O	0.0
259.196	1.0	go	0.142	Go_X	0.0
261.72	1.0	go	0.118	Go_X	0.0
264.244	1.0	go	0.094	Go_O	0.0
266.768	1.0	stopfail	0.07	Go_X	0.0
269.309	1.0	stopfail	0.029	Go_O	0.0
271.85	1.0	go	0.68	Go_X	0.0
274.374	1.0	go	0.44	Go_O	0.0
276.899	1.0	go	0.434	Go_X	0.0
279.423	1.0	go	0.479	Go_O	0.0
281.947	1.0	go	0.347	Go_X	0.0
284.471	1.0	stopsuccess	0.0	Go_X	1.0
287.012	1.0	stopsuccess	0.0	Go_O	1.0
289.536	1.0	go	0.498	Go_O	0.0
292.061	1.0	go	0.636	Go_O	0.0
294.585	1.0	go	0.405	Go_X	0.0
297.109	1.0	go	0.49	Go_X	0.0
299.633	1.0	go	0.384	Go_O	0.0
302.157	1.0	stopsuccess	0.0	Go_X	1.0
304.682	1.0	stopsuccess	0.0	Go_O	1.0
307.206	1.0	go	0.418	Go_X	0.0
309.73	1.0	go	0.377	Go_O	0.0
312.254	1.0	go	0.724	Go_X	0.0
314.778	1.0	go	0.427	Go_O	0.0
317.303	1.0	go	0.524	Go_O	0.0
319.827	1.0	go	0.536	Go_X	0.0
322.351	1.0	stopsuccess	0.0	Go_X	1.0
324.875	1.0	go	0.752	Go_O	0.0
327.4	1.0	go	0.598	Go_X	0.0
329.924	1.0	go	0.67	Go_O	1.0
332.448	1.0	go	0.412	Go_X	0.0
334.972	1.0	go	0.609	Go_O	0.0
337.496	1.0	go	0.513	Go_X	0.0
340.021	1.0	go	0.563	Go_O	0.0
342.545	1.0	go	0.503	Go_X	0.0
345.069	1.0	stopfail	0.423	Go_O	0.0
347.593	1.0	stopsuccess	0.0	Go_X	1.0
350.117	1.0	stopsuccess	0.0	Go_O	1.0
352.642	1.0	go	0.618	Go_X	0.0
355.166	1.0	stopsuccess	0.0	Go_X	1.0
357.69	1.0	go	0.461	Go_O	0.0
360.214	1.0	go	0.451	Go_O	0.0
362.739	1.0	stopfail	0.488	Go_O	0.0
365.263	1.0	go	0.0	Go_X	0.0
367.787	1.0	go	0.529	Go_X	0.0
370.311	1.0	go	0.57	Go_O	0.0
372.835	1.0	stopsuccess	0.0	Go_X	1.0
375.36	1.0	go	0.575	Go_O	0.0
377.884	1.0	go	0.591	Go_X	0.0
380.408	1.0	go	0.681	Go_X	0.0
382.932	1.0	stopfail	0.363	Go_O	0.0
385.456	1.0	go	0.532	Go_O	0.0
387.981	1.0	go	0.445	Go_O	0.0
390.505	1.0	stopsuccess	0.0	Go_X	1.0
393.029	1.0	go	0.622	Go_X	0.0
395.553	1.0	go	0.555	Go_X	0.0
398.078	1.0	go	0.499	Go_O	0.0
400.602	1.0	go	0.54	Go_X	0.0
403.126	1.0	go	0.508	Go_O	0.0
405.65	1.0	go	0.548	Go_O	0.0
408.174	1.0	go	0.649	Go_X	0.0
410.699	1.0	go	0.874	Go_X	0.0
413.223	1.0	go	0.678	Go_O	0.0
415.747	1.0	go	0.568	Go_O	0.0
418.271	1.0	stopsuccess	0.0	Go_O	1.0
420.795	1.0	stopfail	0.469	Go_X	0.0
423.32	1.0	go	0.5	Go_X	0.0
425.844	1.0	go	0.701	Go_X	0.0
428.368	1.0	go	0.834	Go_O	0.0
430.892	1.0	go	0.792	Go_X	0.0
433.416	1.0	stopfail	0.542	Go_O	0.0
435.941	1.0	go	0.673	Go_O	0.0
438.465	1.0	go	0.497	Go_O	0.0
440.989	1.0	go	0.507	Go_X	0.0
443.513	1.0	go	0.492	Go_X	0.0
446.038	1.0	go	0.419	Go_O	0.0
448.562	1.0	go	0.559	Go_X	0.0
451.086	1.0	stopfail	0.464	Go_X	0.0
453.61	1.0	go	0.519	Go_O	0.0
456.134	1.0	stopfail	0.698	Go_O	0.0
458.659	1.0	go	0.474	Go_O	0.0
461.183	1.0	go	0.449	Go_X	0.0
463.707	1.0	stopfail	0.625	Go_X	0.0
466.231	1.0	go	0.557	Go_X	0.0
468.755	1.0	go	0.506	Go_O	0.0
471.28	1.0	go	0.533	Go_O	0.0
473.804	1.0	stopfail	0.527	Go_O	0.0
476.328	1.0	stopfail	0.503	Go_X	0.0
478.852	1.0	stopfail	0.479	Go_O	0.0
481.377	1.0	go	0.454	Go_X	0.0
483.901	1.0	go	0.43	Go_X	0.0
486.425	1.0	stopfail	0.406	Go_X	0.0
488.966	1.0	go	0.365	Go_O	0.0
491.49	1.0	go	0.341	Go_X	0.0
494.014	1.0	go	0.317	Go_O	0.0
496.539	1.0	go	0.291	Go_O	0.0
499.063	1.0	stopfail	0.267	Go_O	0.0
501.604	1.0	go	0.226	Go_X	0.0
504.128	1.0	go	0.202	Go_X	0.0
506.652	1.0	go	0.178	Go_O	0.0
509.176	1.0	go	0.154	Go_X	0.0
511.701	1.0	stopfail	0.129	Go_X	0.0
514.241	1.0	go	0.089	Go_O	0.0
516.766	1.0	go	0.064	Go_O	0.0
519.29	1.0	go	0.04	Go_X	0.0
521.814	1.0	go	0.016	Go_X	0.0
524.338	1.0	go	0.38	Go_O	0.0
526.863	1.0	go	0.582	Go_X	0.0
529.387	1.0	go	0.668	Go_O	0.0
531.911	1.0	stopsuccess	0.0	Go_O	1.0
534.452	1.0	stopsuccess	0.0	Go_X	1.0
536.976	1.0	go	0.49	Go_O	0.0
539.5	1.0	go	0.745	Go_X	0.0
542.025	1.0	go	0.889	Go_O	0.0
544.549	1.0	stopsuccess	0.0	Go_O	1.0
547.073	1.0	stopsuccess	0.0	Go_X	1.0
549.597	1.0	go	0.596	Go_X	0.0
552.121	1.0	stopfail	0.462	Go_O	0.0
554.646	1.0	go	0.601	Go_O	0.0
557.17	1.0	go	0.868	Go_X	0.0
559.694	1.0	go	0.843	Go_O	0.0
562.218	1.0	stopsuccess	0.0	Go_X	1.0
564.742	1.0	go	0.583	Go_X	0.0
567.267	1.0	go	0.592	Go_X	0.0
569.791	1.0	go	0.781	Go_O	0.0
572.315	1.0	go	0.523	Go_X	0.0
574.839	1.0	go	0.0	Go_O	0.0
577.364	1.0	go	0.543	Go_O	0.0
579.888	1.0	go	0.391	Go_X	0.0
582.412	1.0	go	0.391	Go_O	0.0
584.936	1.0	stopsuccess	0.0	Go_O	1.0
587.46	1.0	go	0.353	Go_X	0.0
589.985	1.0	go	0.542	Go_X	0.0
592.509	1.0	go	0.51	Go_O	0.0
595.033	1.0	stopsuccess	0.0	Go_X	1.0
597.557	1.0	stopsuccess	0.0	Go_O	1.0
600.081	1.0	go	0.592	Go_O	0.0
602.606	1.0	go	0.422	Go_X	0.0
605.13	1.0	stopfail	0.707	Go_X	0.0
607.654	1.0	go	0.0	Go_O	0.0
610.178	1.0	go	0.531	Go_X	0.0
612.703	1.0	go	0.698	Go_O	0.0
615.227	1.0	go	0.791	Go_X	0.0
617.751	1.0	stopsuccess	0.0	Go_O	1.0
620.275	1.0	go	0.76	Go_X	0.0
622.799	1.0	stopfail	0.48	Go_X	0.0
625.324	1.0	go	0.561	Go_O	0.0
627.848	1.0	go	0.0	Go_O	0.0
630.372	1.0	go	0.419	Go_X	0.0
632.896	1.0	go	0.597	Go_X	0.0
635.42	1.0	go	0.336	Go_O	0.0
637.945	1.0	stopsuccess	0.0	Go_O	1.0
640.469	1.0	go	0.552	Go_X	0.0
642.993	1.0	go	0.575	Go_O	0.0
645.517	1.0	go	0.614	Go_X	0.0
648.042	1.0	go	0.54	Go_O	0.0
650.566	1.0	stopsuccess	0.0	Go_X	1.0
653.09	1.0	go	0.476	Go_X	0.0
655.614	1.0	go	0.557	Go_O	0.0
658.138	1.0	go	0.596	Go_X	0.0
660.663	1.0	stopfail	0.534	Go_O	0.0
663.187	1.0	go	0.648	Go_O	0.0
665.711	1.0	go	0.687	Go_O	0.0
668.235	1.0	go	0.217	Go_X	0.0
670.759	1.0	go	0.226	Go_O	0.0
673.284	1.0	stopfail	0.23	Go_X	0.0
675.808	1.0	go	0.705	Go_X	0.0
678.332	1.0	stopfail	0.993	Go_O	0.0
680.856	1.0	go	0.446	Go_X	0.0
683.381	1.0	go	0.604	Go_O	0.0
685.905	1.0	go	0.462	Go_X	0.0
688.429	1.0	stopfail	0.896	Go_X	0.0
690.953	1.0	stopfail	0.872	Go_O	0.0
693.477	1.0	go	0.686	Go_O	0.0
696.002	1.0	go	0.725	Go_O	1.0
698.526	1.0	go	0.54	Go_X	0.0
701.05	1.0	go	0.592	Go_O	0.0
703.574	1.0	stopfail	0.751	Go_X	0.0
706.098	1.0	go	0.601	Go_X	0.0
708.623	1.0	stopfail	0.702	Go_O	0.0
711.147	1.0	go	0.677	Go_O	0.0
713.671	1.0	stopfail	0.653	Go_X	0.0
716.195	1.0	go	0.475	Go_X	0.0
718.72	1.0	stopfail	0.604	Go_O	0.0
721.26	1.0	stopfail	0.564	Go_X	0.0
723.801	1.0	go	0.523	Go_X	0.0
726.326	1.0	go	0.495	Go_O	0.0
728.85	1.0	go	0.456	Go_O	0.0
731.374	1.0	go	0.45	Go_X	0.0
733.898	1.0	go	0.426	Go_X	0.0
736.422	1.0	go	0.402	Go_O	0.0
738.947	1.0	stopfail	0.377	Go_O	0.0
741.488	1.0	go	0.336	Go_X	0.0
744.012	1.0	go	0.312	Go_O	0.0
746.536	1.0	go	0.288	Go_O	0.0
749.06	1.0	go	0.263	Go_X	0.0
751.584	1.0	go	0.239	Go_X	0.0
754.109	1.0	go	0.213	Go_O	0.0
756.633	1.0	go	0.189	Go_X	0.0
759.157	1.0	go	0.165	Go_O	0.0
761.681	1.0	stopfail	0.141	Go_X	0.0
764.222	1.0	go	0.1	Go_X	0.0
766.746	1.0	go	0.076	Go_O	0.0
769.271	1.0	stopfail	0.051	Go_O	0.0
771.812	1.0	go	0.01	Go_O	0.0
774.336	1.0	stopsuccess	0.0	Go_X	1.0
776.877	1.0	go	0.65	Go_X	0.0
779.401	1.0	go	0.535	Go_X	0.0
781.925	1.0	go	0.644	Go_O	0.0
784.449	1.0	go	0.717	Go_X	0.0
786.974	1.0	go	0.576	Go_O	0.0
789.498	1.0	go	0.484	Go_X	0.0
792.022	1.0	go	0.382	Go_O	0.0
794.546	1.0	stopsuccess	0.0	Go_O	1.0
797.07	1.0	go	0.546	Go_X	0.0
799.595	1.0	go	0.553	Go_O	0.0
802.119	1.0	go	0.555	Go_X	0.0
804.643	1.0	go	0.436	Go_O	0.0
807.167	1.0	go	0.541	Go_X	0.0
809.692	1.0	go	0.522	Go_O	0.0
812.216	1.0	go	0.538	Go_X	0.0
814.74	1.0	stopsuccess	0.0	Go_X	1.0
817.264	1.0	go	0.553	Go_O	0.0
819.788	1.0	go	0.674	Go_X	0.0
822.313	1.0	stopsuccess	0.0	Go_O	1.0
824.837	1.0	go	0.649	Go_O	0.0
827.361	1.0	go	0.905	Go_X	0.0
