onset	duration	trial_type	response_time	stim_file	accuracy
48.868	1.0	go	0.598	Go_O	1.0
51.459	1.0	go	0.394	Go_X	1.0
53.983	1.0	go	0.43	Go_X	1.0
56.507	1.0	go	0.517	Go_O	1.0
59.031	1.0	go	0.493	Go_O	1.0
61.555	1.0	go	0.401	Go_X	1.0
64.08	0.25	stop	0.407	Go_O	0.0
66.604	1.0	go	0.51	Go_O	1.0
69.128	0.2	stop	0.27	Go_X	0.0
71.652	1.0	go	0.436	Go_X	1.0
74.176	1.0	go	0.343	Go_O	1.0
76.701	1.0	go	0.306	Go_X	1.0
79.225	0.15	stop	0.0	Go_O	1.0
81.749	1.0	go	0.485	Go_O	1.0
84.273	1.0	go	0.275	Go_X	1.0
86.797	0.2	stop	0.331	Go_X	0.0
89.321	0.15	stop	0.248	Go_O	0.0
91.846	1.0	go	0.519	Go_O	1.0
94.37	1.0	go	0.493	Go_X	1.0
96.894	0.1	stop	0.0	Go_X	1.0
99.418	1.0	go	0.514	Go_X	1.0
101.942	1.0	go	0.365	Go_O	1.0
104.467	0.15	stop	0.0	Go_O	1.0
106.991	1.0	go	0.616	Go_X	1.0
109.515	1.0	go	0.351	Go_O	1.0
112.039	0.2	stop	0.0	Go_X	1.0
114.563	1.0	go	0.387	Go_X	1.0
117.087	1.0	go	0.434	Go_O	1.0
119.612	0.25	stop	0.0	Go_O	1.0
122.136	1.0	go	0.457	Go_O	1.0
124.66	1.0	go	0.411	Go_X	1.0
127.184	1.0	go	0.378	Go_O	1.0
129.708	1.0	go	0.387	Go_X	1.0
132.233	1.0	go	0.502	Go_X	1.0
134.757	0.3	stop	0.411	Go_X	0.0
137.281	1.0	go	0.31	Go_O	1.0
139.805	1.0	go	0.792	Go_X	1.0
142.329	1.0	go	0.333	Go_O	1.0
144.854	1.0	go	0.362	Go_X	1.0
147.378	1.0	go	0.562	Go_O	1.0
149.902	0.25	stop	0.297	Go_O	0.0
152.426	1.0	go	0.53	Go_O	1.0
154.95	1.0	go	0.504	Go_X	1.0
157.474	1.0	go	0.418	Go_X	1.0
159.999	1.0	go	0.391	Go_O	1.0
162.523	1.0	go	0.325	Go_X	1.0
165.047	1.0	go	0.289	Go_O	1.0
167.571	0.2	stop	0.0	Go_X	1.0
170.095	1.0	go	0.338	Go_X	1.0
172.62	1.0	go	0.365	Go_O	1.0
175.144	0.25	stop	0.0	Go_O	1.0
177.668	1.0	go	0.493	Go_O	1.0
180.192	0.3	stop	0.0	Go_X	1.0
182.716	0.35	stop	0.477	Go_O	0.0
185.24	1.0	go	0.366	Go_X	1.0
187.765	1.0	go	0.44	Go_X	1.0
190.289	1.0	go	0.424	Go_O	1.0
192.813	1.0	go	0.352	Go_O	1.0
195.337	0.3	stop	0.424	Go_X	0.0
197.861	1.0	go	0.684	Go_X	1.0
200.386	0.25	stop	0.309	Go_O	0.0
202.91	1.0	go	0.439	Go_X	1.0
205.434	1.0	go	0.539	Go_O	1.0
207.958	1.0	go	0.303	Go_O	1.0
210.482	1.0	go	0.683	Go_X	1.0
213.006	1.0	go	0.332	Go_X	1.0
215.531	1.0	go	0.334	Go_O	1.0
218.055	1.0	go	0.516	Go_X	1.0
220.579	1.0	go	0.345	Go_O	1.0
223.103	1.0	go	0.408	Go_X	1.0
225.627	0.2	stop	0.0	Go_X	1.0
228.152	1.0	go	0.335	Go_O	1.0
230.676	1.0	go	0.49	Go_X	1.0
233.2	1.0	go	0.527	Go_O	1.0
235.724	0.25	stop	0.0	Go_O	1.0
238.248	1.0	go	0.436	Go_O	1.0
240.772	1.0	go	0.556	Go_X	1.0
243.297	1.0	go	0.434	Go_X	1.0
245.821	1.0	go	0.478	Go_O	1.0
248.345	1.0	go	0.414	Go_O	1.0
250.869	1.0	go	0.709	Go_X	1.0
253.393	0.3	stop	0.406	Go_X	0.0
255.918	1.0	go	0.318	Go_O	1.0
258.442	1.0	go	0.447	Go_X	1.0
260.966	0.25	stop	0.293	Go_O	0.0
263.49	1.0	go	0.345	Go_X	1.0
266.014	1.0	go	0.293	Go_O	1.0
268.538	0.2	stop	0.0	Go_X	1.0
271.063	1.0	go	0.827	Go_X	1.0
273.587	0.25	stop	0.251	Go_O	0.0
276.111	1.0	go	0.309	Go_O	0.0
278.635	1.0	go	0.467	Go_X	0.0
281.159	1.0	go	0.363	Go_O	1.0
283.684	1.0	go	0.435	Go_X	1.0
286.208	1.0	go	0.394	Go_O	1.0
288.732	0.2	stop	0.0	Go_X	1.0
291.256	0.25	stop	0.0	Go_O	1.0
293.78	1.0	go	0.318	Go_X	1.0
296.304	1.0	go	0.277	Go_O	1.0
298.829	0.3	stop	0.35	Go_X	0.0
301.353	1.0	go	0.379	Go_O	1.0
303.877	1.0	go	0.398	Go_X	1.0
306.401	1.0	go	0.454	Go_X	1.0
308.925	1.0	go	0.451	Go_O	1.0
311.45	1.0	go	0.375	Go_X	1.0
313.974	1.0	go	0.439	Go_O	1.0
316.498	0.25	stop	0.0	Go_O	1.0
319.022	1.0	go	0.34	Go_X	1.0
321.546	1.0	go	0.451	Go_O	1.0
324.07	1.0	go	0.0	Go_X	0.0
326.595	1.0	go	0.315	Go_O	1.0
329.119	1.0	go	0.379	Go_O	1.0
331.643	0.3	stop	0.31	Go_X	0.0
334.167	1.0	go	0.434	Go_X	1.0
336.691	1.0	go	0.425	Go_X	1.0
339.216	1.0	go	0.331	Go_O	1.0
341.74	1.0	go	0.571	Go_X	1.0
344.264	0.25	stop	0.313	Go_O	0.0
346.788	1.0	go	0.474	Go_O	1.0
349.312	1.0	go	0.408	Go_X	1.0
351.836	0.2	stop	0.0	Go_X	1.0
354.361	1.0	go	0.454	Go_O	1.0
356.885	0.25	stop	0.479	Go_O	0.0
359.409	1.0	go	0.621	Go_O	1.0
361.933	1.0	go	0.536	Go_X	1.0
364.457	1.0	go	0.596	Go_O	1.0
366.982	1.0	go	0.335	Go_X	1.0
369.506	1.0	go	0.49	Go_X	1.0
372.03	1.0	go	0.345	Go_O	1.0
374.554	1.0	go	0.507	Go_X	1.0
377.078	0.2	stop	0.0	Go_X	1.0
379.602	1.0	go	0.496	Go_O	1.0
382.127	1.0	go	0.414	Go_O	1.0
384.651	1.0	go	0.672	Go_X	1.0
387.175	0.25	stop	0.278	Go_O	0.0
389.699	1.0	go	0.309	Go_X	1.0
392.223	1.0	go	0.363	Go_O	1.0
394.748	1.0	go	0.43	Go_O	1.0
397.272	1.0	go	0.395	Go_X	1.0
399.796	0.2	stop	0.0	Go_X	1.0
402.32	1.0	go	0.341	Go_O	1.0
404.844	1.0	go	0.545	Go_X	1.0
407.368	0.25	stop	0.379	Go_O	0.0
409.893	1.0	go	0.42	Go_O	1.0
412.417	1.0	go	0.415	Go_X	1.0
414.941	0.2	stop	0.441	Go_X	0.0
417.465	1.0	go	0.459	Go_X	1.0
419.989	1.0	go	0.381	Go_O	1.0
422.514	0.15	stop	0.0	Go_O	1.0
425.038	1.0	go	0.584	Go_O	1.0
427.562	1.0	go	0.55	Go_X	1.0
430.086	1.0	go	0.659	Go_O	1.0
432.61	1.0	go	0.75	Go_X	1.0
435.134	1.0	go	0.466	Go_X	1.0
437.659	1.0	go	0.486	Go_O	1.0
440.183	0.2	stop	0.0	Go_X	1.0
442.707	1.0	go	0.429	Go_O	1.0
445.231	0.25	stop	0.436	Go_O	0.0
447.755	1.0	go	0.376	Go_X	1.0
450.28	1.0	go	0.338	Go_O	1.0
452.804	1.0	go	0.676	Go_X	0.0
455.328	1.0	go	0.327	Go_O	1.0
457.852	1.0	go	0.317	Go_X	1.0
460.376	0.2	stop	0.433	Go_X	0.0
462.901	1.0	go	0.455	Go_O	1.0
465.425	1.0	go	0.29	Go_X	1.0
467.949	1.0	go	0.234	Go_O	1.0
470.473	0.15	stop	0.157	Go_O	0.0
472.997	0.1	stop	0.297	Go_X	0.0
475.521	0.05	stop	0.0	Go_O	1.0
478.046	1.0	go	0.529	Go_X	1.0
480.57	0.1	stop	0.271	Go_X	0.0
483.094	1.0	go	0.412	Go_X	0.0
485.618	1.0	go	0.472	Go_O	1.0
488.142	1.0	go	0.34	Go_X	1.0
490.667	1.0	go	0.502	Go_O	1.0
493.191	1.0	go	0.499	Go_X	1.0
495.715	1.0	go	0.246	Go_O	1.0
498.239	1.0	go	0.236	Go_O	0.0
500.763	1.0	go	0.584	Go_X	1.0
503.287	0.05	stop	0.0	Go_O	1.0
505.812	1.0	go	0.434	Go_X	1.0
508.336	1.0	go	0.431	Go_O	1.0
510.86	0.1	stop	0.0	Go_X	1.0
513.384	1.0	go	0.482	Go_O	1.0
515.908	1.0	go	0.391	Go_X	1.0
518.433	1.0	go	0.42	Go_X	1.0
520.957	1.0	go	0.344	Go_O	1.0
523.481	1.0	go	0.546	Go_X	1.0
526.005	0.15	stop	0.307	Go_O	0.0
528.529	1.0	go	0.391	Go_O	1.0
531.053	1.0	go	0.389	Go_O	1.0
533.578	1.0	go	0.409	Go_X	1.0
536.102	0.1	stop	0.0	Go_X	1.0
538.626	1.0	go	0.84	Go_X	1.0
541.15	0.15	stop	0.0	Go_O	1.0
543.674	1.0	go	0.533	Go_O	1.0
546.199	1.0	go	0.86	Go_O	1.0
548.723	1.0	go	0.0	Go_X	0.0
551.247	1.0	go	0.273	Go_O	1.0
553.771	1.0	go	0.255	Go_X	1.0
556.295	1.0	go	0.146	Go_O	1.0
558.819	1.0	go	0.256	Go_X	1.0
561.344	0.2	stop	0.502	Go_X	0.0
563.868	1.0	go	0.273	Go_O	1.0
566.392	1.0	go	0.377	Go_X	1.0
568.916	1.0	go	0.4	Go_X	1.0
571.44	1.0	go	0.293	Go_O	1.0
573.965	0.15	stop	0.0	Go_O	1.0
576.489	1.0	go	0.425	Go_O	1.0
579.013	0.2	stop	0.257	Go_X	0.0
581.537	1.0	go	0.462	Go_X	1.0
584.061	1.0	go	0.286	Go_X	0.0
586.585	0.15	stop	0.0	Go_O	1.0
589.11	1.0	go	0.451	Go_O	1.0
591.634	1.0	go	0.428	Go_O	1.0
594.158	1.0	go	0.364	Go_X	1.0
596.682	1.0	go	0.466	Go_X	1.0
599.206	1.0	go	0.379	Go_O	0.0
601.731	1.0	go	0.381	Go_O	1.0
604.255	1.0	go	0.614	Go_X	1.0
606.779	1.0	go	0.495	Go_X	1.0
609.303	1.0	go	0.33	Go_O	1.0
611.827	1.0	go	0.432	Go_O	1.0
614.351	0.2	stop	0.0	Go_X	1.0
616.876	1.0	go	0.455	Go_X	1.0
619.4	1.0	go	0.469	Go_O	1.0
621.924	0.25	stop	0.0	Go_O	1.0
624.448	1.0	go	0.658	Go_X	1.0
626.972	0.3	stop	0.412	Go_X	0.0
629.497	1.0	go	0.319	Go_O	1.0
632.021	1.0	go	0.415	Go_X	1.0
634.545	0.25	stop	0.0	Go_O	1.0
637.069	1.0	go	0.413	Go_O	1.0
639.593	0.3	stop	0.429	Go_X	0.0
642.117	1.0	go	0.243	Go_X	1.0
644.642	1.0	go	0.27	Go_O	1.0
647.166	1.0	go	0.436	Go_X	1.0
649.69	0.25	stop	0.308	Go_O	0.0
652.214	1.0	go	0.25	Go_X	1.0
654.738	1.0	go	0.225	Go_O	1.0
657.263	1.0	go	0.52	Go_O	1.0
659.787	1.0	go	0.491	Go_X	1.0
662.311	0.2	stop	0.0	Go_X	1.0
664.835	1.0	go	0.254	Go_O	1.0
667.359	1.0	go	0.458	Go_X	1.0
669.883	0.25	stop	0.0	Go_O	1.0
672.408	1.0	go	0.356	Go_O	1.0
674.932	1.0	go	0.38	Go_X	1.0
677.456	1.0	go	0.437	Go_X	1.0
679.98	1.0	go	0.359	Go_O	1.0
682.504	0.3	stop	0.0	Go_X	1.0
685.029	1.0	go	0.389	Go_O	1.0
687.553	0.35	stop	0.413	Go_O	0.0
690.077	1.0	go	0.55	Go_X	1.0
692.601	1.0	go	0.551	Go_O	1.0
695.125	0.3	stop	0.523	Go_X	0.0
697.649	1.0	go	0.514	Go_X	1.0
700.174	1.0	go	0.516	Go_X	1.0
702.698	1.0	go	0.365	Go_O	1.0
705.222	1.0	go	0.491	Go_O	1.0
707.746	0.25	stop	0.0	Go_O	1.0
710.27	1.0	go	0.43	Go_X	1.0
712.795	0.3	stop	0.426	Go_X	0.0
715.319	1.0	go	0.583	Go_X	1.0
717.843	1.0	go	0.611	Go_O	1.0
720.367	1.0	go	0.418	Go_X	1.0
722.891	1.0	go	0.368	Go_O	1.0
725.415	1.0	go	0.402	Go_X	1.0
727.94	1.0	go	0.381	Go_O	1.0
730.464	0.25	stop	0.0	Go_O	1.0
732.988	1.0	go	0.505	Go_X	1.0
735.512	1.0	go	0.493	Go_O	1.0
738.036	0.3	stop	0.0	Go_X	1.0
740.561	1.0	go	0.391	Go_O	1.0
743.085	1.0	go	0.434	Go_X	1.0
745.609	0.35	stop	0.309	Go_O	0.0
748.133	1.0	go	0.255	Go_X	1.0
750.657	1.0	go	0.339	Go_O	1.0
753.182	1.0	go	0.595	Go_X	1.0
755.706	1.0	go	0.29	Go_O	1.0
758.23	0.3	stop	0.373	Go_X	0.0
760.754	1.0	go	0.461	Go_O	1.0
763.278	0.25	stop	0.0	Go_O	1.0
765.802	1.0	go	0.323	Go_X	1.0
768.327	1.0	go	0.485	Go_O	1.0
770.851	1.0	go	0.753	Go_X	1.0
773.375	1.0	go	0.301	Go_X	0.0
775.899	1.0	go	0.216	Go_O	1.0
778.423	0.3	stop	0.0	Go_X	1.0
780.948	1.0	go	0.431	Go_O	1.0
783.472	1.0	go	0.247	Go_X	1.0
785.996	0.35	stop	0.402	Go_O	0.0
788.52	0.3	stop	0.227	Go_X	0.0
791.044	1.0	go	0.334	Go_O	1.0
793.568	1.0	go	0.496	Go_X	1.0
796.093	1.0	go	0.375	Go_O	1.0
798.617	1.0	go	0.306	Go_X	1.0
801.141	0.25	stop	0.283	Go_O	0.0
803.665	1.0	go	0.572	Go_X	1.0
