onset	duration	trial_type	response_time	stim_file	accuracy
452.972	1.0	go	0.0	Go_O	0.0
455.546	1.0	go	0.356	Go_X	1.0
458.071	1.0	go	0.481	Go_X	1.0
460.595	1.0	go	0.492	Go_O	1.0
463.119	1.0	go	0.483	Go_X	1.0
465.643	1.0	go	0.637	Go_O	1.0
468.168	0.25	stopsuccess	0.0	Go_O	1.0
470.725	1.0	go	0.62	Go_X	1.0
473.249	0.3	stopfail	0.416	Go_X	0.0
475.774	1.0	go	0.713	Go_O	1.0
478.298	1.0	go	0.573	Go_X	1.0
480.822	1.0	go	0.633	Go_O	1.0
483.346	0.25	stopsuccess	0.0	Go_O	1.0
485.871	1.0	go	0.645	Go_O	1.0
488.395	1.0	go	0.663	Go_X	1.0
490.919	0.3	stopsuccess	0.0	Go_X	1.0
493.443	0.35	stopsuccess	0.0	Go_O	1.0
495.967	1.0	go	0.56	Go_O	1.0
498.492	1.0	go	0.712	Go_X	1.0
501.016	0.4	stopsuccess	0.0	Go_X	1.0
503.54	1.0	go	0.648	Go_X	1.0
506.064	1.0	go	0.746	Go_O	1.0
508.589	0.45	stopsuccess	0.0	Go_O	1.0
511.113	1.0	go	0.608	Go_O	1.0
513.637	1.0	go	0.838	Go_X	1.0
516.161	0.5	stopsuccess	0.0	Go_X	1.0
518.685	1.0	go	0.414	Go_O	1.0
521.21	1.0	go	0.54	Go_X	1.0
523.734	0.55	stopfail	0.555	Go_O	0.0
526.258	1.0	go	0.745	Go_X	1.0
528.782	1.0	go	0.602	Go_O	1.0
531.307	1.0	go	0.755	Go_O	1.0
533.831	1.0	go	0.71	Go_X	1.0
536.355	1.0	go	0.646	Go_X	1.0
538.879	0.5	stopsuccess	0.0	Go_X	1.0
541.403	1.0	go	0.596	Go_O	1.0
543.928	1.0	go	0.795	Go_O	1.0
546.452	1.0	go	0.751	Go_X	1.0
548.976	1.0	go	0.778	Go_X	1.0
551.5	1.0	go	0.779	Go_O	1.0
554.025	0.55	stopsuccess	0.0	Go_O	1.0
556.549	1.0	go	0.611	Go_O	1.0
559.073	1.0	go	0.819	Go_X	1.0
561.597	1.0	go	0.981	Go_O	1.0
564.121	1.0	go	0.625	Go_X	1.0
566.646	1.0	go	0.63	Go_O	1.0
569.17	1.0	go	0.629	Go_X	1.0
571.694	0.6	stopfail	0.425	Go_X	0.0
574.218	1.0	go	0.518	Go_O	1.0
576.743	1.0	go	0.607	Go_X	1.0
579.267	0.55	stopsuccess	0.0	Go_O	1.0
581.791	1.0	go	0.631	Go_X	1.0
584.315	0.6	stopfail	0.771	Go_X	0.0
586.84	0.55	stopsuccess	0.0	Go_O	1.0
589.364	1.0	go	0.748	Go_O	1.0
591.888	1.0	go	0.68	Go_X	1.0
594.412	1.0	go	0.651	Go_O	1.0
596.936	1.0	go	0.0	Go_X	0.0
599.461	0.6	stopfail	0.723	Go_X	0.0
601.985	1.0	go	0.619	Go_O	1.0
604.509	0.55	stopsuccess	0.0	Go_O	1.0
607.033	1.0	go	0.603	Go_O	1.0
609.558	1.0	go	0.775	Go_X	1.0
612.082	1.0	go	0.825	Go_X	1.0
614.606	1.0	go	0.701	Go_O	1.0
617.13	1.0	go	0.687	Go_O	1.0
619.654	1.0	go	0.663	Go_X	1.0
622.179	1.0	go	0.823	Go_X	1.0
624.703	1.0	go	0.811	Go_O	1.0
627.227	1.0	go	0.586	Go_X	1.0
629.751	0.6	stopfail	0.754	Go_X	0.0
632.276	1.0	go	0.0	Go_O	0.0
634.8	1.0	go	0.977	Go_X	1.0
637.324	1.0	go	0.605	Go_O	1.0
639.848	0.55	stopsuccess	0.0	Go_O	1.0
642.372	1.0	go	0.869	Go_O	1.0
644.897	1.0	go	0.935	Go_X	1.0
647.421	1.0	go	0.966	Go_O	1.0
649.945	1.0	go	0.777	Go_X	1.0
652.469	1.0	go	0.989	Go_X	1.0
654.994	1.0	go	0.798	Go_O	1.0
657.518	0.6	stopsuccess	0.0	Go_X	1.0
660.042	1.0	go	0.789	Go_X	1.0
662.566	1.0	go	0.77	Go_O	1.0
665.09	0.65	stopsuccess	0.0	Go_O	1.0
667.615	1.0	go	0.584	Go_X	1.0
670.139	1.0	go	0.774	Go_O	1.0
672.663	0.7	stopfail	0.799	Go_X	0.0
675.187	1.0	go	0.817	Go_O	1.0
677.712	0.65	stopfail	0.684	Go_O	0.0
680.236	1.0	go	0.979	Go_X	1.0
682.76	1.0	go	0.814	Go_O	1.0
685.284	1.0	go	0.923	Go_X	1.0
687.809	1.0	go	0.98	Go_X	1.0
690.333	1.0	go	0.581	Go_O	1.0
692.857	0.6	stopfail	0.827	Go_X	0.0
695.381	0.55	stopsuccess	0.0	Go_O	1.0
697.905	1.0	go	0.869	Go_O	1.0
700.43	1.0	go	0.0	Go_X	0.0
702.954	0.6	stopsuccess	0.0	Go_X	1.0
705.478	1.0	go	0.887	Go_O	1.0
708.002	1.0	go	0.0	Go_X	0.0
710.527	1.0	go	0.0	Go_X	0.0
713.051	1.0	go	0.776	Go_O	1.0
715.575	1.0	go	0.94	Go_X	1.0
718.099	1.0	go	0.801	Go_O	1.0
720.623	0.65	stopsuccess	0.0	Go_O	1.0
723.148	1.0	go	0.77	Go_X	1.0
725.672	1.0	go	0.875	Go_O	1.0
728.196	1.0	go	0.878	Go_O	1.0
730.72	1.0	go	0.851	Go_X	1.0
733.245	1.0	go	0.951	Go_O	1.0
735.769	0.7	stopfail	0.887	Go_X	0.0
738.293	1.0	go	0.809	Go_X	1.0
740.817	1.0	go	0.902	Go_X	0.0
743.341	1.0	go	0.85	Go_O	1.0
745.866	1.0	go	0.787	Go_X	0.0
748.39	0.65	stopsuccess	0.0	Go_O	1.0
750.914	1.0	go	0.753	Go_O	1.0
753.438	1.0	go	0.825	Go_O	1.0
755.963	0.7	stopfail	0.793	Go_X	0.0
758.487	1.0	go	0.87	Go_X	1.0
761.011	0.65	stopsuccess	0.0	Go_O	1.0
763.535	1.0	go	0.699	Go_O	1.0
766.059	1.0	go	0.892	Go_X	1.0
768.584	1.0	go	0.0	Go_X	0.0
771.108	1.0	go	0.77	Go_O	1.0
773.632	1.0	go	0.83	Go_O	1.0
776.156	1.0	go	0.796	Go_X	1.0
778.681	1.0	go	0.743	Go_O	1.0
781.205	0.7	stopsuccess	0.0	Go_X	1.0
783.729	1.0	go	0.771	Go_X	1.0
786.253	1.0	go	0.886	Go_X	1.0
788.777	1.0	go	0.846	Go_O	1.0
791.302	0.75	stopsuccess	0.0	Go_O	1.0
793.826	1.0	go	0.818	Go_X	1.0
796.35	1.0	go	0.933	Go_O	1.0
798.874	1.0	go	0.91	Go_X	1.0
801.399	1.0	go	0.875	Go_O	1.0
803.923	0.8	stopfail	0.92	Go_X	0.0
806.447	1.0	go	0.998	Go_O	1.0
808.971	1.0	go	0.738	Go_X	1.0
811.496	0.75	stopfail	0.655	Go_O	0.0
814.02	1.0	go	0.758	Go_O	1.0
816.544	1.0	go	0.731	Go_X	1.0
819.068	0.7	stopsuccess	0.0	Go_X	1.0
821.592	1.0	go	0.889	Go_X	1.0
824.117	1.0	go	0.0	Go_O	0.0
826.641	0.75	stopfail	0.946	Go_O	0.0
829.165	1.0	go	0.929	Go_O	1.0
831.689	1.0	go	0.991	Go_X	1.0
834.214	1.0	go	0.948	Go_X	1.0
836.738	1.0	go	0.663	Go_O	1.0
839.262	1.0	go	0.628	Go_O	1.0
841.786	1.0	go	0.838	Go_X	1.0
844.31	0.7	stopsuccess	0.0	Go_X	1.0
846.835	1.0	go	0.823	Go_X	1.0
849.359	0.75	stopfail	0.76	Go_O	0.0
851.883	1.0	go	0.952	Go_O	1.0
854.407	1.0	go	0.994	Go_O	1.0
856.932	1.0	go	0.929	Go_X	1.0
859.456	1.0	go	0.0	Go_X	0.0
861.98	1.0	go	0.939	Go_O	1.0
864.504	0.7	stopsuccess	0.0	Go_X	1.0
867.028	1.0	go	0.853	Go_X	1.0
869.553	1.0	go	0.896	Go_O	1.0
872.077	1.0	go	0.0	Go_O	0.0
874.601	0.75	stopfail	0.894	Go_O	0.0
877.125	0.7	stopsuccess	0.0	Go_X	1.0
879.65	0.75	stopfail	0.813	Go_O	0.0
882.174	1.0	go	0.0	Go_X	0.0
884.698	0.7	stopsuccess	0.0	Go_X	1.0
887.222	1.0	go	0.973	Go_O	1.0
889.746	1.0	go	0.0	Go_X	0.0
892.271	1.0	go	0.997	Go_O	1.0
894.795	1.0	go	0.958	Go_X	1.0
897.319	1.0	go	0.874	Go_O	1.0
899.843	1.0	go	0.975	Go_X	1.0
902.368	1.0	go	0.804	Go_X	1.0
904.892	1.0	go	0.0	Go_O	0.0
907.416	0.75	stopsuccess	0.0	Go_O	1.0
909.94	1.0	go	0.0	Go_X	0.0
912.465	1.0	go	0.916	Go_O	1.0
914.989	0.8	stopsuccess	0.0	Go_X	1.0
917.513	1.0	go	0.644	Go_X	1.0
920.037	1.0	go	0.0	Go_O	0.0
922.561	1.0	go	0.0	Go_O	0.0
925.086	1.0	go	0.877	Go_X	1.0
927.61	1.0	go	0.834	Go_O	1.0
930.134	0.85	stopfail	0.974	Go_O	0.0
932.658	1.0	go	0.894	Go_X	1.0
935.183	1.0	go	0.986	Go_X	1.0
937.707	1.0	go	0.788	Go_O	1.0
940.231	0.8	stopfail	0.944	Go_X	0.0
942.755	1.0	go	0.0	Go_O	0.0
945.279	0.75	stopsuccess	0.0	Go_O	1.0
947.804	1.0	go	0.0	Go_X	0.0
950.328	1.0	go	0.0	Go_X	0.0
952.852	1.0	go	0.844	Go_O	1.0
955.376	1.0	go	0.609	Go_X	1.0
957.901	1.0	go	0.0	Go_O	0.0
960.425	1.0	go	0.0	Go_O	0.0
962.949	1.0	go	0.685	Go_X	1.0
965.473	0.8	stopfail	0.897	Go_X	0.0
967.997	1.0	go	0.0	Go_O	0.0
970.522	1.0	go	0.745	Go_X	1.0
973.046	1.0	go	0.78	Go_O	1.0
975.57	1.0	go	0.922	Go_X	1.0
978.094	0.75	stopsuccess	0.0	Go_O	1.0
980.619	1.0	go	0.565	Go_X	1.0
983.143	0.8	stopfail	0.937	Go_X	0.0
985.667	1.0	go	0.547	Go_O	1.0
988.191	1.0	go	0.82	Go_X	1.0
990.715	0.75	stopsuccess	0.0	Go_O	1.0
993.24	1.0	go	0.762	Go_O	1.0
995.764	1.0	go	0.0	Go_X	0.0
998.288	1.0	go	0.986	Go_O	1.0
1000.812	1.0	go	0.0	Go_X	0.0
1003.337	1.0	go	0.709	Go_O	1.0
1005.861	1.0	go	0.746	Go_X	1.0
1008.385	1.0	go	0.939	Go_O	1.0
1010.909	1.0	go	0.91	Go_O	1.0
1013.433	1.0	go	0.95	Go_X	1.0
1015.958	1.0	go	0.923	Go_X	1.0
1018.482	0.8	stopfail	0.846	Go_X	0.0
1021.006	1.0	go	0.988	Go_O	1.0
1023.53	1.0	go	0.928	Go_O	1.0
1026.055	0.75	stopsuccess	0.0	Go_O	1.0
1028.579	1.0	go	0.946	Go_X	1.0
1031.103	0.8	stopsuccess	0.0	Go_X	1.0
1033.627	1.0	go	0.931	Go_X	1.0
1036.152	1.0	go	0.0	Go_O	0.0
1038.676	0.85	stopsuccess	0.0	Go_O	1.0
1041.2	1.0	go	0.886	Go_X	1.0
1043.724	0.9	stopsuccess	0.0	Go_X	1.0
1046.248	1.0	go	0.844	Go_O	1.0
1048.773	1.0	go	0.0	Go_O	0.0
1051.297	1.0	go	0.695	Go_X	1.0
1053.821	0.95	stopsuccess	0.0	Go_O	1.0
1056.345	1.0	go	0.821	Go_X	1.0
1058.87	1.0	go	0.911	Go_O	1.0
1061.394	1.0	go	0.921	Go_X	1.0
1063.918	1.0	go	0.0	Go_O	0.0
1066.442	1.0	stopfail	0.738	Go_X	0.0
1068.983	1.0	go	0.971	Go_X	1.0
1071.507	1.0	go	0.916	Go_O	1.0
1074.032	0.95	stopsuccess	0.0	Go_O	1.0
1076.556	1.0	go	0.0	Go_X	0.0
1079.08	1.0	go	0.808	Go_O	1.0
1081.604	1.0	go	0.0	Go_X	0.0
1084.128	1.0	go	0.672	Go_O	1.0
1086.653	1.0	stopfail	0.878	Go_X	0.0
1089.194	1.0	go	0.0	Go_X	0.0
1091.718	0.95	stopfail	0.895	Go_O	0.0
1094.242	1.0	go	0.0	Go_O	0.0
1096.766	1.0	go	0.0	Go_X	0.0
1099.291	0.9	stopfail	0.922	Go_X	0.0
1101.815	1.0	go	0.0	Go_O	0.0
1104.339	1.0	go	0.976	Go_O	1.0
1106.863	1.0	go	0.0	Go_X	0.0
1109.387	1.0	go	0.99	Go_O	1.0
1111.912	0.85	stopfail	0.979	Go_O	0.0
1114.436	1.0	go	0.0	Go_X	0.0
1116.96	0.8	stopsuccess	0.0	Go_X	1.0
1119.484	1.0	go	0.0	Go_O	0.0
1122.009	1.0	go	0.675	Go_X	1.0
1124.533	1.0	go	0.874	Go_O	1.0
1127.057	1.0	go	0.0	Go_X	0.0
1129.581	1.0	go	0.0	Go_X	0.0
1132.105	1.0	go	0.86	Go_O	1.0
1134.63	0.85	stopsuccess	0.0	Go_O	1.0
1137.154	1.0	go	0.813	Go_O	1.0
1139.678	1.0	go	0.0	Go_X	0.0
1142.202	0.9	stopfail	0.825	Go_X	0.0
1144.727	1.0	go	0.0	Go_X	0.0
1147.251	1.0	go	0.859	Go_O	1.0
1149.775	0.85	stopfail	0.937	Go_O	0.0
1152.299	1.0	go	0.0	Go_O	0.0
1154.823	1.0	go	0.958	Go_X	1.0
1157.348	1.0	go	0.0	Go_X	0.0
1159.872	1.0	go	0.0	Go_O	0.0
1162.396	0.8	stopfail	0.767	Go_X	0.0
1164.92	1.0	go	0.632	Go_X	1.0
1167.445	0.75	stopfail	0.936	Go_O	0.0
1169.969	1.0	go	0.0	Go_O	0.0
1172.493	1.0	go	0.765	Go_O	1.0
1175.017	1.0	go	0.89	Go_X	1.0
1177.542	1.0	go	0.0	Go_O	0.0
1180.066	1.0	go	0.0	Go_X	0.0
1182.59	0.7	stopsuccess	0.0	Go_X	1.0
1185.114	1.0	go	0.901	Go_O	1.0
1187.638	1.0	go	0.0	Go_X	0.0
1190.163	0.75	stopfail	0.713	Go_O	0.0
1192.687	0.7	stopsuccess	0.0	Go_X	1.0
1195.211	1.0	go	0.0	Go_X	0.0
1197.735	1.0	go	0.0	Go_O	0.0
1200.26	1.0	go	0.493	Go_O	1.0
1202.784	1.0	go	0.769	Go_X	1.0
1205.308	0.75	stopsuccess	0.0	Go_O	1.0
1207.832	1.0	go	0.918	Go_X	1.0
