onset	duration	trial_type	response_time	stim_file	accuracy
336.129	1.0	go	0.0	Go_O	0.0
338.653	1.0	go	0.743	Go_X	0.0
341.177	1.0	go	0.554	Go_O	0.0
343.701	1.0	go	0.486	Go_X	0.0
346.225	1.0	go	0.562	Go_X	0.0
348.749	1.0	go	0.638	Go_O	0.0
351.274	0.25	stopfail	0.569	Go_O	0.0
353.798	1.0	go	0.509	Go_X	0.0
356.322	0.2	stopsuccess	0.0	Go_X	1.0
358.846	1.0	go	0.445	Go_O	0.0
361.37	1.0	go	0.553	Go_X	0.0
363.895	1.0	go	0.476	Go_O	0.0
366.419	0.25	stopsuccess	0.0	Go_O	1.0
368.943	1.0	go	0.564	Go_O	0.0
371.467	1.0	go	0.759	Go_X	0.0
373.991	0.3	stopfail	0.643	Go_X	0.0
376.516	0.25	stopsuccess	0.0	Go_O	1.0
379.04	1.0	go	0.634	Go_X	0.0
381.564	1.0	go	0.67	Go_O	0.0
384.088	0.3	stopsuccess	0.0	Go_X	1.0
386.612	1.0	go	0.574	Go_O	0.0
389.137	1.0	go	0.777	Go_X	0.0
391.661	0.35	stopfail	0.861	Go_O	0.0
394.185	1.0	go	0.697	Go_O	0.0
396.709	1.0	go	0.989	Go_X	0.0
399.233	0.3	stopfail	0.593	Go_X	0.0
401.758	1.0	go	0.892	Go_O	0.0
404.282	1.0	go	0.863	Go_X	0.0
406.806	0.25	stopfail	0.515	Go_O	0.0
409.33	1.0	go	0.791	Go_O	0.0
411.854	1.0	go	0.763	Go_X	0.0
414.378	1.0	go	0.0	Go_X	0.0
416.903	1.0	go	0.602	Go_O	0.0
419.427	1.0	go	0.398	Go_X	0.0
421.951	0.2	stopsuccess	0.0	Go_X	1.0
424.475	1.0	go	0.398	Go_O	0.0
426.999	1.0	go	0.594	Go_O	0.0
429.524	1.0	go	0.677	Go_X	0.0
432.048	1.0	go	0.609	Go_O	0.0
434.572	1.0	go	0.749	Go_X	0.0
437.096	0.25	stopsuccess	0.0	Go_O	1.0
439.62	1.0	go	0.572	Go_O	0.0
442.145	1.0	go	0.471	Go_X	0.0
444.669	1.0	go	0.611	Go_X	0.0
447.193	1.0	go	0.599	Go_O	0.0
449.717	1.0	go	0.611	Go_X	0.0
452.241	1.0	go	0.839	Go_O	0.0
454.766	0.3	stopfail	0.546	Go_X	0.0
457.29	1.0	go	0.846	Go_X	0.0
459.814	1.0	go	0.658	Go_O	0.0
462.338	0.25	stopsuccess	0.0	Go_O	1.0
464.862	1.0	go	0.706	Go_O	0.0
467.387	0.3	stopfail	0.78	Go_X	0.0
469.911	0.25	stopsuccess	0.0	Go_O	1.0
472.435	1.0	go	0.772	Go_X	0.0
474.959	1.0	go	0.784	Go_X	0.0
477.483	1.0	go	0.668	Go_O	0.0
480.007	1.0	go	0.64	Go_X	0.0
482.532	0.3	stopsuccess	0.0	Go_X	1.0
485.056	1.0	go	0.751	Go_O	0.0
487.58	0.35	stopsuccess	0.0	Go_O	1.0
490.104	1.0	go	0.839	Go_X	0.0
492.628	1.0	go	0.963	Go_O	0.0
495.153	1.0	go	0.95	Go_X	0.0
497.677	1.0	go	0.617	Go_O	0.0
500.201	1.0	go	0.477	Go_X	0.0
502.725	1.0	go	0.929	Go_O	0.0
505.249	1.0	go	0.661	Go_O	0.0
507.774	1.0	go	0.784	Go_X	0.0
510.298	1.0	go	0.772	Go_X	0.0
512.822	0.4	stopfail	0.64	Go_X	0.0
515.346	1.0	go	0.772	Go_O	0.0
517.87	1.0	go	0.72	Go_O	0.0
520.395	1.0	go	0.779	Go_X	0.0
522.919	0.35	stopsuccess	0.0	Go_O	1.0
525.443	1.0	go	0.675	Go_X	0.0
527.967	1.0	go	0.639	Go_O	0.0
530.491	1.0	go	0.898	Go_X	0.0
533.016	1.0	go	0.685	Go_O	0.0
535.54	1.0	go	0.841	Go_O	0.0
538.064	1.0	go	0.893	Go_X	0.0
540.588	0.4	stopfail	0.665	Go_X	0.0
543.112	1.0	go	0.789	Go_O	0.0
545.636	1.0	go	0.817	Go_X	0.0
548.161	0.35	stopsuccess	0.0	Go_O	1.0
550.685	1.0	go	0.0	Go_O	0.0
553.209	1.0	go	0.708	Go_X	0.0
555.733	0.4	stopfail	0.64	Go_X	0.0
558.257	1.0	go	0.932	Go_X	0.0
560.782	0.35	stopsuccess	0.0	Go_O	1.0
563.306	1.0	go	0.618	Go_O	0.0
565.83	1.0	go	0.59	Go_X	0.0
568.354	1.0	go	0.538	Go_O	0.0
570.878	1.0	go	0.774	Go_X	0.0
573.403	1.0	go	0.721	Go_O	0.0
575.927	0.4	stopfail	0.773	Go_X	0.0
578.451	0.35	stopfail	0.633	Go_O	0.0
580.975	1.0	go	0.901	Go_X	0.0
583.499	1.0	go	0.0	Go_O	0.0
586.024	0.3	stopsuccess	0.0	Go_X	1.0
588.548	1.0	go	0.696	Go_X	0.0
591.072	1.0	go	0.779	Go_O	0.0
593.596	1.0	go	0.599	Go_O	0.0
596.12	1.0	go	0.867	Go_X	0.0
598.645	1.0	go	0.774	Go_X	0.0
601.169	1.0	go	0.666	Go_O	0.0
603.693	0.35	stopsuccess	0.0	Go_O	1.0
606.217	1.0	go	0.602	Go_O	0.0
608.741	1.0	go	0.702	Go_X	0.0
611.265	1.0	go	0.754	Go_O	0.0
613.79	1.0	go	0.869	Go_X	0.0
616.314	1.0	go	0.633	Go_O	0.0
618.838	0.4	stopfail	0.517	Go_X	0.0
621.362	1.0	go	0.865	Go_X	0.0
623.886	1.0	go	0.692	Go_O	0.0
626.411	1.0	go	0.695	Go_X	0.0
628.935	1.0	go	0.707	Go_O	0.0
631.459	0.35	stopsuccess	0.0	Go_O	1.0
633.983	1.0	go	0.635	Go_X	0.0
636.507	1.0	go	0.655	Go_O	0.0
639.032	0.4	stopfail	0.586	Go_X	0.0
641.556	1.0	go	0.0	Go_X	0.0
644.08	0.35	stopsuccess	0.0	Go_O	1.0
646.604	1.0	go	0.742	Go_O	0.0
649.128	1.0	go	0.498	Go_X	0.0
651.653	1.0	go	0.669	Go_O	0.0
654.177	1.0	go	0.504	Go_X	0.0
656.701	1.0	go	0.668	Go_O	0.0
659.225	1.0	go	0.512	Go_X	0.0
661.749	1.0	go	0.796	Go_O	0.0
664.274	0.4	stopsuccess	0.0	Go_X	1.0
666.798	1.0	go	0.883	Go_X	0.0
669.322	1.0	go	0.679	Go_O	0.0
671.846	1.0	go	0.827	Go_X	0.0
674.37	0.45	stopfail	0.711	Go_O	0.0
676.894	1.0	go	0.723	Go_O	0.0
679.419	1.0	go	0.758	Go_X	0.0
681.943	1.0	go	0.954	Go_X	0.0
684.467	1.0	go	0.654	Go_O	0.0
686.991	0.4	stopsuccess	0.0	Go_X	1.0
689.515	1.0	go	0.853	Go_O	0.0
692.04	1.0	go	0.904	Go_X	0.0
694.564	0.45	stopfail	0.692	Go_O	0.0
697.088	1.0	go	0.768	Go_O	0.0
699.612	1.0	go	0.0	Go_X	0.0
702.136	0.4	stopsuccess	0.0	Go_X	1.0
704.661	1.0	go	0.0	Go_O	0.0
707.185	1.0	go	0.991	Go_X	0.0
709.709	0.45	stopsuccess	0.0	Go_O	1.0
712.233	1.0	go	0.935	Go_O	0.0
714.757	1.0	go	0.803	Go_X	0.0
717.282	1.0	go	0.885	Go_O	0.0
719.806	1.0	go	0.905	Go_X	0.0
722.33	1.0	go	0.661	Go_O	0.0
724.854	1.0	go	0.721	Go_X	0.0
727.378	0.5	stopsuccess	0.0	Go_X	1.0
729.903	1.0	go	0.736	Go_O	0.0
732.427	0.55	stopfail	0.636	Go_O	0.0
734.951	1.0	go	0.0	Go_X	0.0
737.475	1.0	go	0.612	Go_X	0.0
739.999	1.0	go	0.664	Go_O	0.0
742.523	1.0	go	0.692	Go_X	0.0
745.048	1.0	go	0.823	Go_O	0.0
747.572	0.5	stopfail	0.691	Go_X	0.0
750.096	1.0	go	0.0	Go_O	0.0
752.62	1.0	go	0.938	Go_X	0.0
755.144	1.0	go	0.478	Go_O	0.0
757.669	0.45	stopfail	0.897	Go_O	0.0
760.193	0.4	stopsuccess	0.0	Go_X	1.0
762.717	0.45	stopsuccess	0.0	Go_O	1.0
765.241	1.0	go	0.0	Go_X	0.0
767.765	0.5	stopfail	0.753	Go_X	0.0
770.29	1.0	go	0.636	Go_X	0.0
772.814	1.0	go	0.808	Go_O	0.0
775.338	1.0	go	0.932	Go_X	0.0
777.862	1.0	go	0.664	Go_O	0.0
780.386	1.0	go	0.755	Go_X	0.0
782.911	1.0	go	0.678	Go_O	0.0
785.435	1.0	go	0.674	Go_X	0.0
787.959	1.0	go	0.718	Go_O	0.0
790.483	0.45	stopfail	0.698	Go_O	0.0
793.007	1.0	go	0.758	Go_O	0.0
795.532	1.0	go	0.0	Go_X	0.0
798.056	0.4	stopsuccess	0.0	Go_X	1.0
800.58	1.0	go	0.689	Go_O	0.0
803.104	1.0	go	0.717	Go_X	0.0
805.628	1.0	go	0.577	Go_O	0.0
808.152	1.0	go	0.797	Go_X	0.0
810.677	1.0	go	0.608	Go_O	0.0
813.201	0.45	stopfail	0.739	Go_O	0.0
815.725	1.0	go	0.0	Go_X	0.0
818.249	1.0	go	0.675	Go_O	0.0
820.773	1.0	go	0.56	Go_X	0.0
823.298	0.4	stopfail	0.578	Go_X	0.0
825.822	1.0	go	0.0	Go_X	0.0
828.346	0.35	stopfail	0.562	Go_O	0.0
830.87	1.0	go	0.0	Go_O	0.0
833.394	1.0	go	0.698	Go_X	0.0
835.919	1.0	go	0.989	Go_O	0.0
838.443	1.0	go	0.529	Go_X	0.0
840.967	1.0	go	0.653	Go_O	0.0
843.491	1.0	go	0.689	Go_O	0.0
846.015	1.0	go	0.0	Go_X	0.0
848.54	0.3	stopsuccess	0.0	Go_X	1.0
851.064	1.0	go	0.603	Go_X	0.0
853.588	1.0	go	0.735	Go_O	0.0
856.112	1.0	go	0.659	Go_X	0.0
858.636	1.0	go	0.951	Go_O	0.0
861.161	0.35	stopsuccess	0.0	Go_O	1.0
863.685	1.0	go	0.982	Go_X	0.0
866.209	0.4	stopsuccess	0.0	Go_X	1.0
868.733	1.0	go	0.798	Go_O	0.0
871.257	1.0	go	0.586	Go_O	0.0
873.781	0.45	stopfail	0.582	Go_O	0.0
876.306	1.0	go	0.696	Go_X	0.0
878.83	1.0	go	0.54	Go_X	0.0
881.354	1.0	go	0.696	Go_O	0.0
883.878	1.0	go	0.932	Go_X	0.0
886.402	1.0	go	0.84	Go_O	0.0
888.927	1.0	go	0.579	Go_O	0.0
891.451	1.0	go	0.0	Go_X	0.0
893.975	1.0	go	0.595	Go_X	0.0
896.499	1.0	go	0.511	Go_O	0.0
899.023	1.0	go	0.491	Go_X	0.0
901.548	0.4	stopfail	0.422	Go_X	0.0
904.072	1.0	go	0.602	Go_O	0.0
906.596	1.0	go	0.75	Go_O	0.0
909.12	0.35	stopsuccess	0.0	Go_O	1.0
911.644	1.0	go	0.0	Go_X	0.0
914.169	0.4	stopsuccess	0.0	Go_X	1.0
916.693	1.0	go	0.74	Go_O	0.0
919.217	1.0	go	0.672	Go_X	0.0
921.741	0.45	stopsuccess	0.0	Go_O	1.0
924.265	1.0	go	0.0	Go_O	0.0
926.79	0.5	stopfail	0.683	Go_X	0.0
929.314	1.0	go	0.839	Go_X	0.0
931.838	1.0	go	0.851	Go_O	0.0
934.362	1.0	go	0.663	Go_X	0.0
936.886	0.45	stopfail	0.747	Go_O	0.0
939.41	1.0	go	0.694	Go_O	0.0
941.935	1.0	go	0.881	Go_X	0.0
944.459	1.0	go	0.597	Go_X	0.0
946.983	1.0	go	0.0	Go_O	0.0
949.507	0.4	stopsuccess	0.0	Go_X	1.0
952.031	1.0	go	0.673	Go_O	0.0
954.556	1.0	go	0.836	Go_X	0.0
957.08	0.45	stopfail	0.992	Go_O	0.0
959.604	1.0	go	0.636	Go_X	0.0
962.128	1.0	go	0.848	Go_O	0.0
964.652	1.0	go	0.74	Go_X	0.0
967.177	1.0	go	0.567	Go_O	0.0
969.701	0.4	stopfail	0.674	Go_X	0.0
972.225	1.0	go	0.0	Go_X	0.0
974.749	0.35	stopfail	0.522	Go_O	0.0
977.273	1.0	go	0.886	Go_O	0.0
979.798	1.0	go	0.857	Go_O	0.0
982.322	0.3	stopsuccess	0.0	Go_X	1.0
984.846	1.0	go	0.0	Go_X	0.0
987.37	1.0	go	0.0	Go_O	0.0
989.894	1.0	go	0.721	Go_X	0.0
992.419	1.0	go	0.0	Go_O	0.0
994.943	0.35	stopfail	0.728	Go_O	0.0
997.467	1.0	go	0.0	Go_X	0.0
999.991	0.3	stopsuccess	0.0	Go_X	1.0
1002.515	1.0	go	0.627	Go_O	0.0
1005.039	1.0	go	0.0	Go_X	0.0
1007.564	1.0	go	0.0	Go_O	0.0
1010.088	1.0	go	0.0	Go_X	0.0
1012.612	1.0	go	0.554	Go_X	0.0
1015.136	1.0	go	0.878	Go_O	0.0
1017.66	0.35	stopfail	0.634	Go_O	0.0
1020.185	1.0	go	0.0	Go_X	0.0
1022.709	1.0	go	0.617	Go_O	0.0
1025.233	0.3	stopsuccess	0.0	Go_X	1.0
1027.757	1.0	go	0.625	Go_O	0.0
1030.281	1.0	go	0.709	Go_X	0.0
1032.806	0.35	stopsuccess	0.0	Go_O	1.0
1035.33	1.0	go	0.635	Go_O	0.0
1037.854	1.0	go	0.783	Go_X	0.0
1040.378	1.0	go	0.723	Go_O	0.0
1042.902	1.0	go	0.631	Go_X	0.0
1045.427	0.4	stopfail	0.65	Go_X	0.0
1047.951	1.0	go	0.0	Go_O	0.0
1050.475	0.35	stopfail	0.682	Go_O	0.0
1052.999	1.0	go	0.83	Go_X	0.0
1055.523	1.0	go	0.89	Go_X	0.0
1058.047	1.0	go	0.0	Go_O	0.0
1060.572	1.0	go	0.577	Go_O	0.0
1063.096	1.0	go	0.676	Go_X	0.0
1065.62	0.3	stopsuccess	0.0	Go_X	1.0
1068.144	1.0	go	0.724	Go_X	0.0
1070.668	1.0	go	0.576	Go_O	0.0
1073.193	0.35	stopsuccess	0.0	Go_O	1.0
1075.717	0.4	stopsuccess	0.0	Go_X	1.0
1078.241	1.0	go	0.0	Go_O	0.0
1080.765	1.0	go	0.663	Go_X	0.0
1083.289	1.0	go	0.707	Go_O	0.0
1085.814	1.0	go	0.774	Go_X	0.0
1088.338	0.45	stopfail	0.626	Go_O	0.0
1090.862	1.0	go	0.918	Go_O	0.0
