onset	duration	trial_type	response_time	stim_file	accuracy
36.19	1.0	go	0.755	Go_O	1.0
38.714	1.0	go	0.543	Go_X	1.0
41.239	1.0	go	0.553	Go_O	1.0
43.763	1.0	go	0.556	Go_X	1.0
46.287	1.0	go	0.862	Go_X	1.0
48.811	1.0	go	0.638	Go_O	1.0
51.335	0.25	stop	0.0	Go_O	1.0
53.86	1.0	go	0.561	Go_O	1.0
56.384	0.3	stop	0.0	Go_X	1.0
58.908	1.0	go	0.49	Go_X	1.0
61.432	1.0	go	0.406	Go_O	1.0
63.957	1.0	go	0.58	Go_X	1.0
66.481	0.35	stop	0.0	Go_O	1.0
69.005	1.0	go	0.441	Go_X	1.0
71.529	1.0	go	0.596	Go_O	1.0
74.053	0.4	stop	0.564	Go_X	0.0
76.578	0.35	stop	0.0	Go_O	1.0
79.102	1.0	go	0.5	Go_X	1.0
81.626	1.0	go	0.623	Go_O	1.0
84.15	0.4	stop	0.0	Go_X	1.0
86.675	1.0	go	0.493	Go_O	1.0
89.199	1.0	go	0.652	Go_X	1.0
91.723	0.45	stop	0.0	Go_O	1.0
94.247	1.0	go	0.643	Go_X	1.0
96.771	1.0	go	0.63	Go_O	1.0
99.296	0.5	stop	0.0	Go_X	1.0
101.82	1.0	go	0.524	Go_X	1.0
104.344	1.0	go	0.395	Go_O	1.0
106.868	0.55	stop	0.618	Go_O	0.0
109.393	1.0	go	0.988	Go_X	1.0
111.917	1.0	go	0.607	Go_O	1.0
114.441	1.0	go	0.525	Go_X	1.0
116.965	1.0	go	0.672	Go_O	1.0
119.49	1.0	go	0.857	Go_X	1.0
122.014	0.5	stop	0.0	Go_X	1.0
124.555	1.0	go	0.536	Go_O	1.0
127.079	1.0	go	0.686	Go_X	1.0
129.603	1.0	go	0.629	Go_O	1.0
132.127	1.0	go	0.883	Go_X	1.0
134.652	1.0	go	0.637	Go_O	1.0
137.176	0.55	stop	0.0	Go_O	1.0
139.7	1.0	go	0.559	Go_X	1.0
142.224	1.0	go	0.619	Go_O	1.0
144.748	1.0	go	0.681	Go_O	1.0
147.273	1.0	go	0.693	Go_X	1.0
149.797	1.0	go	0.717	Go_X	1.0
152.321	1.0	go	0.642	Go_O	1.0
154.845	0.6	stop	0.434	Go_X	0.0
157.37	1.0	go	0.451	Go_O	1.0
159.894	1.0	go	0.709	Go_X	1.0
162.418	0.55	stop	0.664	Go_O	0.0
164.942	1.0	go	0.617	Go_O	1.0
167.466	0.5	stop	0.0	Go_X	1.0
169.991	0.55	stop	0.663	Go_O	0.0
172.515	1.0	go	0.652	Go_X	1.0
175.039	1.0	go	0.694	Go_X	1.0
177.563	1.0	go	0.815	Go_O	1.0
180.088	1.0	go	0.858	Go_X	1.0
182.612	0.5	stop	0.0	Go_X	1.0
185.136	1.0	go	0.828	Go_O	1.0
187.66	0.55	stop	0.0	Go_O	1.0
190.185	1.0	go	0.664	Go_O	1.0
192.709	1.0	go	0.814	Go_X	1.0
195.233	1.0	go	0.846	Go_X	1.0
197.757	1.0	go	0.699	Go_O	1.0
200.281	1.0	go	0.661	Go_X	1.0
202.806	1.0	go	0.714	Go_O	1.0
205.33	1.0	go	0.737	Go_O	1.0
207.854	1.0	go	0.794	Go_X	1.0
210.378	1.0	go	0.56	Go_O	1.0
212.903	0.6	stop	0.0	Go_X	1.0
215.443	1.0	go	0.723	Go_X	1.0
217.968	1.0	go	0.7	Go_O	1.0
220.492	1.0	go	0.76	Go_X	1.0
223.016	0.65	stop	0.621	Go_O	0.0
225.54	1.0	go	0.64	Go_O	1.0
228.065	1.0	go	0.691	Go_X	1.0
230.589	1.0	go	0.848	Go_X	1.0
233.113	1.0	go	0.723	Go_O	1.0
235.637	1.0	go	0.883	Go_X	1.0
238.161	1.0	go	0.796	Go_O	1.0
240.686	0.6	stop	0.0	Go_X	1.0
243.21	1.0	go	0.69	Go_X	1.0
245.734	1.0	go	0.672	Go_O	1.0
248.258	0.65	stop	0.711	Go_O	0.0
250.783	1.0	go	0.624	Go_O	1.0
253.307	1.0	go	0.853	Go_X	1.0
255.831	0.6	stop	0.0	Go_X	1.0
258.355	1.0	go	0.605	Go_X	1.0
260.88	0.65	stop	0.677	Go_O	0.0
263.42	1.0	go	0.606	Go_O	1.0
265.945	1.0	go	0.719	Go_X	1.0
268.469	1.0	go	0.708	Go_O	1.0
270.993	1.0	go	0.5	Go_X	1.0
273.517	1.0	go	0.682	Go_O	1.0
276.042	0.6	stop	0.0	Go_X	1.0
278.566	0.65	stop	0.594	Go_O	0.0
281.09	1.0	go	0.651	Go_O	1.0
283.614	1.0	go	0.555	Go_X	1.0
286.138	0.6	stop	0.0	Go_X	1.0
288.663	1.0	go	0.61	Go_X	1.0
291.187	1.0	go	0.84	Go_O	1.0
293.711	1.0	go	0.88	Go_O	1.0
296.235	1.0	go	0.776	Go_X	1.0
298.76	1.0	go	0.949	Go_X	1.0
301.284	1.0	go	0.779	Go_O	1.0
303.808	0.65	stop	0.589	Go_O	0.0
306.332	1.0	go	0.636	Go_X	1.0
308.857	1.0	go	0.573	Go_O	1.0
311.381	1.0	go	0.782	Go_O	1.0
313.905	1.0	go	0.608	Go_X	1.0
316.429	1.0	go	0.871	Go_X	1.0
318.953	0.6	stop	0.0	Go_X	1.0
321.478	1.0	go	0.644	Go_O	1.0
324.002	1.0	go	0.733	Go_O	1.0
326.526	1.0	go	0.0	Go_X	0.0
329.05	1.0	go	0.618	Go_X	1.0
331.575	0.65	stop	0.668	Go_O	0.0
334.115	1.0	go	0.73	Go_O	1.0
336.64	1.0	go	0.555	Go_X	1.0
339.164	0.6	stop	0.778	Go_X	0.0
341.688	1.0	go	0.684	Go_O	1.0
344.212	0.55	stop	0.0	Go_O	1.0
346.737	1.0	go	0.808	Go_X	1.0
349.261	1.0	go	0.722	Go_O	1.0
351.785	1.0	go	0.678	Go_O	1.0
354.309	1.0	go	0.687	Go_X	1.0
356.833	1.0	go	0.5	Go_X	1.0
359.358	1.0	go	0.714	Go_O	1.0
361.882	1.0	go	0.0	Go_O	0.0
364.406	0.6	stop	0.732	Go_X	0.0
366.93	1.0	go	0.792	Go_X	1.0
369.455	1.0	go	0.597	Go_O	1.0
371.979	1.0	go	0.971	Go_X	0.0
374.503	0.55	stop	0.714	Go_O	0.0
377.027	1.0	go	0.623	Go_X	1.0
379.552	1.0	go	0.683	Go_O	1.0
382.076	1.0	go	0.568	Go_O	1.0
384.6	1.0	go	0.791	Go_X	1.0
387.124	0.5	stop	0.0	Go_X	1.0
389.648	1.0	go	0.62	Go_O	1.0
392.173	1.0	go	0.798	Go_X	1.0
394.697	0.55	stop	0.637	Go_O	0.0
397.221	1.0	go	0.595	Go_X	1.0
399.745	1.0	go	0.458	Go_O	1.0
402.27	0.5	stop	0.0	Go_X	1.0
404.794	1.0	go	0.752	Go_O	1.0
407.318	1.0	go	0.822	Go_X	1.0
409.842	0.55	stop	0.0	Go_O	1.0
412.366	1.0	go	0.59	Go_O	1.0
414.891	1.0	go	0.49	Go_X	1.0
417.415	1.0	go	0.884	Go_O	1.0
419.939	1.0	go	0.942	Go_X	1.0
422.463	1.0	go	0.796	Go_O	1.0
424.988	1.0	go	0.986	Go_X	1.0
427.512	0.6	stop	0.0	Go_X	1.0
430.036	1.0	go	0.737	Go_X	1.0
432.56	0.65	stop	0.729	Go_O	0.0
435.084	1.0	go	0.97	Go_O	1.0
437.609	1.0	go	0.401	Go_X	1.0
440.133	1.0	go	0.471	Go_O	1.0
442.657	1.0	go	0.587	Go_X	1.0
445.181	1.0	go	0.607	Go_O	1.0
447.706	0.6	stop	0.601	Go_X	0.0
450.23	1.0	go	0.542	Go_X	1.0
452.754	1.0	go	0.639	Go_O	1.0
455.278	1.0	go	0.0	Go_X	0.0
457.802	0.55	stop	0.692	Go_O	0.0
460.327	0.5	stop	0.607	Go_X	0.0
462.851	0.45	stop	0.585	Go_O	0.0
465.375	1.0	go	0.778	Go_O	1.0
467.899	0.4	stop	0.0	Go_X	1.0
470.424	1.0	go	0.838	Go_X	1.0
472.948	1.0	go	0.77	Go_O	1.0
475.472	1.0	go	0.822	Go_O	1.0
477.996	1.0	go	0.782	Go_X	1.0
480.52	1.0	go	0.628	Go_O	1.0
483.045	1.0	go	0.868	Go_X	1.0
485.569	1.0	go	0.913	Go_O	1.0
488.093	1.0	go	0.767	Go_X	1.0
490.617	0.45	stop	0.0	Go_O	1.0
493.142	1.0	go	0.843	Go_X	1.0
495.666	1.0	go	0.901	Go_O	1.0
498.19	0.5	stop	0.0	Go_X	1.0
500.714	1.0	go	0.731	Go_X	1.0
503.239	1.0	go	0.908	Go_O	1.0
505.763	1.0	go	0.91	Go_O	1.0
508.287	1.0	go	0.859	Go_X	1.0
510.811	1.0	go	0.507	Go_X	1.0
513.335	0.55	stop	0.0	Go_O	1.0
515.86	1.0	go	0.925	Go_O	1.0
518.384	1.0	go	0.705	Go_X	1.0
520.908	1.0	go	0.895	Go_O	1.0
523.432	0.6	stop	0.0	Go_X	1.0
525.957	1.0	go	0.668	Go_O	1.0
528.481	0.65	stop	0.642	Go_O	0.0
531.005	1.0	go	0.744	Go_X	1.0
533.529	1.0	go	0.864	Go_X	1.0
536.053	1.0	go	0.684	Go_O	1.0
538.578	1.0	go	0.729	Go_O	1.0
541.102	1.0	go	0.814	Go_X	1.0
543.626	1.0	go	0.909	Go_O	1.0
546.15	1.0	go	0.887	Go_X	1.0
548.675	0.6	stop	0.0	Go_X	1.0
551.216	1.0	go	0.983	Go_O	1.0
553.74	1.0	go	0.933	Go_X	1.0
556.264	1.0	go	0.881	Go_O	1.0
558.788	1.0	go	0.881	Go_X	1.0
561.312	0.65	stop	0.601	Go_O	0.0
563.837	1.0	go	0.661	Go_X	1.0
566.361	0.6	stop	0.0	Go_X	1.0
568.885	1.0	go	0.0	Go_O	0.0
571.409	1.0	go	0.617	Go_X	1.0
573.934	0.65	stop	0.653	Go_O	0.0
576.458	1.0	go	0.775	Go_O	1.0
578.982	1.0	go	0.906	Go_X	1.0
581.506	1.0	go	0.771	Go_O	1.0
584.03	1.0	go	0.884	Go_X	1.0
586.555	1.0	go	0.895	Go_O	1.0
589.079	1.0	go	0.673	Go_X	1.0
591.603	1.0	go	0.0	Go_O	0.0
594.127	1.0	go	0.0	Go_X	0.0
596.652	1.0	go	0.637	Go_O	1.0
599.176	1.0	go	0.779	Go_X	1.0
601.7	0.6	stop	0.634	Go_X	0.0
604.224	1.0	go	0.83	Go_O	1.0
606.748	1.0	go	0.832	Go_X	1.0
609.273	0.55	stop	0.0	Go_O	1.0
611.797	1.0	go	0.713	Go_O	1.0
614.321	0.6	stop	0.518	Go_X	0.0
616.845	1.0	go	0.841	Go_X	1.0
619.37	1.0	go	0.946	Go_O	1.0
621.894	0.55	stop	0.0	Go_O	1.0
624.418	1.0	go	0.606	Go_O	1.0
626.942	0.6	stop	0.0	Go_X	1.0
629.466	1.0	go	0.759	Go_X	1.0
631.991	1.0	go	0.0	Go_O	0.0
634.515	1.0	go	0.912	Go_X	1.0
637.039	0.65	stop	0.522	Go_O	0.0
639.563	1.0	go	0.0	Go_O	0.0
642.088	1.0	go	0.0	Go_X	0.0
644.612	1.0	go	0.901	Go_X	1.0
647.136	1.0	go	0.747	Go_O	1.0
649.66	0.6	stop	0.0	Go_X	1.0
652.184	1.0	go	0.866	Go_X	1.0
654.709	1.0	go	0.0	Go_O	0.0
657.233	0.65	stop	0.0	Go_O	1.0
659.757	1.0	go	0.853	Go_O	1.0
662.281	1.0	go	0.794	Go_X	1.0
664.806	1.0	go	0.0	Go_O	0.0
667.33	1.0	go	0.712	Go_X	1.0
669.854	0.7	stop	0.775	Go_X	0.0
672.378	1.0	go	0.0	Go_O	0.0
674.903	0.65	stop	0.693	Go_O	0.0
677.427	1.0	go	0.957	Go_X	1.0
679.951	1.0	go	0.751	Go_O	1.0
682.475	0.6	stop	0.671	Go_X	0.0
684.999	1.0	go	0.756	Go_X	0.0
687.524	1.0	go	0.576	Go_X	1.0
690.048	1.0	go	0.67	Go_O	1.0
692.572	1.0	go	0.917	Go_X	1.0
695.096	0.55	stop	0.0	Go_O	1.0
697.621	1.0	go	0.893	Go_O	1.0
700.145	0.6	stop	0.0	Go_X	1.0
702.669	1.0	go	0.927	Go_X	0.0
705.193	1.0	go	0.611	Go_O	1.0
707.717	1.0	go	0.868	Go_X	1.0
710.242	1.0	go	0.0	Go_O	0.0
712.766	1.0	go	0.577	Go_O	1.0
715.29	1.0	go	0.721	Go_X	1.0
717.814	0.65	stop	0.515	Go_O	0.0
720.339	1.0	go	0.611	Go_X	1.0
722.863	1.0	go	0.865	Go_O	1.0
725.387	0.6	stop	0.0	Go_X	1.0
727.911	1.0	go	0.619	Go_O	1.0
730.435	1.0	go	0.861	Go_X	1.0
732.96	0.65	stop	0.45	Go_O	0.0
735.484	1.0	go	0.841	Go_X	1.0
738.008	1.0	go	0.874	Go_O	0.0
740.532	1.0	go	0.0	Go_X	0.0
743.057	1.0	go	0.71	Go_O	1.0
745.581	0.6	stop	0.0	Go_X	1.0
748.105	1.0	go	0.811	Go_X	1.0
750.629	0.65	stop	0.613	Go_O	0.0
753.153	1.0	go	0.607	Go_O	1.0
755.678	1.0	go	0.847	Go_X	1.0
758.202	1.0	go	0.805	Go_O	1.0
760.726	1.0	go	0.91	Go_X	1.0
763.25	1.0	go	0.535	Go_O	1.0
765.775	0.6	stop	0.748	Go_X	0.0
768.299	1.0	go	0.546	Go_O	1.0
770.823	1.0	go	0.821	Go_X	1.0
773.347	0.55	stop	0.0	Go_O	1.0
775.871	0.6	stop	0.71	Go_X	0.0
778.412	1.0	go	0.919	Go_O	1.0
780.937	1.0	go	0.843	Go_X	1.0
783.461	1.0	go	0.0	Go_O	0.0
785.985	1.0	go	0.789	Go_X	1.0
788.509	0.55	stop	0.639	Go_O	0.0
791.034	1.0	go	0.605	Go_O	1.0
