onset	duration	trial_type	response_time	stim_file	accuracy
33.685	1.0	go	0.532	Go_O	1.0
36.218	1.0	go	0.422	Go_X	1.0
38.752	1.0	go	0.499	Go_X	1.0
41.285	1.0	go	0.389	Go_O	1.0
43.818	1.0	go	0.6	Go_X	1.0
46.352	1.0	go	0.496	Go_O	1.0
48.901	0.25	stopsuccess	0.0	Go_O	1.0
51.435	1.0	go	0.472	Go_X	1.0
53.968	0.3	stopfail	0.402	Go_X	0.0
56.501	1.0	go	0.623	Go_O	1.0
59.034	1.0	go	0.819	Go_X	1.0
61.568	1.0	go	0.349	Go_O	1.0
64.101	0.25	stopfail	0.556	Go_O	0.0
66.634	1.0	go	0.393	Go_X	1.0
69.168	1.0	go	0.779	Go_O	1.0
71.717	0.2	stopsuccess	0.0	Go_X	1.0
74.251	0.25	stopfail	0.314	Go_O	0.0
76.784	1.0	go	0.573	Go_O	1.0
79.317	1.0	go	0.392	Go_X	1.0
81.851	0.2	stopsuccess	0.0	Go_X	1.0
84.4	1.0	go	0.562	Go_O	1.0
86.934	1.0	go	0.705	Go_X	1.0
89.467	0.25	stopsuccess	0.0	Go_O	1.0
92.0	1.0	go	0.383	Go_O	1.0
94.533	1.0	go	0.402	Go_X	1.0
97.067	0.3	stopfail	0.965	Go_X	0.0
99.6	1.0	go	0.575	Go_O	1.0
102.133	1.0	go	0.37	Go_X	1.0
104.667	0.25	stopsuccess	0.0	Go_O	1.0
107.2	1.0	go	0.618	Go_O	1.0
109.733	1.0	go	0.46	Go_X	1.0
112.266	1.0	go	0.501	Go_O	1.0
114.8	1.0	go	0.574	Go_X	1.0
117.333	1.0	go	0.491	Go_X	1.0
119.866	0.3	stopsuccess	0.0	Go_X	1.0
122.399	1.0	go	0.597	Go_O	1.0
124.933	1.0	go	0.532	Go_O	1.0
127.466	1.0	go	0.487	Go_X	1.0
129.999	1.0	go	0.553	Go_X	1.0
132.532	1.0	go	0.739	Go_O	1.0
135.066	0.35	stopfail	0.483	Go_O	0.0
137.599	1.0	go	0.637	Go_O	1.0
140.132	1.0	go	0.398	Go_X	1.0
142.666	1.0	go	0.54	Go_X	1.0
145.215	1.0	go	0.435	Go_O	1.0
147.749	1.0	go	0.428	Go_X	1.0
150.282	1.0	go	0.432	Go_O	1.0
152.815	0.3	stopfail	0.428	Go_X	0.0
155.348	1.0	go	0.382	Go_O	1.0
157.882	1.0	go	0.324	Go_X	1.0
160.415	0.25	stopfail	0.316	Go_O	0.0
162.948	1.0	go	0.761	Go_X	1.0
165.482	0.2	stopsuccess	0.0	Go_X	1.0
168.015	0.25	stopfail	0.394	Go_O	0.0
170.548	1.0	go	0.536	Go_O	1.0
173.081	1.0	go	0.453	Go_X	1.0
175.615	1.0	go	0.575	Go_O	1.0
178.148	1.0	go	0.357	Go_X	1.0
180.681	0.2	stopsuccess	0.0	Go_X	1.0
183.214	1.0	go	0.388	Go_O	1.0
185.748	0.25	stopsuccess	0.0	Go_O	1.0
188.281	1.0	go	0.481	Go_X	1.0
190.814	1.0	go	0.464	Go_O	1.0
193.347	1.0	go	0.62	Go_O	1.0
195.881	1.0	go	0.446	Go_X	1.0
198.414	1.0	go	0.639	Go_X	1.0
200.947	1.0	go	0.343	Go_O	1.0
203.48	1.0	go	0.344	Go_X	1.0
206.014	1.0	go	0.397	Go_O	1.0
208.547	1.0	go	0.424	Go_X	1.0
211.08	0.3	stopfail	0.443	Go_X	0.0
213.614	1.0	go	0.317	Go_O	1.0
216.147	1.0	go	0.454	Go_X	1.0
218.68	1.0	go	0.548	Go_O	1.0
221.213	0.25	stopsuccess	0.0	Go_O	1.0
223.747	1.0	go	0.611	Go_O	1.0
226.28	1.0	go	0.544	Go_X	1.0
228.813	1.0	go	0.419	Go_X	0.0
231.346	1.0	go	0.587	Go_O	1.0
233.88	1.0	go	0.462	Go_X	1.0
236.413	1.0	go	0.331	Go_O	1.0
238.946	0.3	stopfail	0.338	Go_X	0.0
241.479	1.0	go	0.516	Go_X	1.0
244.013	1.0	go	0.394	Go_O	1.0
246.546	0.25	stopsuccess	0.0	Go_O	1.0
249.079	1.0	go	0.806	Go_O	1.0
251.613	1.0	go	0.814	Go_X	1.0
254.162	0.3	stopsuccess	0.0	Go_X	1.0
256.696	1.0	go	0.634	Go_X	1.0
259.229	0.35	stopsuccess	0.0	Go_O	1.0
261.762	1.0	go	0.732	Go_O	1.0
264.295	1.0	go	0.724	Go_O	0.0
266.829	1.0	go	0.668	Go_X	1.0
269.362	1.0	go	0.656	Go_O	1.0
271.895	1.0	go	0.592	Go_X	1.0
274.429	0.4	stopfail	0.65	Go_X	0.0
276.962	0.35	stopfail	0.516	Go_O	0.0
279.495	1.0	go	0.608	Go_O	1.0
282.028	1.0	go	0.386	Go_X	1.0
284.562	0.3	stopfail	0.335	Go_X	0.0
287.095	1.0	go	0.344	Go_O	1.0
289.628	1.0	go	0.381	Go_X	1.0
292.161	1.0	go	0.38	Go_O	1.0
294.695	1.0	go	0.697	Go_X	1.0
297.228	1.0	go	0.606	Go_O	1.0
299.761	1.0	go	0.395	Go_X	1.0
302.294	0.25	stopsuccess	0.0	Go_O	1.0
304.828	1.0	go	0.829	Go_O	1.0
307.361	1.0	go	0.41	Go_X	1.0
309.894	1.0	go	0.606	Go_X	1.0
312.427	1.0	go	0.619	Go_O	1.0
314.961	1.0	go	0.635	Go_O	1.0
317.494	0.3	stopfail	0.424	Go_X	0.0
320.027	1.0	go	0.538	Go_X	1.0
322.561	1.0	go	0.495	Go_X	1.0
325.094	1.0	go	0.456	Go_O	1.0
327.627	1.0	go	0.56	Go_O	1.0
330.16	0.25	stopsuccess	0.0	Go_O	1.0
332.694	1.0	go	0.618	Go_X	1.0
335.227	1.0	go	0.579	Go_O	1.0
337.76	0.3	stopfail	0.186	Go_X	0.0
340.293	1.0	go	0.877	Go_X	1.0
342.827	0.25	stopsuccess	0.0	Go_O	1.0
345.36	1.0	go	0.406	Go_O	1.0
347.893	1.0	go	0.376	Go_X	1.0
350.426	1.0	go	0.453	Go_O	1.0
352.96	1.0	go	0.424	Go_X	0.0
355.493	1.0	go	0.507	Go_O	1.0
358.026	1.0	go	0.586	Go_X	1.0
360.56	1.0	go	0.382	Go_X	1.0
363.109	0.3	stopfail	0.389	Go_X	0.0
365.643	1.0	go	0.536	Go_O	1.0
368.176	1.0	go	0.71	Go_O	1.0
370.709	1.0	go	0.901	Go_X	1.0
373.242	0.25	stopsuccess	0.0	Go_O	1.0
375.776	1.0	go	0.467	Go_O	1.0
378.309	1.0	go	0.355	Go_X	1.0
380.842	1.0	go	0.515	Go_X	1.0
383.376	1.0	go	0.44	Go_O	1.0
385.925	0.3	stopfail	0.435	Go_X	0.0
388.459	1.0	go	0.379	Go_X	0.0
390.992	1.0	go	0.607	Go_O	1.0
393.525	0.25	stopsuccess	0.0	Go_O	1.0
396.059	1.0	go	0.599	Go_O	1.0
398.608	1.0	go	0.554	Go_X	1.0
401.142	0.3	stopfail	0.564	Go_X	0.0
403.675	1.0	go	0.611	Go_O	1.0
406.208	1.0	go	0.569	Go_X	1.0
408.742	0.25	stopsuccess	0.0	Go_O	1.0
411.291	1.0	go	0.564	Go_X	1.0
413.825	1.0	go	0.485	Go_O	1.0
416.358	1.0	go	0.488	Go_X	1.0
418.891	1.0	go	0.506	Go_O	1.0
421.424	1.0	go	0.714	Go_O	1.0
423.958	1.0	go	0.413	Go_X	1.0
426.491	0.3	stopsuccess	0.0	Go_X	1.0
429.024	1.0	go	0.536	Go_O	1.0
431.558	0.35	stopsuccess	0.0	Go_O	1.0
434.091	1.0	go	0.63	Go_X	1.0
436.624	1.0	go	0.971	Go_X	0.0
439.157	1.0	go	0.624	Go_O	1.0
441.691	1.0	go	0.505	Go_X	1.0
444.224	1.0	go	0.556	Go_O	1.0
446.757	0.4	stopfail	0.466	Go_X	0.0
449.29	1.0	go	0.67	Go_X	1.0
451.824	1.0	go	0.45	Go_O	1.0
454.357	1.0	go	0.574	Go_X	1.0
456.89	0.35	stopsuccess	0.0	Go_O	1.0
459.423	0.4	stopsuccess	0.0	Go_X	1.0
461.957	0.45	stopsuccess	0.0	Go_O	1.0
464.49	1.0	go	0.432	Go_O	1.0
467.023	0.5	stopsuccess	0.0	Go_X	1.0
469.557	1.0	go	0.437	Go_X	1.0
472.106	1.0	go	0.523	Go_O	1.0
474.64	1.0	go	0.536	Go_X	1.0
477.173	1.0	go	0.755	Go_O	1.0
479.706	1.0	go	0.893	Go_X	1.0
482.239	1.0	go	0.625	Go_O	1.0
484.773	1.0	go	0.416	Go_X	1.0
487.306	1.0	go	0.312	Go_O	1.0
489.839	0.55	stopfail	0.625	Go_O	0.0
492.373	1.0	go	0.591	Go_X	1.0
494.922	1.0	go	0.566	Go_O	1.0
497.456	0.5	stopfail	0.499	Go_X	0.0
499.989	1.0	go	0.637	Go_X	1.0
502.522	1.0	go	0.388	Go_O	1.0
505.056	1.0	go	0.547	Go_X	1.0
507.605	1.0	go	0.481	Go_O	1.0
510.139	1.0	go	0.461	Go_O	1.0
512.672	0.45	stopfail	0.483	Go_O	0.0
515.205	1.0	go	0.517	Go_X	1.0
517.739	1.0	go	0.557	Go_X	1.0
520.288	1.0	go	0.523	Go_O	1.0
522.822	0.4	stopfail	0.409	Go_X	0.0
525.355	1.0	go	0.485	Go_O	1.0
527.888	0.35	stopsuccess	0.0	Go_O	1.0
530.421	1.0	go	0.856	Go_X	1.0
532.955	1.0	go	0.482	Go_O	1.0
535.488	1.0	go	0.846	Go_X	1.0
538.021	1.0	go	0.701	Go_X	1.0
540.555	1.0	go	0.585	Go_O	1.0
543.088	1.0	go	0.505	Go_X	1.0
545.621	1.0	go	0.517	Go_O	1.0
548.154	0.4	stopfail	0.514	Go_X	0.0
550.688	1.0	go	0.826	Go_X	1.0
553.221	1.0	go	0.525	Go_O	1.0
555.754	1.0	go	0.625	Go_X	1.0
558.287	1.0	go	0.475	Go_O	1.0
560.821	0.35	stopfail	0.75	Go_O	0.0
563.354	1.0	go	0.443	Go_O	1.0
565.887	0.3	stopfail	0.644	Go_X	0.0
568.42	1.0	go	0.644	Go_X	1.0
570.954	1.0	go	0.532	Go_X	1.0
573.487	0.25	stopsuccess	0.0	Go_O	1.0
576.02	1.0	go	0.433	Go_O	1.0
578.553	1.0	go	0.616	Go_X	1.0
581.087	1.0	go	0.0	Go_O	0.0
583.62	1.0	go	0.664	Go_X	1.0
586.153	1.0	go	0.557	Go_O	1.0
588.687	1.0	go	0.628	Go_X	1.0
591.22	1.0	go	0.548	Go_O	1.0
593.753	1.0	go	0.572	Go_O	1.0
596.286	1.0	go	0.569	Go_X	1.0
598.82	1.0	go	0.533	Go_O	1.0
601.353	0.3	stopfail	0.423	Go_X	0.0
603.886	1.0	go	0.623	Go_X	1.0
606.419	1.0	go	0.513	Go_X	1.0
608.953	0.25	stopfail	0.565	Go_O	0.0
611.486	1.0	go	0.725	Go_O	1.0
614.019	0.2	stopsuccess	0.0	Go_X	1.0
616.552	1.0	go	0.951	Go_O	1.0
619.086	1.0	go	0.0	Go_X	0.0
621.619	0.25	stopfail	0.37	Go_O	0.0
624.152	1.0	go	0.832	Go_X	0.0
626.686	0.2	stopsuccess	0.0	Go_X	1.0
629.235	1.0	go	0.636	Go_O	1.0
631.769	1.0	go	0.641	Go_X	1.0
634.302	1.0	go	0.457	Go_O	1.0
636.835	0.25	stopsuccess	0.0	Go_O	1.0
639.368	1.0	go	0.582	Go_O	1.0
641.902	1.0	go	0.624	Go_X	1.0
644.435	1.0	go	0.426	Go_O	1.0
646.968	1.0	go	0.527	Go_X	1.0
649.502	0.3	stopsuccess	0.0	Go_X	1.0
652.035	1.0	go	0.0	Go_X	0.0
654.568	1.0	go	0.492	Go_O	1.0
657.101	0.35	stopfail	0.607	Go_O	0.0
659.635	1.0	go	0.881	Go_X	1.0
662.168	1.0	go	0.485	Go_O	1.0
664.701	1.0	go	0.0	Go_X	0.0
667.234	1.0	go	0.568	Go_O	1.0
669.768	0.3	stopsuccess	0.0	Go_X	1.0
672.301	1.0	go	0.616	Go_X	1.0
674.834	0.35	stopsuccess	0.0	Go_O	1.0
677.367	1.0	go	0.828	Go_O	1.0
679.901	1.0	go	0.49	Go_X	1.0
682.434	0.4	stopfail	0.604	Go_X	0.0
684.967	1.0	go	0.465	Go_O	1.0
687.5	1.0	go	0.698	Go_O	1.0
690.034	1.0	go	0.556	Go_X	1.0
692.567	1.0	go	0.554	Go_X	1.0
695.1	0.35	stopfail	0.482	Go_O	0.0
697.634	1.0	go	0.68	Go_O	1.0
700.167	0.3	stopsuccess	0.0	Go_X	1.0
702.7	1.0	go	0.529	Go_O	1.0
705.233	1.0	go	0.699	Go_X	1.0
707.767	1.0	go	0.0	Go_O	0.0
710.3	1.0	go	0.506	Go_X	1.0
712.833	1.0	go	0.67	Go_X	1.0
715.366	1.0	go	0.582	Go_O	1.0
717.9	0.35	stopsuccess	0.0	Go_O	1.0
720.433	1.0	go	0.751	Go_X	1.0
722.966	1.0	go	0.555	Go_O	1.0
725.499	0.4	stopfail	0.476	Go_X	0.0
728.033	1.0	go	0.619	Go_X	1.0
730.566	1.0	go	0.571	Go_O	1.0
733.099	0.35	stopfail	0.684	Go_O	0.0
735.632	1.0	go	0.576	Go_X	1.0
738.166	1.0	go	0.575	Go_O	1.0
740.699	1.0	go	0.451	Go_X	1.0
743.232	1.0	go	0.387	Go_O	1.0
745.766	0.3	stopfail	0.667	Go_X	0.0
748.299	1.0	go	0.469	Go_O	1.0
750.832	0.25	stopsuccess	0.0	Go_O	1.0
753.365	1.0	go	0.47	Go_X	1.0
755.899	1.0	go	0.882	Go_O	1.0
758.432	1.0	go	0.885	Go_X	1.0
760.965	1.0	go	0.488	Go_O	1.0
763.498	1.0	go	0.686	Go_X	1.0
766.032	0.3	stopsuccess	0.0	Go_X	1.0
768.565	1.0	go	0.542	Go_O	1.0
771.098	1.0	go	0.563	Go_X	1.0
773.631	0.35	stopfail	0.7	Go_O	0.0
776.165	0.3	stopfail	0.592	Go_X	0.0
778.698	1.0	go	0.691	Go_O	1.0
781.231	1.0	go	0.0	Go_X	0.0
783.765	1.0	go	0.0	Go_X	0.0
786.314	1.0	go	0.668	Go_O	1.0
788.848	0.25	stopfail	0.654	Go_O	0.0
791.381	1.0	go	0.65	Go_O	1.0
