onset	duration	trial_type	response_time	stim_file	accuracy
87.599	1.0	go	0.834	Go_O	1.0
90.132	1.0	go	0.426	Go_X	1.0
92.665	1.0	go	0.493	Go_O	1.0
95.198	1.0	go	0.477	Go_X	1.0
97.732	1.0	go	0.483	Go_O	1.0
100.265	1.0	go	0.609	Go_X	1.0
102.798	0.25	stop	0.51	Go_O	0.0
105.331	1.0	go	0.629	Go_X	1.0
107.865	0.2	stop	0.247	Go_X	0.0
110.398	1.0	go	0.382	Go_O	1.0
112.931	1.0	go	0.441	Go_O	1.0
115.464	1.0	go	0.777	Go_X	1.0
117.998	0.15	stop	0.0	Go_O	1.0
120.531	1.0	go	0.403	Go_X	1.0
123.064	1.0	go	0.292	Go_O	1.0
125.598	0.2	stop	0.539	Go_X	0.0
128.147	0.15	stop	0.0	Go_O	1.0
130.681	1.0	go	0.786	Go_X	1.0
133.214	1.0	go	0.541	Go_O	1.0
135.747	0.2	stop	0.0	Go_X	1.0
138.281	1.0	go	0.431	Go_O	1.0
140.83	1.0	go	0.496	Go_X	1.0
143.364	0.25	stop	0.0	Go_O	1.0
145.897	1.0	go	0.584	Go_X	1.0
148.43	1.0	go	0.63	Go_O	1.0
150.963	0.3	stop	0.0	Go_X	1.0
153.497	1.0	go	0.4	Go_O	1.0
156.03	1.0	go	0.542	Go_X	1.0
158.563	0.35	stop	0.0	Go_O	1.0
161.097	1.0	go	0.628	Go_O	1.0
163.646	1.0	go	0.545	Go_X	1.0
166.18	1.0	go	0.508	Go_O	1.0
168.713	1.0	go	0.535	Go_X	1.0
171.246	1.0	go	0.576	Go_X	1.0
173.78	0.4	stop	0.472	Go_X	0.0
176.329	1.0	go	0.485	Go_O	1.0
178.863	1.0	go	0.507	Go_X	1.0
181.396	1.0	go	0.492	Go_O	1.0
183.929	1.0	go	0.55	Go_X	1.0
186.463	1.0	go	0.497	Go_O	1.0
189.012	0.35	stop	0.0	Go_O	1.0
191.546	1.0	go	0.574	Go_O	1.0
194.079	1.0	go	0.698	Go_X	0.0
196.612	1.0	go	0.702	Go_X	0.0
199.146	1.0	go	0.543	Go_O	1.0
201.695	1.0	go	0.488	Go_X	1.0
204.229	1.0	go	0.491	Go_O	1.0
206.762	0.4	stop	0.602	Go_X	0.0
209.295	1.0	go	0.427	Go_O	1.0
211.828	1.0	go	0.704	Go_X	1.0
214.362	0.35	stop	0.64	Go_O	0.0
216.895	1.0	go	0.531	Go_O	1.0
219.428	0.3	stop	0.0	Go_X	1.0
221.962	0.35	stop	0.473	Go_O	0.0
224.511	1.0	go	0.734	Go_X	1.0
227.045	1.0	go	0.682	Go_O	1.0
229.578	1.0	go	0.497	Go_X	1.0
232.111	1.0	go	0.648	Go_X	0.0
234.645	0.3	stop	0.584	Go_X	0.0
237.194	1.0	go	0.488	Go_O	1.0
239.728	0.25	stop	0.0	Go_O	1.0
242.261	1.0	go	0.465	Go_X	1.0
244.794	1.0	go	0.479	Go_O	1.0
247.328	1.0	go	0.511	Go_O	1.0
249.877	1.0	go	0.607	Go_X	1.0
252.411	1.0	go	0.0	Go_X	0.0
254.944	1.0	go	0.42	Go_O	1.0
257.477	1.0	go	0.414	Go_O	1.0
260.01	1.0	go	0.419	Go_X	1.0
262.544	1.0	go	0.298	Go_X	0.0
265.077	0.3	stop	0.511	Go_X	0.0
267.61	1.0	go	0.39	Go_O	1.0
270.144	1.0	go	0.764	Go_O	1.0
272.693	1.0	go	0.58	Go_X	1.0
275.227	0.25	stop	0.0	Go_O	1.0
277.76	1.0	go	0.543	Go_O	1.0
280.293	1.0	go	0.99	Go_X	1.0
282.827	1.0	go	0.385	Go_O	1.0
285.376	1.0	go	0.523	Go_X	1.0
287.91	1.0	go	0.414	Go_O	1.0
290.443	1.0	go	0.313	Go_X	1.0
292.976	0.3	stop	0.58	Go_X	0.0
295.51	1.0	go	0.354	Go_O	1.0
298.059	1.0	go	0.506	Go_X	1.0
300.593	0.25	stop	0.0	Go_O	1.0
303.126	1.0	go	0.602	Go_X	1.0
305.659	1.0	go	0.388	Go_O	1.0
308.192	0.3	stop	0.602	Go_X	0.0
310.726	1.0	go	0.436	Go_O	1.0
313.259	0.25	stop	0.0	Go_O	1.0
315.792	1.0	go	0.706	Go_X	0.0
318.326	1.0	go	0.582	Go_X	1.0
320.859	1.0	go	0.455	Go_O	1.0
323.392	1.0	go	0.0	Go_X	0.0
325.925	1.0	go	0.303	Go_O	1.0
328.459	0.3	stop	0.491	Go_X	0.0
330.992	0.25	stop	0.384	Go_O	0.0
333.525	1.0	go	0.558	Go_O	1.0
336.058	1.0	go	0.0	Go_X	0.0
338.592	0.2	stop	0.432	Go_X	0.0
341.125	1.0	go	0.0	Go_X	0.0
343.658	1.0	go	0.0	Go_O	0.0
346.191	1.0	go	0.327	Go_X	0.0
348.725	1.0	go	0.476	Go_O	1.0
351.258	1.0	go	0.384	Go_O	1.0
353.791	1.0	go	0.402	Go_X	1.0
356.324	0.15	stop	0.0	Go_O	1.0
358.858	1.0	go	0.672	Go_X	1.0
361.391	1.0	go	0.411	Go_O	1.0
363.924	1.0	go	0.649	Go_O	0.0
366.458	1.0	go	0.419	Go_X	1.0
368.991	1.0	go	0.384	Go_O	1.0
371.524	0.2	stop	0.491	Go_X	0.0
374.057	1.0	go	0.746	Go_X	1.0
376.591	1.0	go	0.457	Go_X	1.0
379.124	1.0	go	0.621	Go_O	1.0
381.657	1.0	go	0.0	Go_O	0.0
384.19	0.15	stop	0.0	Go_O	1.0
386.724	1.0	go	0.496	Go_X	1.0
389.257	1.0	go	0.778	Go_X	1.0
391.79	0.2	stop	0.0	Go_X	1.0
394.323	1.0	go	0.955	Go_O	1.0
396.857	0.25	stop	0.304	Go_O	0.0
399.39	1.0	go	0.441	Go_O	1.0
401.923	1.0	go	0.543	Go_X	1.0
404.456	1.0	go	0.452	Go_X	1.0
406.99	1.0	go	0.375	Go_O	1.0
409.523	1.0	go	0.503	Go_X	1.0
412.056	1.0	go	0.56	Go_O	1.0
414.59	1.0	go	0.544	Go_X	1.0
417.123	0.2	stop	0.483	Go_X	0.0
419.656	1.0	go	0.436	Go_O	1.0
422.189	1.0	go	0.551	Go_O	1.0
424.723	1.0	go	0.654	Go_X	1.0
427.256	0.15	stop	0.0	Go_O	1.0
429.789	1.0	go	0.621	Go_X	1.0
432.322	1.0	go	0.431	Go_O	1.0
434.856	1.0	go	0.502	Go_X	1.0
437.389	1.0	go	0.4	Go_O	1.0
439.922	0.2	stop	0.0	Go_X	1.0
442.455	1.0	go	0.535	Go_O	1.0
444.989	1.0	go	0.384	Go_X	1.0
447.522	0.25	stop	0.237	Go_O	0.0
450.055	1.0	go	0.573	Go_O	1.0
452.589	1.0	go	0.773	Go_X	1.0
455.138	0.2	stop	0.0	Go_X	1.0
457.672	1.0	go	0.415	Go_O	0.0
460.205	1.0	go	0.783	Go_X	1.0
462.738	0.25	stop	0.63	Go_O	0.0
465.272	1.0	go	0.432	Go_O	1.0
467.821	1.0	go	0.62	Go_X	0.0
470.355	1.0	go	0.709	Go_O	1.0
472.888	1.0	go	0.703	Go_X	1.0
475.421	1.0	go	0.563	Go_O	1.0
477.954	1.0	go	0.886	Go_X	1.0
480.488	0.2	stop	0.0	Go_X	1.0
483.021	1.0	go	0.0	Go_O	0.0
485.554	0.25	stop	0.0	Go_O	1.0
488.088	1.0	go	0.659	Go_X	1.0
490.637	1.0	go	0.553	Go_O	1.0
493.171	1.0	go	0.561	Go_X	1.0
495.704	1.0	go	0.451	Go_O	0.0
498.237	1.0	go	0.637	Go_X	0.0
500.771	0.3	stop	0.407	Go_X	0.0
503.32	1.0	go	0.949	Go_O	0.0
505.854	1.0	go	0.263	Go_X	1.0
508.387	1.0	go	0.493	Go_X	1.0
510.92	0.25	stop	0.478	Go_O	0.0
513.454	0.2	stop	0.0	Go_X	1.0
516.003	0.25	stop	0.332	Go_O	0.0
518.537	1.0	go	0.883	Go_O	1.0
521.07	0.2	stop	0.0	Go_X	1.0
523.603	1.0	go	0.602	Go_X	1.0
526.136	1.0	go	0.569	Go_O	1.0
528.67	1.0	go	0.73	Go_O	1.0
531.203	1.0	go	0.574	Go_X	1.0
533.736	1.0	go	0.577	Go_X	1.0
536.27	1.0	go	0.478	Go_O	1.0
538.803	1.0	go	0.523	Go_O	1.0
541.336	1.0	go	0.779	Go_X	1.0
543.869	0.25	stop	0.0	Go_O	1.0
546.403	1.0	go	0.447	Go_O	1.0
548.936	1.0	go	0.341	Go_X	1.0
551.469	0.3	stop	0.0	Go_X	1.0
554.002	1.0	go	0.306	Go_O	1.0
556.536	1.0	go	0.501	Go_X	1.0
559.069	1.0	go	0.597	Go_O	1.0
561.602	1.0	go	0.56	Go_X	1.0
564.135	1.0	go	0.636	Go_X	1.0
566.669	0.35	stop	0.424	Go_O	0.0
569.202	1.0	go	0.469	Go_O	0.0
571.735	1.0	go	0.711	Go_X	1.0
574.268	1.0	go	0.609	Go_O	1.0
576.802	0.3	stop	0.0	Go_X	1.0
579.335	1.0	go	0.652	Go_O	1.0
581.868	0.35	stop	0.507	Go_O	0.0
584.402	1.0	go	0.694	Go_X	1.0
586.935	1.0	go	0.686	Go_O	1.0
589.468	1.0	go	0.626	Go_X	1.0
592.001	1.0	go	0.548	Go_X	1.0
594.535	1.0	go	0.535	Go_O	1.0
597.068	1.0	go	0.598	Go_O	1.0
599.601	1.0	go	0.619	Go_X	1.0
602.134	0.3	stop	0.742	Go_X	0.0
604.668	1.0	go	0.641	Go_X	0.0
607.201	1.0	go	0.595	Go_O	1.0
609.734	1.0	go	0.936	Go_O	0.0
612.267	1.0	go	0.0	Go_X	0.0
614.801	0.25	stop	0.423	Go_O	0.0
617.334	1.0	go	0.752	Go_O	0.0
619.867	0.2	stop	0.37	Go_X	0.0
622.4	1.0	go	0.0	Go_X	0.0
624.934	1.0	go	0.551	Go_O	1.0
627.467	0.15	stop	0.0	Go_O	1.0
630.0	1.0	go	0.408	Go_X	1.0
632.534	1.0	go	0.633	Go_X	1.0
635.067	1.0	go	0.54	Go_O	1.0
637.6	1.0	go	0.638	Go_O	1.0
640.133	1.0	go	0.642	Go_X	0.0
642.667	1.0	go	0.0	Go_O	0.0
645.2	1.0	go	0.351	Go_X	1.0
647.733	1.0	go	0.567	Go_O	1.0
650.266	1.0	go	0.482	Go_X	1.0
652.8	1.0	go	0.591	Go_O	1.0
655.333	0.2	stop	0.0	Go_X	1.0
657.866	1.0	go	0.634	Go_X	1.0
660.399	1.0	go	0.0	Go_X	0.0
662.933	0.25	stop	0.329	Go_O	0.0
665.466	1.0	go	0.612	Go_O	0.0
667.999	0.2	stop	0.36	Go_X	0.0
670.533	1.0	go	0.493	Go_X	1.0
673.082	1.0	go	0.626	Go_O	1.0
675.616	0.15	stop	0.0	Go_O	1.0
678.149	1.0	go	0.657	Go_X	1.0
680.682	0.2	stop	0.0	Go_X	1.0
683.215	1.0	go	0.56	Go_O	1.0
685.749	1.0	go	0.424	Go_X	1.0
688.282	1.0	go	0.653	Go_O	0.0
690.815	0.25	stop	0.0	Go_O	1.0
693.349	1.0	go	0.885	Go_X	0.0
695.882	1.0	go	0.512	Go_O	0.0
698.415	1.0	go	0.54	Go_O	1.0
700.948	1.0	go	0.552	Go_X	0.0
703.482	0.3	stop	0.455	Go_X	0.0
706.015	1.0	go	0.518	Go_O	1.0
708.548	1.0	go	0.515	Go_X	1.0
711.081	0.25	stop	0.0	Go_O	1.0
713.615	1.0	go	0.498	Go_O	1.0
716.148	1.0	go	0.524	Go_X	1.0
718.681	1.0	go	0.399	Go_O	1.0
721.214	1.0	go	0.0	Go_X	0.0
723.748	0.3	stop	0.349	Go_X	0.0
726.281	1.0	go	0.595	Go_X	1.0
728.814	0.25	stop	0.0	Go_O	1.0
731.347	1.0	go	0.5	Go_O	1.0
733.881	1.0	go	0.496	Go_O	1.0
736.414	0.3	stop	0.0	Go_X	1.0
738.947	1.0	go	0.508	Go_X	1.0
741.481	1.0	go	0.783	Go_O	1.0
744.014	1.0	go	0.445	Go_X	1.0
746.547	1.0	go	0.407	Go_X	0.0
749.08	0.35	stop	0.129	Go_O	0.0
751.614	1.0	go	0.481	Go_O	1.0
754.147	0.3	stop	0.468	Go_X	0.0
756.68	1.0	go	0.5	Go_X	1.0
759.213	1.0	go	0.588	Go_O	1.0
761.747	1.0	go	0.55	Go_O	1.0
764.28	1.0	go	0.665	Go_X	1.0
766.813	1.0	go	0.637	Go_O	1.0
769.346	1.0	go	0.573	Go_X	1.0
771.88	0.25	stop	0.391	Go_O	0.0
774.413	1.0	go	0.582	Go_O	1.0
776.946	1.0	go	0.554	Go_X	1.0
779.48	0.2	stop	0.0	Go_X	1.0
782.029	1.0	go	0.427	Go_O	1.0
784.563	1.0	go	0.556	Go_X	1.0
787.096	0.25	stop	0.0	Go_O	1.0
789.629	1.0	go	0.746	Go_X	1.0
792.162	1.0	go	0.44	Go_O	1.0
794.696	1.0	go	0.644	Go_O	0.0
797.229	1.0	go	0.856	Go_X	1.0
799.762	0.3	stop	0.637	Go_X	0.0
802.296	1.0	go	0.514	Go_O	1.0
804.829	0.25	stop	0.0	Go_O	1.0
807.362	1.0	go	0.638	Go_X	1.0
809.895	1.0	go	0.584	Go_O	1.0
812.429	1.0	go	0.589	Go_X	1.0
814.962	1.0	go	0.554	Go_X	1.0
817.495	1.0	go	0.866	Go_O	0.0
820.028	0.3	stop	0.468	Go_X	0.0
822.562	1.0	go	0.484	Go_O	1.0
825.095	1.0	go	0.705	Go_X	1.0
827.628	0.25	stop	0.603	Go_O	0.0
830.161	0.2	stop	0.0	Go_X	1.0
832.695	1.0	go	0.0	Go_X	0.0
835.228	1.0	go	0.486	Go_O	1.0
837.761	1.0	go	0.62	Go_O	1.0
840.294	1.0	go	0.641	Go_X	1.0
842.828	0.25	stop	0.0	Go_O	1.0
845.361	1.0	go	0.435	Go_O	1.0
