onset	duration	trial_type	response_time	stim_file	accuracy
61.764	1.0	go	0.647	Go_O	1.0
64.288	1.0	go	0.328	Go_X	1.0
66.813	1.0	go	0.369	Go_X	1.0
69.337	1.0	go	0.32	Go_O	1.0
71.861	1.0	go	0.256	Go_X	1.0
74.385	1.0	go	0.254	Go_O	1.0
76.909	0.25	stop	0.324	Go_O	0.0
79.434	1.0	go	0.183	Go_X	1.0
81.958	0.2	stop	0.0	Go_X	1.0
84.482	1.0	go	0.228	Go_O	1.0
87.006	1.0	go	0.078	Go_O	0.0
89.53	1.0	go	0.279	Go_X	1.0
92.054	0.25	stop	0.295	Go_O	0.0
94.579	1.0	go	0.311	Go_X	1.0
97.103	1.0	go	0.227	Go_O	1.0
99.627	0.2	stop	0.0	Go_X	1.0
102.151	0.25	stop	0.202	Go_O	0.0
104.675	1.0	go	0.444	Go_O	1.0
107.2	1.0	go	0.336	Go_X	1.0
109.724	0.2	stop	0.328	Go_X	0.0
112.248	1.0	go	0.248	Go_O	1.0
114.772	1.0	go	0.645	Go_X	1.0
117.296	0.15	stop	0.234	Go_O	0.0
119.821	1.0	go	0.362	Go_X	1.0
122.345	1.0	go	0.338	Go_O	1.0
124.869	0.1	stop	0.0	Go_X	1.0
127.393	1.0	go	0.392	Go_O	1.0
129.917	1.0	go	0.329	Go_X	1.0
132.442	0.15	stop	0.0	Go_O	1.0
134.966	1.0	go	0.38	Go_X	0.0
137.49	1.0	go	0.417	Go_O	1.0
140.014	1.0	go	0.258	Go_X	1.0
142.538	1.0	go	0.607	Go_O	1.0
145.063	1.0	go	0.376	Go_O	1.0
147.587	0.2	stop	0.296	Go_X	0.0
150.111	1.0	go	0.398	Go_X	1.0
152.635	1.0	go	0.525	Go_O	1.0
155.159	1.0	go	0.347	Go_X	1.0
157.683	1.0	go	0.42	Go_X	1.0
160.208	1.0	go	0.355	Go_O	1.0
162.732	0.15	stop	0.0	Go_O	1.0
165.256	1.0	go	0.348	Go_O	1.0
167.78	1.0	go	0.323	Go_X	1.0
170.304	1.0	go	0.521	Go_O	1.0
172.829	1.0	go	0.478	Go_X	1.0
175.353	1.0	go	0.408	Go_X	1.0
177.877	1.0	go	0.497	Go_O	1.0
180.401	0.2	stop	0.0	Go_X	1.0
182.925	1.0	go	0.252	Go_O	1.0
185.45	1.0	go	0.379	Go_X	1.0
187.974	0.25	stop	0.0	Go_O	1.0
190.498	1.0	go	0.562	Go_O	1.0
193.022	0.3	stop	0.556	Go_X	0.0
195.546	0.25	stop	0.0	Go_O	1.0
198.071	1.0	go	0.281	Go_X	1.0
200.611	1.0	go	0.356	Go_O	1.0
203.136	1.0	go	0.88	Go_X	1.0
205.66	1.0	go	0.369	Go_O	1.0
208.184	0.3	stop	0.243	Go_X	0.0
210.708	1.0	go	0.162	Go_X	0.0
213.232	0.25	stop	0.29	Go_O	0.0
215.757	1.0	go	0.395	Go_X	1.0
218.281	1.0	go	0.178	Go_O	1.0
220.805	1.0	go	0.371	Go_X	1.0
223.329	1.0	go	0.518	Go_O	1.0
225.853	1.0	go	0.374	Go_X	1.0
228.378	1.0	go	0.474	Go_O	1.0
230.902	1.0	go	0.637	Go_O	1.0
233.426	1.0	go	0.466	Go_X	1.0
235.95	1.0	go	0.58	Go_O	1.0
238.474	0.2	stop	0.501	Go_X	0.0
240.999	1.0	go	0.434	Go_X	1.0
243.523	1.0	go	0.359	Go_O	1.0
246.047	1.0	go	0.53	Go_X	0.0
248.571	0.15	stop	0.0	Go_O	1.0
251.095	1.0	go	0.484	Go_O	0.0
253.62	1.0	go	0.543	Go_X	0.0
256.144	1.0	go	0.648	Go_X	1.0
258.668	1.0	go	0.828	Go_O	0.0
261.192	1.0	go	0.411	Go_O	1.0
263.716	1.0	go	0.722	Go_X	1.0
266.24	0.2	stop	0.0	Go_X	1.0
268.765	1.0	go	0.281	Go_O	1.0
271.289	1.0	go	0.312	Go_X	1.0
273.813	0.25	stop	0.0	Go_O	1.0
276.337	1.0	go	0.338	Go_O	1.0
278.861	1.0	go	0.246	Go_X	1.0
281.386	0.3	stop	0.0	Go_X	1.0
283.91	1.0	go	0.358	Go_O	1.0
286.434	0.35	stop	0.439	Go_O	0.0
288.958	1.0	go	0.327	Go_X	1.0
291.482	1.0	go	0.457	Go_O	1.0
294.007	1.0	go	0.474	Go_X	1.0
296.531	1.0	go	0.418	Go_O	1.0
299.055	1.0	go	0.53	Go_X	1.0
301.579	0.3	stop	0.454	Go_X	0.0
304.103	0.25	stop	0.339	Go_O	0.0
306.628	1.0	go	0.405	Go_X	1.0
309.152	1.0	go	0.453	Go_O	1.0
311.676	0.2	stop	0.0	Go_X	1.0
314.2	1.0	go	0.448	Go_O	1.0
316.724	1.0	go	0.433	Go_X	1.0
319.249	1.0	go	0.514	Go_X	1.0
321.773	1.0	go	0.41	Go_O	1.0
324.297	1.0	go	0.397	Go_O	1.0
326.821	1.0	go	0.369	Go_X	1.0
329.345	0.25	stop	0.0	Go_O	1.0
331.869	1.0	go	0.509	Go_X	1.0
334.394	1.0	go	0.259	Go_O	1.0
336.918	1.0	go	0.284	Go_X	1.0
339.442	1.0	go	0.46	Go_O	1.0
341.966	1.0	go	0.571	Go_O	1.0
344.49	0.3	stop	0.347	Go_X	0.0
347.015	1.0	go	0.499	Go_X	1.0
349.539	1.0	go	0.442	Go_X	1.0
352.063	1.0	go	0.282	Go_O	1.0
354.587	1.0	go	0.571	Go_O	1.0
357.111	0.25	stop	0.0	Go_O	1.0
359.636	1.0	go	0.356	Go_X	1.0
362.16	1.0	go	0.338	Go_O	1.0
364.684	0.3	stop	0.0	Go_X	1.0
367.208	1.0	go	0.336	Go_X	0.0
369.732	0.35	stop	0.332	Go_O	0.0
372.257	1.0	go	0.433	Go_X	1.0
374.781	1.0	go	0.427	Go_O	1.0
377.305	1.0	go	0.53	Go_O	1.0
379.829	1.0	go	0.798	Go_X	1.0
382.353	1.0	go	0.0	Go_O	0.0
384.878	1.0	go	0.476	Go_X	1.0
387.402	1.0	go	0.311	Go_O	1.0
389.926	0.3	stop	0.268	Go_X	0.0
392.45	1.0	go	0.127	Go_X	0.0
394.974	1.0	go	0.281	Go_X	1.0
397.498	1.0	go	0.284	Go_O	1.0
400.023	0.25	stop	0.34	Go_O	0.0
402.547	1.0	go	0.468	Go_X	1.0
405.071	1.0	go	0.41	Go_O	1.0
407.595	1.0	go	0.367	Go_X	1.0
410.119	1.0	go	0.398	Go_O	1.0
412.644	0.2	stop	0.0	Go_X	1.0
415.168	1.0	go	0.325	Go_X	1.0
417.692	1.0	go	0.397	Go_O	1.0
420.216	0.25	stop	0.498	Go_O	0.0
422.74	1.0	go	0.342	Go_X	1.0
425.265	1.0	go	0.369	Go_O	1.0
427.789	0.2	stop	0.0	Go_X	1.0
430.313	1.0	go	0.262	Go_O	1.0
432.837	1.0	go	0.309	Go_X	1.0
435.361	0.25	stop	0.456	Go_O	0.0
437.886	1.0	go	0.174	Go_X	1.0
440.41	1.0	go	0.455	Go_O	1.0
442.934	1.0	go	0.323	Go_X	1.0
445.458	1.0	go	0.297	Go_O	0.0
447.982	1.0	go	0.473	Go_O	1.0
450.507	1.0	go	0.475	Go_X	1.0
453.031	0.2	stop	0.305	Go_X	0.0
455.555	1.0	go	0.306	Go_O	1.0
458.079	0.15	stop	0.0	Go_O	1.0
460.603	1.0	go	0.507	Go_X	1.0
463.127	1.0	go	0.302	Go_X	1.0
465.652	1.0	go	0.413	Go_O	1.0
468.176	1.0	go	0.636	Go_X	1.0
470.7	1.0	go	0.541	Go_O	1.0
473.224	0.2	stop	0.0	Go_X	1.0
475.748	1.0	go	0.266	Go_X	0.0
478.273	1.0	go	0.538	Go_O	1.0
480.797	1.0	go	0.409	Go_X	1.0
483.321	0.25	stop	0.419	Go_O	0.0
485.845	0.2	stop	0.201	Go_X	0.0
488.369	0.15	stop	0.276	Go_O	0.0
490.894	1.0	go	0.337	Go_O	0.0
493.418	0.1	stop	0.0	Go_X	1.0
495.942	1.0	go	0.329	Go_O	1.0
498.466	1.0	go	0.531	Go_X	1.0
500.99	1.0	go	0.459	Go_X	1.0
503.515	1.0	go	0.564	Go_O	1.0
506.039	1.0	go	0.209	Go_O	0.0
508.563	1.0	go	0.498	Go_X	1.0
511.087	1.0	go	0.673	Go_O	0.0
513.611	1.0	go	0.502	Go_X	0.0
516.136	0.15	stop	0.0	Go_O	1.0
518.66	1.0	go	0.712	Go_O	1.0
521.184	1.0	go	0.233	Go_X	1.0
523.708	0.2	stop	0.371	Go_X	0.0
526.232	1.0	go	0.716	Go_X	1.0
528.756	1.0	go	0.39	Go_O	1.0
531.281	1.0	go	0.373	Go_O	1.0
533.805	1.0	go	0.471	Go_X	1.0
536.329	1.0	go	0.712	Go_X	1.0
538.853	0.15	stop	0.0	Go_O	1.0
541.377	1.0	go	0.415	Go_O	0.0
543.902	1.0	go	0.559	Go_X	1.0
546.426	1.0	go	0.278	Go_O	1.0
548.95	0.2	stop	0.271	Go_X	0.0
551.474	1.0	go	0.388	Go_O	1.0
553.998	0.15	stop	0.0	Go_O	1.0
556.523	1.0	go	0.432	Go_X	1.0
559.047	1.0	go	0.398	Go_O	1.0
561.571	1.0	go	0.357	Go_X	1.0
564.095	1.0	go	0.403	Go_X	1.0
566.619	1.0	go	0.332	Go_O	1.0
569.144	1.0	go	0.825	Go_X	1.0
571.668	1.0	go	0.293	Go_O	1.0
574.192	0.2	stop	0.193	Go_X	0.0
576.716	1.0	go	0.347	Go_O	1.0
579.24	1.0	go	0.308	Go_X	1.0
581.765	1.0	go	0.363	Go_O	1.0
584.289	1.0	go	0.382	Go_X	1.0
586.813	0.15	stop	0.0	Go_O	1.0
589.337	1.0	go	0.299	Go_X	1.0
591.861	0.2	stop	0.0	Go_X	1.0
594.385	1.0	go	0.47	Go_O	1.0
596.91	1.0	go	0.603	Go_X	1.0
599.434	0.25	stop	0.188	Go_O	0.0
601.958	1.0	go	0.069	Go_O	0.0
604.482	1.0	go	0.547	Go_X	1.0
607.006	1.0	go	0.468	Go_O	1.0
609.531	1.0	go	0.724	Go_O	1.0
612.055	1.0	go	0.468	Go_X	1.0
614.579	1.0	go	0.413	Go_O	1.0
617.103	1.0	go	0.446	Go_X	1.0
619.627	1.0	go	0.525	Go_X	1.0
622.152	1.0	go	0.462	Go_O	1.0
624.676	1.0	go	0.198	Go_X	1.0
627.2	0.2	stop	0.236	Go_X	0.0
629.724	1.0	go	0.249	Go_O	1.0
632.248	1.0	go	0.369	Go_X	1.0
634.773	0.15	stop	0.0	Go_O	1.0
637.297	1.0	go	0.595	Go_O	0.0
639.821	0.2	stop	0.0	Go_X	1.0
642.345	1.0	go	0.716	Go_O	0.0
644.869	1.0	go	0.636	Go_X	1.0
647.393	0.25	stop	0.285	Go_O	0.0
649.918	1.0	go	0.368	Go_X	1.0
652.442	0.2	stop	0.0	Go_X	1.0
654.966	1.0	go	0.421	Go_O	1.0
657.49	1.0	go	0.518	Go_X	1.0
660.014	1.0	go	0.515	Go_O	1.0
662.539	0.25	stop	0.516	Go_O	0.0
665.063	1.0	go	0.685	Go_X	0.0
667.587	1.0	go	0.463	Go_O	1.0
670.111	1.0	go	0.299	Go_X	1.0
672.635	1.0	go	0.298	Go_O	1.0
675.16	0.2	stop	0.0	Go_X	1.0
677.684	1.0	go	0.44	Go_X	1.0
680.208	1.0	go	0.385	Go_O	1.0
682.732	0.25	stop	0.0	Go_O	1.0
685.256	1.0	go	0.386	Go_X	1.0
687.781	1.0	go	0.602	Go_O	1.0
690.305	1.0	go	0.41	Go_O	1.0
692.829	1.0	go	0.373	Go_X	0.0
695.353	0.3	stop	0.37	Go_X	0.0
697.877	1.0	go	0.386	Go_O	1.0
700.402	0.25	stop	0.381	Go_O	0.0
702.926	1.0	go	0.354	Go_X	0.0
705.45	1.0	go	0.378	Go_O	0.0
707.974	0.2	stop	0.0	Go_X	1.0
710.498	1.0	go	0.431	Go_X	1.0
713.023	1.0	go	0.496	Go_O	1.0
715.547	1.0	go	0.597	Go_X	1.0
718.071	1.0	go	0.281	Go_X	0.0
720.595	0.25	stop	0.0	Go_O	1.0
723.119	1.0	go	0.234	Go_O	0.0
725.643	0.3	stop	0.0	Go_X	1.0
728.168	1.0	go	0.459	Go_O	1.0
730.692	1.0	go	0.268	Go_X	1.0
733.216	1.0	go	0.411	Go_X	1.0
735.74	1.0	go	0.341	Go_O	1.0
738.264	1.0	go	0.421	Go_X	0.0
740.789	1.0	go	0.533	Go_O	1.0
743.313	0.35	stop	0.471	Go_O	0.0
745.837	1.0	go	0.981	Go_O	1.0
748.361	1.0	go	0.602	Go_X	0.0
750.885	0.3	stop	0.502	Go_X	0.0
753.41	1.0	go	0.532	Go_O	0.0
755.934	1.0	go	0.575	Go_X	0.0
758.458	0.25	stop	0.0	Go_O	1.0
760.982	1.0	go	0.716	Go_O	0.0
763.506	1.0	go	0.562	Go_X	0.0
766.031	1.0	go	0.718	Go_O	1.0
768.555	1.0	go	0.382	Go_X	1.0
771.079	0.3	stop	0.545	Go_X	0.0
773.603	1.0	go	0.523	Go_X	1.0
776.127	0.25	stop	0.0	Go_O	1.0
778.652	1.0	go	0.472	Go_O	1.0
781.176	1.0	go	0.399	Go_X	1.0
783.7	1.0	go	0.529	Go_O	1.0
786.224	1.0	go	0.841	Go_X	1.0
788.748	1.0	go	0.513	Go_O	1.0
791.272	0.3	stop	0.511	Go_X	0.0
793.797	1.0	go	0.317	Go_X	0.0
796.321	1.0	go	0.28	Go_O	1.0
798.845	0.25	stop	0.381	Go_O	0.0
801.369	0.2	stop	0.147	Go_X	0.0
803.893	1.0	go	0.372	Go_X	1.0
806.418	1.0	go	0.454	Go_O	1.0
808.942	1.0	go	0.583	Go_X	1.0
811.466	1.0	go	0.629	Go_O	1.0
813.99	0.15	stop	0.0	Go_O	1.0
816.514	1.0	go	0.446	Go_O	1.0
