onset	duration	trial_type	response_time	stim_file	accuracy
38.676	1.0	go	0.0	Go_X	0.0
41.234	1.0	go	0.424	Go_O	1.0
43.758	1.0	go	0.524	Go_O	1.0
46.283	1.0	go	0.495	Go_X	1.0
48.807	1.0	go	0.381	Go_O	1.0
51.331	1.0	go	0.403	Go_X	1.0
53.855	0.25	stopfail	0.319	Go_O	0.0
56.379	1.0	go	0.568	Go_O	1.0
58.904	0.2	stopsuccess	0.0	Go_X	1.0
61.428	1.0	go	0.514	Go_X	1.0
63.952	1.0	go	0.474	Go_O	1.0
66.493	1.0	go	0.437	Go_X	1.0
69.017	0.25	stopsuccess	0.0	Go_O	1.0
71.542	1.0	go	0.38	Go_X	1.0
74.066	1.0	go	0.385	Go_O	1.0
76.59	0.3	stopfail	0.357	Go_X	0.0
79.114	0.25	stopsuccess	0.0	Go_O	1.0
81.638	1.0	go	0.607	Go_O	1.0
84.163	1.0	go	0.344	Go_X	1.0
86.687	0.3	stopsuccess	0.0	Go_X	1.0
89.211	1.0	go	0.419	Go_O	1.0
91.735	1.0	go	0.338	Go_X	1.0
94.26	0.35	stopsuccess	0.0	Go_O	1.0
96.784	1.0	go	0.5	Go_X	1.0
99.308	1.0	go	0.519	Go_O	1.0
101.832	0.4	stopfail	0.399	Go_X	0.0
104.356	1.0	go	0.588	Go_X	1.0
106.881	1.0	go	0.407	Go_O	1.0
109.405	0.35	stopsuccess	0.0	Go_O	1.0
111.929	1.0	go	0.617	Go_X	1.0
114.453	1.0	go	0.514	Go_O	1.0
116.978	1.0	go	0.502	Go_X	1.0
119.502	1.0	go	0.458	Go_O	1.0
122.026	1.0	go	0.456	Go_O	1.0
124.55	0.4	stopfail	0.363	Go_X	0.0
127.074	1.0	go	0.743	Go_X	1.0
129.599	1.0	go	0.465	Go_X	1.0
132.123	1.0	go	0.421	Go_O	1.0
134.647	1.0	go	0.59	Go_O	1.0
137.171	1.0	go	0.501	Go_X	1.0
139.696	0.35	stopfail	0.424	Go_O	0.0
142.22	1.0	go	0.71	Go_X	1.0
144.744	1.0	go	0.615	Go_O	1.0
147.268	1.0	go	0.546	Go_O	1.0
149.792	1.0	go	0.431	Go_X	1.0
152.317	1.0	go	0.311	Go_O	1.0
154.841	1.0	go	0.377	Go_X	1.0
157.365	0.3	stopfail	0.416	Go_X	0.0
159.889	1.0	go	0.342	Go_O	1.0
162.414	1.0	go	0.489	Go_X	1.0
164.938	0.25	stopsuccess	0.0	Go_O	1.0
167.462	1.0	go	0.755	Go_O	1.0
169.986	0.3	stopsuccess	0.0	Go_X	1.0
172.51	0.35	stopsuccess	0.0	Go_O	1.0
175.035	1.0	go	0.501	Go_X	1.0
177.559	1.0	go	0.623	Go_X	1.0
180.083	1.0	go	0.549	Go_O	1.0
182.607	1.0	go	0.664	Go_O	1.0
185.132	0.4	stopsuccess	0.0	Go_X	1.0
187.656	1.0	go	0.656	Go_X	1.0
190.18	0.45	stopsuccess	0.0	Go_O	1.0
192.704	1.0	go	0.481	Go_X	1.0
195.229	1.0	go	0.35	Go_O	1.0
197.753	1.0	go	0.587	Go_O	1.0
200.277	1.0	go	0.54	Go_X	1.0
202.801	1.0	go	0.514	Go_O	1.0
205.325	1.0	go	0.335	Go_X	1.0
207.85	1.0	go	0.418	Go_O	1.0
210.374	1.0	go	0.354	Go_X	1.0
212.898	1.0	go	0.3	Go_O	1.0
215.422	0.5	stopfail	0.441	Go_X	0.0
217.947	1.0	go	0.607	Go_X	1.0
220.471	1.0	go	0.677	Go_X	1.0
222.995	1.0	go	0.657	Go_O	1.0
225.519	0.45	stopfail	0.463	Go_O	0.0
228.043	1.0	go	0.581	Go_X	1.0
230.568	1.0	go	0.363	Go_O	1.0
233.092	1.0	go	0.373	Go_O	1.0
235.616	1.0	go	0.645	Go_X	1.0
238.14	1.0	go	0.473	Go_X	1.0
240.665	1.0	go	0.658	Go_O	1.0
243.189	0.4	stopfail	0.459	Go_X	0.0
245.713	1.0	go	0.523	Go_X	1.0
248.237	1.0	go	0.447	Go_O	1.0
250.761	0.35	stopsuccess	0.0	Go_O	1.0
253.286	1.0	go	0.568	Go_X	1.0
255.81	1.0	go	0.529	Go_O	1.0
258.334	0.4	stopfail	0.438	Go_X	0.0
260.858	1.0	go	0.529	Go_O	1.0
263.383	0.35	stopfail	0.408	Go_O	0.0
265.907	1.0	go	0.313	Go_X	1.0
268.431	1.0	go	0.453	Go_X	1.0
270.955	1.0	go	0.389	Go_O	1.0
273.479	1.0	go	0.64	Go_X	1.0
276.006	1.0	go	0.354	Go_O	1.0
278.528	0.3	stopfail	0.375	Go_X	0.0
281.052	0.25	stopfail	0.336	Go_O	0.0
283.576	1.0	go	0.509	Go_X	1.0
286.101	1.0	go	0.351	Go_O	1.0
288.625	0.2	stopsuccess	0.0	Go_X	1.0
291.149	1.0	go	0.481	Go_O	1.0
293.673	1.0	go	0.591	Go_X	1.0
296.197	1.0	go	0.639	Go_X	1.0
298.722	1.0	go	0.461	Go_O	1.0
301.246	1.0	go	0.484	Go_X	1.0
303.77	1.0	go	0.476	Go_O	1.0
306.294	0.25	stopsuccess	0.0	Go_O	1.0
308.819	1.0	go	0.905	Go_O	1.0
311.343	1.0	go	0.45	Go_X	1.0
313.867	1.0	go	0.344	Go_O	1.0
316.391	1.0	go	0.259	Go_X	1.0
318.916	1.0	go	0.466	Go_X	1.0
321.44	0.3	stopfail	0.414	Go_X	0.0
323.964	1.0	go	0.26	Go_O	1.0
326.488	1.0	go	0.523	Go_X	1.0
329.012	1.0	go	0.436	Go_O	1.0
331.537	1.0	go	0.55	Go_O	0.0
334.061	0.25	stopsuccess	0.0	Go_O	1.0
336.585	1.0	go	0.377	Go_X	1.0
339.109	1.0	go	0.471	Go_X	1.0
341.634	0.3	stopfail	0.385	Go_X	0.0
344.158	1.0	go	0.376	Go_O	1.0
346.682	0.25	stopsuccess	0.0	Go_O	1.0
349.206	1.0	go	0.362	Go_X	1.0
351.73	1.0	go	0.596	Go_O	1.0
354.255	1.0	go	0.652	Go_O	1.0
356.779	1.0	go	0.551	Go_X	1.0
359.303	1.0	go	0.284	Go_O	1.0
361.827	1.0	go	0.39	Go_X	1.0
364.352	1.0	go	0.334	Go_O	1.0
366.876	0.3	stopfail	0.469	Go_X	0.0
369.4	1.0	go	0.39	Go_X	1.0
371.924	1.0	go	0.796	Go_X	1.0
374.448	1.0	go	0.64	Go_O	1.0
376.973	0.25	stopsuccess	0.0	Go_O	1.0
379.497	1.0	go	0.528	Go_O	1.0
382.021	1.0	go	0.606	Go_X	1.0
384.545	1.0	go	0.465	Go_O	1.0
387.07	1.0	go	0.327	Go_X	1.0
389.594	0.3	stopsuccess	0.0	Go_X	1.0
392.118	1.0	go	0.648	Go_X	1.0
394.642	1.0	go	0.494	Go_O	1.0
397.166	0.35	stopsuccess	0.0	Go_O	1.0
399.691	1.0	go	0.371	Go_O	1.0
402.215	1.0	go	0.443	Go_X	1.0
404.739	0.4	stopfail	0.398	Go_X	0.0
407.263	1.0	go	0.53	Go_X	1.0
409.788	1.0	go	0.0	Go_O	0.0
412.312	0.35	stopfail	0.416	Go_O	0.0
414.836	1.0	go	0.284	Go_X	1.0
417.36	1.0	go	0.393	Go_O	1.0
419.901	1.0	go	0.332	Go_O	0.0
422.425	1.0	go	0.319	Go_X	1.0
424.95	1.0	go	0.553	Go_X	1.0
427.474	1.0	go	0.365	Go_O	1.0
429.998	0.3	stopfail	0.409	Go_X	0.0
432.522	1.0	go	0.407	Go_X	1.0
435.047	0.25	stopfail	0.55	Go_O	0.0
437.571	1.0	go	0.455	Go_O	1.0
440.095	1.0	go	0.453	Go_O	1.0
442.619	1.0	go	0.525	Go_X	1.0
445.143	1.0	go	0.494	Go_O	0.0
447.668	1.0	go	0.322	Go_X	1.0
450.192	0.2	stopsuccess	0.0	Go_X	1.0
452.716	1.0	go	0.51	Go_O	1.0
455.24	1.0	go	0.526	Go_X	1.0
457.765	1.0	go	0.692	Go_X	0.0
460.289	0.25	stopsuccess	0.0	Go_O	1.0
462.813	0.3	stopfail	0.399	Go_X	0.0
465.337	0.25	stopsuccess	0.0	Go_O	1.0
467.861	1.0	go	0.545	Go_O	1.0
470.386	0.3	stopsuccess	0.0	Go_X	1.0
472.91	1.0	go	0.472	Go_X	1.0
475.434	1.0	go	0.656	Go_O	1.0
477.958	1.0	go	0.0	Go_X	0.0
480.483	1.0	go	0.357	Go_O	1.0
483.007	1.0	go	0.273	Go_O	0.0
485.531	1.0	go	0.443	Go_X	1.0
488.055	1.0	go	0.458	Go_X	1.0
490.58	1.0	go	0.408	Go_O	1.0
493.104	0.35	stopfail	0.503	Go_O	0.0
495.628	1.0	go	0.296	Go_X	1.0
498.152	1.0	go	0.459	Go_O	1.0
500.676	0.3	stopsuccess	0.0	Go_X	1.0
503.201	1.0	go	0.465	Go_X	1.0
505.725	1.0	go	0.503	Go_O	1.0
508.249	1.0	go	0.441	Go_X	1.0
510.773	1.0	go	0.905	Go_O	1.0
513.298	1.0	go	0.458	Go_X	1.0
515.822	0.35	stopfail	0.499	Go_O	0.0
518.346	1.0	go	0.351	Go_O	1.0
520.87	1.0	go	0.377	Go_O	1.0
523.394	1.0	go	0.451	Go_X	1.0
525.919	0.3	stopsuccess	0.0	Go_X	1.0
528.443	1.0	go	0.408	Go_O	1.0
530.967	0.35	stopsuccess	0.0	Go_O	1.0
533.491	1.0	go	0.32	Go_X	1.0
536.016	1.0	go	0.792	Go_X	1.0
538.54	1.0	go	0.502	Go_O	1.0
541.064	1.0	go	0.622	Go_O	1.0
543.588	1.0	go	0.641	Go_X	1.0
546.112	1.0	go	0.0	Go_O	0.0
548.637	1.0	go	0.0	Go_X	0.0
551.161	0.4	stopfail	0.43	Go_X	0.0
553.685	1.0	go	0.537	Go_X	1.0
556.209	1.0	go	0.548	Go_O	1.0
558.734	1.0	go	0.464	Go_X	1.0
561.258	1.0	go	0.598	Go_O	1.0
563.782	0.35	stopfail	0.412	Go_O	0.0
566.306	1.0	go	0.577	Go_O	1.0
568.83	0.3	stopsuccess	0.0	Go_X	1.0
571.355	1.0	go	0.457	Go_X	1.0
573.879	1.0	go	0.675	Go_O	1.0
576.403	0.35	stopfail	0.523	Go_O	0.0
578.927	1.0	go	0.395	Go_X	1.0
581.452	1.0	go	0.475	Go_O	1.0
583.976	1.0	go	0.517	Go_X	1.0
586.5	1.0	go	0.487	Go_X	1.0
589.024	1.0	go	0.444	Go_O	1.0
591.549	1.0	go	0.423	Go_X	1.0
594.073	1.0	go	0.0	Go_O	0.0
596.597	1.0	go	0.609	Go_X	1.0
599.121	1.0	go	0.877	Go_O	1.0
601.645	1.0	go	0.609	Go_X	1.0
604.17	0.3	stopsuccess	0.0	Go_X	1.0
606.694	1.0	go	0.417	Go_O	1.0
609.218	1.0	go	0.43	Go_X	1.0
611.742	0.35	stopfail	0.371	Go_O	0.0
614.267	1.0	go	0.0	Go_O	0.0
616.791	0.3	stopfail	0.433	Go_X	0.0
619.315	1.0	go	0.583	Go_X	1.0
621.839	1.0	go	0.327	Go_O	1.0
624.363	0.25	stopsuccess	0.0	Go_O	1.0
626.904	1.0	go	0.438	Go_X	1.0
629.429	0.3	stopsuccess	0.0	Go_X	1.0
631.953	1.0	go	0.0	Go_O	0.0
634.477	1.0	go	0.0	Go_O	0.0
637.001	1.0	go	0.0	Go_X	0.0
639.525	0.35	stopfail	0.789	Go_O	0.0
642.05	1.0	go	0.688	Go_O	1.0
644.574	1.0	go	0.504	Go_X	0.0
647.098	1.0	go	0.416	Go_O	1.0
649.622	1.0	go	0.512	Go_X	1.0
652.147	0.3	stopfail	0.386	Go_X	0.0
654.671	1.0	go	0.733	Go_X	1.0
657.195	1.0	go	0.535	Go_O	1.0
659.719	0.25	stopsuccess	0.0	Go_O	1.0
662.244	1.0	go	0.667	Go_X	1.0
664.768	1.0	go	0.692	Go_O	1.0
667.292	1.0	go	0.567	Go_X	1.0
669.816	1.0	go	0.0	Go_O	0.0
672.34	0.3	stopfail	0.317	Go_X	0.0
674.865	1.0	go	0.542	Go_O	1.0
677.389	0.25	stopsuccess	0.0	Go_O	1.0
679.913	1.0	go	0.488	Go_X	1.0
682.437	1.0	go	0.467	Go_X	1.0
684.962	0.3	stopsuccess	0.0	Go_X	1.0
687.486	1.0	go	0.327	Go_O	1.0
690.01	1.0	go	0.0	Go_O	0.0
692.534	1.0	go	0.477	Go_X	1.0
695.058	1.0	go	0.579	Go_O	1.0
697.583	0.35	stopfail	0.328	Go_O	0.0
700.107	1.0	go	0.401	Go_X	1.0
702.631	0.3	stopfail	0.415	Go_X	0.0
705.155	1.0	go	0.359	Go_O	1.0
707.68	1.0	go	0.581	Go_X	1.0
710.204	1.0	go	0.44	Go_O	1.0
712.728	1.0	go	0.468	Go_X	1.0
715.252	1.0	go	0.55	Go_O	1.0
717.776	1.0	go	0.278	Go_X	1.0
720.301	0.25	stopfail	0.42	Go_O	0.0
722.825	1.0	go	0.527	Go_X	1.0
725.349	1.0	go	0.598	Go_O	1.0
727.873	0.2	stopsuccess	0.0	Go_X	1.0
730.398	1.0	go	0.0	Go_O	0.0
732.922	1.0	go	0.0	Go_X	0.0
735.446	0.25	stopfail	0.334	Go_O	0.0
737.97	1.0	go	0.521	Go_X	1.0
740.494	1.0	go	0.423	Go_O	1.0
743.019	1.0	go	0.54	Go_O	1.0
745.543	1.0	go	0.335	Go_X	1.0
748.067	0.2	stopsuccess	0.0	Go_X	1.0
750.591	1.0	go	0.293	Go_O	1.0
753.116	0.25	stopfail	0.251	Go_O	0.0
755.64	1.0	go	0.726	Go_X	1.0
758.164	1.0	go	0.559	Go_O	1.0
760.688	1.0	go	0.398	Go_X	1.0
763.212	1.0	go	0.415	Go_O	1.0
765.737	1.0	go	0.459	Go_X	1.0
768.261	0.2	stopsuccess	0.0	Go_X	1.0
770.785	1.0	go	0.648	Go_X	1.0
773.309	1.0	go	0.383	Go_O	1.0
775.834	0.25	stopsuccess	0.0	Go_O	1.0
778.358	0.3	stopsuccess	0.0	Go_X	1.0
780.882	1.0	go	0.478	Go_O	1.0
783.406	1.0	go	0.5	Go_X	1.0
785.931	1.0	go	0.599	Go_X	1.0
788.455	1.0	go	0.655	Go_O	1.0
790.979	0.35	stopsuccess	0.0	Go_O	1.0
793.503	1.0	go	0.261	Go_O	0.0
