onset	duration	trial_type	response_time	stim_file	accuracy
0.5819999999999936	1.0	go	0.619	Go_O	1.0
3.165999999999997	1.0	go	0.469	Go_X	1.0
5.715000000000003	1.0	go	0.548	Go_X	1.0
8.248999999999995	1.0	go	0.598	Go_O	1.0
10.781999999999982	1.0	go	0.567	Go_O	1.0
13.314999999999998	1.0	go	0.4	Go_X	1.0
15.847999999999985	0.25	stopsuccess	0.0	Go_O	1.0
18.382000000000005	1.0	go	0.578	Go_O	1.0
20.914999999999992	0.3	stopfail	0.586	Go_X	0.0
23.448000000000008	1.0	go	0.76	Go_X	0.0
25.980999999999995	1.0	go	0.462	Go_O	1.0
28.514999999999986	1.0	go	0.569	Go_X	1.0
31.048000000000002	0.25	stopsuccess	0.0	Go_O	1.0
33.58099999999999	1.0	go	0.572	Go_X	1.0
36.114000000000004	1.0	go	0.673	Go_O	1.0
38.647999999999996	0.3	stopsuccess	0.0	Go_X	1.0
41.18099999999998	0.35	stopfail	0.455	Go_O	0.0
43.714	1.0	go	0.652	Go_O	1.0
46.246999999999986	1.0	go	0.605	Go_X	1.0
48.781000000000006	0.3	stopsuccess	0.0	Go_X	1.0
51.31399999999999	1.0	go	0.246	Go_O	1.0
53.84700000000001	1.0	go	0.471	Go_X	1.0
56.379999999999995	0.35	stopsuccess	0.0	Go_O	1.0
58.91399999999999	1.0	go	0.515	Go_O	1.0
61.447	1.0	go	0.481	Go_X	1.0
63.97999999999999	0.4	stopsuccess	0.0	Go_X	1.0
66.513	1.0	go	0.495	Go_O	1.0
69.047	1.0	go	0.776	Go_X	1.0
71.57999999999998	0.45	stopfail	0.547	Go_O	0.0
74.113	1.0	go	0.81	Go_O	1.0
76.64699999999999	1.0	go	0.539	Go_X	1.0
79.196	1.0	go	0.566	Go_O	1.0
81.72999999999999	1.0	go	0.762	Go_X	0.0
84.263	1.0	go	0.546	Go_O	1.0
86.79600000000002	0.4	stopfail	0.534	Go_X	0.0
89.32899999999998	1.0	go	0.594	Go_X	1.0
91.86299999999997	1.0	go	0.542	Go_X	1.0
94.39599999999999	1.0	go	0.667	Go_O	1.0
96.929	1.0	go	0.493	Go_O	1.0
99.46200000000002	1.0	go	0.633	Go_X	1.0
101.99600000000001	0.35	stopsuccess	0.0	Go_O	1.0
104.52899999999997	1.0	go	0.532	Go_O	1.0
107.06199999999998	1.0	go	0.648	Go_X	1.0
109.595	1.0	go	0.604	Go_X	1.0
112.12899999999999	1.0	go	0.729	Go_O	1.0
114.662	1.0	go	0.798	Go_O	1.0
117.19500000000002	1.0	go	0.581	Go_X	1.0
119.72799999999998	0.4	stopfail	0.727	Go_X	0.0
122.26199999999997	1.0	go	0.569	Go_O	1.0
124.79499999999999	1.0	go	0.905	Go_X	1.0
127.328	0.35	stopsuccess	0.0	Go_O	1.0
129.86100000000002	1.0	go	0.0	Go_X	0.0
132.395	0.4	stopsuccess	0.0	Go_X	1.0
134.92799999999997	0.45	stopfail	0.576	Go_O	0.0
137.46099999999998	1.0	go	0.507	Go_O	1.0
139.994	1.0	go	0.563	Go_O	1.0
142.528	1.0	go	0.533	Go_X	1.0
145.061	1.0	go	0.657	Go_X	1.0
147.59400000000002	0.4	stopsuccess	0.0	Go_X	1.0
150.12699999999998	1.0	go	0.607	Go_O	1.0
152.66099999999997	0.45	stopfail	0.501	Go_O	0.0
155.194	1.0	go	0.0	Go_O	0.0
157.727	1.0	go	0.861	Go_X	1.0
160.261	1.0	go	0.0	Go_X	0.0
162.80999999999997	1.0	go	0.861	Go_O	1.0
165.34400000000002	1.0	go	0.79	Go_X	1.0
167.87699999999998	1.0	go	0.469	Go_O	1.0
170.41	1.0	go	0.756	Go_O	1.0
172.943	1.0	go	0.597	Go_X	1.0
175.477	1.0	go	0.651	Go_O	1.0
178.01000000000002	0.4	stopsuccess	0.0	Go_X	1.0
180.54299999999998	1.0	go	0.637	Go_X	1.0
183.076	1.0	go	0.52	Go_O	1.0
185.60999999999999	1.0	go	0.727	Go_X	1.0
188.143	0.45	stopfail	0.63	Go_O	0.0
190.67600000000002	1.0	go	0.468	Go_X	1.0
193.20899999999997	1.0	go	0.595	Go_O	1.0
195.74299999999997	1.0	go	0.0	Go_X	0.0
198.27599999999998	1.0	go	0.808	Go_O	1.0
200.809	1.0	go	0.673	Go_O	1.0
203.342	1.0	go	0.0	Go_X	0.0
205.876	0.4	stopsuccess	0.0	Go_X	1.0
208.40900000000002	1.0	go	0.622	Go_X	1.0
210.94199999999998	1.0	go	0.648	Go_O	1.0
213.475	0.45	stopsuccess	0.0	Go_O	1.0
216.009	1.0	go	0.436	Go_X	1.0
218.542	1.0	go	0.57	Go_O	1.0
221.07500000000002	0.5	stopfail	0.523	Go_X	0.0
223.60799999999998	1.0	go	0.515	Go_X	1.0
226.14199999999997	0.45	stopfail	0.58	Go_O	0.0
228.67499999999998	1.0	go	0.584	Go_O	1.0
231.208	1.0	go	0.345	Go_X	1.0
233.742	1.0	go	0.508	Go_O	1.0
236.29099999999997	1.0	go	0.761	Go_X	1.0
238.82500000000002	1.0	go	0.551	Go_O	1.0
241.35799999999998	0.4	stopfail	0.544	Go_X	0.0
243.891	0.35	stopsuccess	0.0	Go_O	1.0
246.424	1.0	go	0.552	Go_O	1.0
248.958	1.0	go	0.0	Go_X	0.0
251.491	0.4	stopsuccess	0.0	Go_X	1.0
254.02399999999997	1.0	go	0.608	Go_X	1.0
256.557	1.0	go	0.568	Go_O	1.0
259.091	1.0	go	0.695	Go_O	1.0
261.624	1.0	go	0.729	Go_X	1.0
264.15700000000004	1.0	go	0.671	Go_O	1.0
266.68999999999994	1.0	go	0.555	Go_X	1.0
269.22400000000005	0.45	stopfail	0.569	Go_O	0.0
271.75699999999995	1.0	go	0.981	Go_X	1.0
274.28999999999996	1.0	go	0.896	Go_O	1.0
276.823	1.0	go	0.757	Go_X	1.0
279.35699999999997	1.0	go	0.549	Go_O	1.0
281.89	1.0	go	0.723	Go_X	1.0
284.423	0.4	stopsuccess	0.0	Go_X	1.0
286.956	1.0	go	0.389	Go_O	1.0
289.49	1.0	go	0.595	Go_O	1.0
292.023	1.0	go	0.662	Go_X	1.0
294.55600000000004	1.0	go	0.773	Go_O	1.0
297.08899999999994	0.45	stopfail	0.489	Go_O	0.0
299.62300000000005	1.0	go	0.546	Go_X	1.0
302.15599999999995	1.0	go	0.486	Go_O	1.0
304.68899999999996	0.4	stopsuccess	0.0	Go_X	1.0
307.222	1.0	go	0.646	Go_X	1.0
309.756	0.45	stopsuccess	0.0	Go_O	1.0
312.289	1.0	go	0.63	Go_X	1.0
314.822	1.0	go	0.95	Go_O	1.0
317.356	1.0	go	0.417	Go_X	1.0
319.905	1.0	go	0.672	Go_O	1.0
322.43899999999996	1.0	go	0.598	Go_X	1.0
324.972	1.0	go	0.747	Go_O	1.0
327.505	1.0	go	0.611	Go_X	1.0
330.038	0.5	stopfail	0.64	Go_X	0.0
332.572	1.0	go	0.616	Go_O	0.0
335.105	1.0	go	0.662	Go_X	1.0
337.63800000000003	1.0	go	0.468	Go_O	1.0
340.17099999999994	0.45	stopfail	0.492	Go_O	0.0
342.7049999999999	1.0	go	0.623	Go_O	1.0
345.23799999999994	1.0	go	0.606	Go_X	1.0
347.77099999999996	1.0	go	0.623	Go_O	1.0
350.304	1.0	go	0.698	Go_X	1.0
352.83799999999997	0.4	stopsuccess	0.0	Go_X	1.0
355.371	1.0	go	0.614	Go_O	1.0
357.904	1.0	go	0.731	Go_X	1.0
360.437	0.45	stopsuccess	0.0	Go_O	1.0
362.971	1.0	go	0.527	Go_O	1.0
365.504	1.0	go	0.884	Go_X	1.0
368.0369999999999	0.5	stopsuccess	0.0	Go_X	1.0
370.56999999999994	1.0	go	0.449	Go_O	1.0
373.1039999999999	1.0	go	0.721	Go_X	1.0
375.63699999999994	0.55	stopfail	0.768	Go_O	0.0
378.16999999999996	1.0	go	0.82	Go_X	1.0
380.703	1.0	go	0.475	Go_O	1.0
383.23699999999997	1.0	go	0.0	Go_O	0.0
385.77	1.0	go	0.779	Go_X	1.0
388.303	1.0	go	0.401	Go_X	1.0
390.836	1.0	go	0.855	Go_O	1.0
393.37	0.5	stopsuccess	0.0	Go_X	1.0
395.903	1.0	go	0.536	Go_O	1.0
398.4359999999999	0.55	stopfail	0.414	Go_O	0.0
400.96899999999994	1.0	go	0.471	Go_X	1.0
403.50299999999993	1.0	go	0.6	Go_X	1.0
406.03599999999994	1.0	go	0.577	Go_O	1.0
408.56899999999996	1.0	go	0.751	Go_X	1.0
411.10299999999995	1.0	go	0.703	Go_O	1.0
413.65199999999993	0.5	stopfail	0.577	Go_X	0.0
416.1859999999999	1.0	go	0.597	Go_X	1.0
418.71899999999994	1.0	go	0.521	Go_O	1.0
421.25199999999995	1.0	go	0.678	Go_X	1.0
423.78499999999997	0.45	stopfail	0.523	Go_O	0.0
426.31899999999996	0.4	stopfail	0.453	Go_X	0.0
428.852	0.35	stopsuccess	0.0	Go_O	1.0
431.385	1.0	go	0.602	Go_O	1.0
433.918	0.4	stopsuccess	0.0	Go_X	1.0
436.452	1.0	go	0.0	Go_X	0.0
438.985	1.0	go	0.648	Go_O	1.0
441.5179999999999	1.0	go	0.688	Go_O	1.0
444.05099999999993	1.0	go	0.791	Go_X	1.0
446.5849999999999	1.0	go	0.897	Go_X	1.0
449.11799999999994	1.0	go	0.879	Go_O	1.0
451.65099999999995	1.0	go	0.711	Go_O	1.0
454.18399999999997	1.0	go	0.664	Go_X	1.0
456.71799999999996	0.45	stopfail	0.573	Go_O	0.0
459.251	1.0	go	0.551	Go_O	1.0
461.784	1.0	go	0.578	Go_X	1.0
464.317	0.4	stopsuccess	0.0	Go_X	1.0
466.851	1.0	go	0.595	Go_X	1.0
469.384	1.0	go	0.617	Go_O	1.0
471.9169999999999	1.0	go	0.816	Go_O	1.0
474.451	1.0	go	0.808	Go_X	1.0
477.0	1.0	go	0.949	Go_X	0.0
479.534	0.45	stopsuccess	0.0	Go_O	1.0
482.067	1.0	go	0.728	Go_O	1.0
484.6	1.0	go	0.517	Go_O	1.0
487.1329999999999	1.0	go	0.585	Go_X	1.0
489.6669999999999	0.5	stopfail	0.613	Go_X	0.0
492.19999999999993	1.0	go	0.656	Go_O	1.0
494.73299999999995	0.45	stopsuccess	0.0	Go_O	1.0
497.26599999999996	1.0	go	0.497	Go_X	1.0
499.79999999999995	1.0	go	0.535	Go_X	1.0
502.33299999999997	1.0	go	0.738	Go_O	1.0
504.866	1.0	go	0.767	Go_O	0.0
507.399	1.0	go	0.794	Go_X	1.0
509.933	1.0	go	0.76	Go_X	1.0
512.466	1.0	go	0.848	Go_O	1.0
514.9989999999999	0.5	stopsuccess	0.0	Go_X	1.0
517.5319999999999	1.0	go	0.73	Go_O	1.0
520.0659999999999	1.0	go	0.716	Go_X	1.0
522.5989999999999	1.0	go	0.672	Go_X	1.0
525.132	1.0	go	0.863	Go_O	1.0
527.665	0.55	stopfail	0.437	Go_O	0.0
530.199	1.0	go	0.621	Go_O	0.0
532.732	0.5	stopfail	0.46	Go_X	0.0
535.265	1.0	go	0.5	Go_X	1.0
537.798	1.0	go	0.475	Go_O	1.0
540.332	0.45	stopfail	0.591	Go_O	0.0
542.865	1.0	go	0.843	Go_X	1.0
545.3979999999999	1.0	go	0.551	Go_O	1.0
547.932	1.0	go	0.983	Go_X	1.0
550.481	1.0	go	0.549	Go_O	1.0
553.015	1.0	go	0.448	Go_X	1.0
555.548	1.0	go	0.493	Go_O	1.0
558.081	1.0	go	0.571	Go_X	1.0
560.6139999999999	1.0	go	0.589	Go_X	1.0
563.1479999999999	1.0	go	0.553	Go_O	1.0
565.6809999999999	1.0	go	0.758	Go_O	1.0
568.2139999999999	0.4	stopfail	0.571	Go_X	0.0
570.747	1.0	go	0.81	Go_X	1.0
573.281	1.0	go	0.631	Go_O	1.0
575.814	0.35	stopsuccess	0.0	Go_O	1.0
578.347	1.0	go	0.624	Go_X	1.0
580.88	0.4	stopsuccess	0.0	Go_X	1.0
583.414	1.0	go	0.532	Go_O	1.0
585.947	1.0	go	0.628	Go_X	1.0
588.48	0.45	stopsuccess	0.0	Go_O	1.0
591.0129999999999	1.0	go	0.814	Go_X	1.0
593.5469999999999	0.5	stopfail	0.537	Go_X	0.0
596.0799999999999	1.0	go	0.446	Go_O	1.0
598.6129999999999	1.0	go	0.696	Go_X	1.0
601.146	1.0	go	0.501	Go_O	1.0
603.68	0.45	stopsuccess	0.0	Go_O	1.0
606.213	1.0	go	0.694	Go_X	1.0
608.746	1.0	go	0.517	Go_O	1.0
611.279	1.0	go	0.8	Go_O	1.0
613.813	1.0	go	0.808	Go_X	1.0
616.346	0.5	stopfail	0.518	Go_X	0.0
618.879	1.0	go	0.784	Go_X	1.0
621.4119999999999	1.0	go	0.676	Go_O	1.0
623.9459999999999	0.45	stopsuccess	0.0	Go_O	1.0
626.4789999999999	1.0	go	0.516	Go_O	1.0
629.012	1.0	go	0.513	Go_X	1.0
631.545	1.0	go	0.517	Go_X	1.0
634.079	1.0	go	0.0	Go_O	0.0
636.612	0.5	stopfail	0.39	Go_X	0.0
639.145	1.0	go	0.573	Go_O	1.0
641.679	0.45	stopfail	0.871	Go_O	0.0
644.228	1.0	go	0.806	Go_X	1.0
646.762	1.0	go	0.667	Go_O	1.0
649.295	0.4	stopsuccess	0.0	Go_X	1.0
651.828	1.0	go	0.947	Go_X	1.0
654.361	1.0	go	0.762	Go_O	1.0
656.895	1.0	go	0.622	Go_X	1.0
659.428	1.0	go	0.945	Go_O	1.0
661.961	0.45	stopsuccess	0.0	Go_O	1.0
664.4939999999999	1.0	go	0.498	Go_X	1.0
667.028	0.5	stopsuccess	0.0	Go_X	1.0
669.5609999999999	1.0	go	0.527	Go_X	1.0
672.0939999999999	1.0	go	0.571	Go_O	1.0
674.627	1.0	go	0.82	Go_O	1.0
677.161	1.0	go	0.562	Go_X	1.0
679.694	1.0	go	0.764	Go_O	1.0
682.227	1.0	go	0.644	Go_X	1.0
684.76	0.55	stopfail	0.591	Go_O	0.0
687.294	1.0	go	0.672	Go_O	0.0
689.827	1.0	go	0.0	Go_X	0.0
692.36	0.5	stopfail	0.457	Go_X	0.0
694.8929999999999	1.0	go	0.644	Go_X	1.0
697.427	1.0	go	0.864	Go_O	1.0
699.9599999999999	0.45	stopfail	0.562	Go_O	0.0
702.4929999999999	1.0	go	0.579	Go_O	1.0
705.026	1.0	go	0.526	Go_X	1.0
707.56	1.0	go	0.478	Go_X	1.0
710.093	1.0	go	0.452	Go_O	1.0
712.626	0.4	stopfail	0.492	Go_X	0.0
715.16	1.0	go	0.68	Go_X	1.0
717.709	0.35	stopfail	0.808	Go_O	0.0
720.2429999999999	1.0	go	0.461	Go_O	1.0
722.776	1.0	go	0.552	Go_O	1.0
725.309	1.0	go	0.518	Go_X	1.0
727.842	1.0	go	0.631	Go_O	1.0
730.376	1.0	go	0.448	Go_X	1.0
732.909	0.3	stopfail	0.432	Go_X	0.0
735.442	1.0	go	0.432	Go_O	1.0
737.975	1.0	go	0.504	Go_X	1.0
740.509	0.25	stopsuccess	0.0	Go_O	1.0
743.0419999999999	0.3	stopsuccess	0.0	Go_X	1.0
745.5749999999999	1.0	go	0.533	Go_O	1.0
748.108	1.0	go	0.0	Go_X	0.0
750.6419999999999	1.0	go	0.494	Go_X	0.0
753.175	1.0	go	0.392	Go_O	1.0
755.708	0.35	stopsuccess	0.0	Go_O	1.0
758.241	1.0	go	0.403	Go_X	1.0
