onset	duration	trial_type	response_time	stim_file	accuracy
0.5240000000000009	1.0	go	0.0	Go_X	0.0
3.048000000000002	1.0	go	0.768	Go_O	1.0
5.5730000000000075	1.0	go	0.449	Go_X	1.0
8.097000000000008	1.0	go	0.481	Go_O	1.0
10.62100000000001	1.0	go	0.679	Go_O	1.0
13.14500000000001	1.0	go	0.695	Go_X	1.0
15.670000000000002	0.25	stopsuccess	0.0	Go_O	1.0
18.194000000000003	1.0	go	0.629	Go_X	1.0
20.718000000000004	0.3	stopsuccess	0.0	Go_X	1.0
23.242000000000004	1.0	go	0.644	Go_O	1.0
25.766000000000005	1.0	go	0.696	Go_O	1.0
28.29100000000001	1.0	go	0.664	Go_X	1.0
30.815000000000012	0.35	stopsuccess	0.0	Go_O	1.0
33.33900000000001	1.0	go	0.641	Go_O	1.0
35.863	1.0	go	0.661	Go_X	1.0
38.387	0.4	stopsuccess	0.0	Go_X	1.0
40.912000000000006	0.45	stopsuccess	0.0	Go_O	1.0
43.43600000000001	1.0	go	0.564	Go_X	1.0
45.96000000000001	1.0	go	0.592	Go_O	1.0
48.48400000000001	0.5	stopsuccess	0.0	Go_X	1.0
51.009	1.0	go	0.623	Go_X	1.0
53.533	1.0	go	0.661	Go_O	1.0
56.057	0.55	stopfail	0.684	Go_O	0.0
58.58100000000002	1.0	go	0.601	Go_X	1.0
61.10500000000002	1.0	go	0.661	Go_O	1.0
63.629999999999995	0.5	stopfail	0.535	Go_X	0.0
66.154	1.0	go	0.498	Go_O	1.0
68.678	1.0	go	0.449	Go_X	1.0
71.202	0.45	stopfail	0.525	Go_O	0.0
73.726	1.0	go	0.42	Go_O	1.0
76.251	1.0	go	0.692	Go_X	1.0
78.775	1.0	go	0.731	Go_O	1.0
81.299	1.0	go	0.709	Go_X	1.0
83.82300000000001	1.0	go	0.517	Go_O	1.0
86.34800000000001	0.4	stopfail	0.419	Go_X	0.0
88.87200000000001	1.0	go	0.644	Go_X	1.0
91.39600000000002	1.0	go	0.572	Go_X	1.0
93.92000000000002	1.0	go	0.338	Go_O	1.0
96.44400000000002	1.0	go	0.4	Go_O	1.0
98.969	1.0	go	0.537	Go_X	0.0
101.493	0.35	stopfail	0.464	Go_O	0.0
104.017	1.0	go	0.325	Go_X	1.0
106.541	1.0	go	0.466	Go_O	1.0
109.065	1.0	go	0.602	Go_O	1.0
111.59	1.0	go	0.512	Go_X	1.0
114.114	1.0	go	0.811	Go_O	1.0
116.638	1.0	go	0.543	Go_X	1.0
119.162	0.3	stopsuccess	0.0	Go_X	1.0
121.68700000000001	1.0	go	0.399	Go_O	1.0
124.21100000000001	1.0	go	0.6	Go_X	1.0
126.73500000000001	0.35	stopfail	0.491	Go_O	0.0
129.25900000000001	1.0	go	0.577	Go_X	1.0
131.78300000000002	0.3	stopsuccess	0.0	Go_X	1.0
134.308	0.35	stopfail	0.407	Go_O	0.0
136.832	1.0	go	0.572	Go_O	1.0
139.356	1.0	go	0.4	Go_X	1.0
141.88	1.0	go	0.515	Go_O	1.0
144.404	1.0	go	0.536	Go_O	1.0
146.929	0.3	stopfail	0.297	Go_X	0.0
149.453	1.0	go	0.507	Go_X	0.0
151.977	0.25	stopfail	0.361	Go_O	0.0
154.501	1.0	go	0.49	Go_O	1.0
157.026	1.0	go	0.686	Go_X	1.0
159.55	1.0	go	0.754	Go_X	0.0
162.074	1.0	go	0.658	Go_O	0.0
164.598	1.0	go	0.704	Go_X	0.0
167.122	1.0	go	0.591	Go_O	0.0
169.64700000000002	1.0	go	0.693	Go_O	0.0
172.171	1.0	go	0.584	Go_X	1.0
174.695	1.0	go	0.556	Go_X	1.0
177.219	0.2	stopsuccess	0.0	Go_X	1.0
179.743	1.0	go	0.427	Go_O	1.0
182.268	1.0	go	0.678	Go_O	1.0
184.792	1.0	go	0.681	Go_X	1.0
187.31600000000003	0.25	stopfail	0.315	Go_O	0.0
189.84000000000003	1.0	go	0.738	Go_X	1.0
192.36400000000003	1.0	go	0.547	Go_O	1.0
194.889	1.0	go	0.686	Go_O	1.0
197.413	1.0	go	0.567	Go_X	1.0
199.937	1.0	go	0.638	Go_X	1.0
202.461	1.0	go	0.478	Go_O	1.0
204.986	0.2	stopfail	0.526	Go_X	0.0
207.51	1.0	go	0.666	Go_O	1.0
210.034	1.0	go	0.471	Go_X	1.0
212.558	0.15	stopfail	0.25	Go_O	0.0
215.082	1.0	go	0.297	Go_X	1.0
217.60700000000003	1.0	go	0.249	Go_O	1.0
220.13100000000003	0.1	stopsuccess	0.0	Go_X	1.0
222.65500000000003	1.0	go	0.339	Go_O	1.0
225.17900000000003	0.15	stopsuccess	0.0	Go_O	1.0
227.704	1.0	go	0.0	Go_X	0.0
230.228	1.0	go	0.601	Go_O	1.0
232.752	1.0	go	0.546	Go_X	1.0
235.276	1.0	go	0.469	Go_O	1.0
237.8	1.0	go	0.516	Go_X	1.0
240.325	0.2	stopsuccess	0.0	Go_X	1.0
242.849	0.25	stopfail	0.314	Go_O	0.0
245.39	1.0	go	0.596	Go_O	1.0
247.914	1.0	go	0.409	Go_X	1.0
250.438	0.2	stopsuccess	0.0	Go_X	1.0
252.962	1.0	go	0.385	Go_O	1.0
255.48700000000002	1.0	go	0.606	Go_X	1.0
258.011	1.0	go	0.0	Go_O	0.0
260.535	1.0	go	0.276	Go_X	1.0
263.059	1.0	go	0.321	Go_O	1.0
265.583	1.0	go	0.419	Go_X	1.0
268.108	0.25	stopfail	0.269	Go_O	0.0
270.632	1.0	go	0.974	Go_X	1.0
273.156	1.0	go	0.305	Go_O	1.0
275.68	1.0	go	0.432	Go_O	0.0
278.205	1.0	go	0.417	Go_X	1.0
280.729	1.0	go	0.372	Go_O	1.0
283.253	0.2	stopfail	0.389	Go_X	0.0
285.777	1.0	go	0.339	Go_X	0.0
288.301	1.0	go	0.471	Go_X	0.0
290.826	1.0	go	0.386	Go_O	1.0
293.35	1.0	go	0.4	Go_X	1.0
295.874	0.15	stopsuccess	0.0	Go_O	1.0
298.398	1.0	go	0.639	Go_O	0.0
300.922	1.0	go	0.452	Go_O	0.0
303.447	0.2	stopsuccess	0.0	Go_X	1.0
305.971	1.0	go	0.69	Go_X	1.0
308.495	0.25	stopfail	0.504	Go_O	0.0
311.019	1.0	go	0.5	Go_O	1.0
313.543	1.0	go	0.401	Go_X	1.0
316.068	1.0	go	0.299	Go_O	1.0
318.592	1.0	go	0.506	Go_X	1.0
321.116	1.0	go	0.418	Go_O	1.0
323.64	1.0	go	0.471	Go_X	1.0
326.165	1.0	go	0.0	Go_O	0.0
328.689	0.2	stopsuccess	0.0	Go_X	1.0
331.213	1.0	go	0.504	Go_X	1.0
333.737	1.0	go	0.408	Go_O	1.0
336.261	1.0	go	0.545	Go_X	0.0
338.786	0.25	stopfail	0.448	Go_O	0.0
341.31	1.0	go	0.424	Go_X	1.0
343.834	1.0	go	0.193	Go_O	1.0
346.358	1.0	go	0.727	Go_X	1.0
348.883	1.0	go	0.553	Go_O	1.0
351.407	0.2	stopsuccess	0.0	Go_X	1.0
353.931	1.0	go	0.7	Go_O	1.0
356.455	1.0	go	0.777	Go_X	1.0
358.979	0.25	stopsuccess	0.0	Go_O	1.0
361.504	1.0	go	0.491	Go_X	0.0
364.028	1.0	go	0.874	Go_O	1.0
366.552	0.3	stopfail	0.716	Go_X	0.0
369.076	1.0	go	0.584	Go_X	1.0
371.6	1.0	go	0.309	Go_O	1.0
374.125	0.25	stopsuccess	0.0	Go_O	1.0
376.649	1.0	go	0.74	Go_O	1.0
379.173	1.0	go	0.801	Go_X	0.0
381.697	1.0	go	0.372	Go_O	1.0
384.221	1.0	go	0.24	Go_X	1.0
386.746	1.0	go	0.259	Go_X	0.0
389.27	1.0	go	0.783	Go_O	1.0
391.794	0.3	stopsuccess	0.0	Go_X	1.0
394.318	1.0	go	0.88	Go_X	1.0
396.843	0.35	stopfail	0.58	Go_O	0.0
399.367	1.0	go	0.924	Go_O	1.0
401.891	1.0	go	0.531	Go_O	1.0
404.415	1.0	go	0.0	Go_X	0.0
406.939	1.0	go	0.792	Go_O	1.0
409.464	1.0	go	0.381	Go_X	1.0
411.988	0.3	stopfail	0.462	Go_X	0.0
414.512	1.0	go	0.529	Go_X	1.0
417.036	1.0	go	0.536	Go_O	1.0
419.56	1.0	go	0.709	Go_X	1.0
422.085	0.25	stopsuccess	0.0	Go_O	1.0
424.609	0.3	stopfail	0.722	Go_X	0.0
427.133	0.25	stopfail	0.505	Go_O	0.0
429.657	1.0	go	0.413	Go_O	1.0
432.182	0.2	stopsuccess	0.0	Go_X	1.0
434.706	1.0	go	0.496	Go_X	1.0
437.23	1.0	go	0.535	Go_O	1.0
439.754	1.0	go	0.391	Go_X	1.0
442.278	1.0	go	0.813	Go_O	1.0
444.803	1.0	go	0.772	Go_X	1.0
447.327	1.0	go	0.336	Go_O	1.0
449.851	1.0	go	0.225	Go_O	0.0
452.375	1.0	go	0.208	Go_X	0.0
454.899	0.25	stopfail	0.299	Go_O	0.0
457.424	1.0	go	0.577	Go_O	0.0
459.948	1.0	go	0.782	Go_X	1.0
462.472	0.2	stopfail	0.348	Go_X	0.0
464.996	1.0	go	0.678	Go_O	1.0
467.52099999999996	1.0	go	0.748	Go_X	1.0
470.04499999999996	1.0	go	0.294	Go_X	0.0
472.56899999999996	1.0	go	0.421	Go_O	1.0
475.09299999999996	1.0	go	0.631	Go_O	1.0
477.61699999999996	0.15	stopsuccess	0.0	Go_O	1.0
480.14200000000005	1.0	go	0.542	Go_X	1.0
482.66600000000005	1.0	go	0.898	Go_O	1.0
485.19000000000005	1.0	go	0.0	Go_X	0.0
487.71400000000006	0.2	stopsuccess	0.0	Go_X	1.0
490.23800000000006	1.0	go	0.667	Go_O	1.0
492.76300000000003	0.25	stopsuccess	0.0	Go_O	1.0
495.28700000000003	1.0	go	0.442	Go_X	1.0
497.81100000000004	1.0	go	0.621	Go_X	1.0
500.33500000000004	1.0	go	0.386	Go_O	1.0
502.86	1.0	go	0.529	Go_O	1.0
505.384	1.0	go	0.867	Go_X	1.0
507.908	1.0	go	0.642	Go_X	1.0
510.432	1.0	go	0.451	Go_O	1.0
512.956	0.3	stopsuccess	0.0	Go_X	1.0
515.481	1.0	go	0.0	Go_X	0.0
518.005	1.0	go	0.677	Go_O	1.0
520.529	1.0	go	0.464	Go_X	1.0
523.053	1.0	go	0.552	Go_O	1.0
525.577	0.35	stopfail	0.542	Go_O	0.0
528.102	1.0	go	0.561	Go_X	1.0
530.626	0.3	stopsuccess	0.0	Go_X	1.0
533.15	1.0	go	0.346	Go_O	1.0
535.674	1.0	go	0.463	Go_O	0.0
538.199	0.35	stopfail	0.429	Go_O	0.0
540.723	1.0	go	0.584	Go_X	1.0
543.247	1.0	go	0.476	Go_O	1.0
545.771	1.0	go	0.598	Go_X	1.0
548.295	1.0	go	0.624	Go_O	1.0
550.82	1.0	go	0.552	Go_X	1.0
553.344	1.0	go	0.565	Go_O	1.0
555.868	1.0	go	0.652	Go_X	1.0
558.392	1.0	go	0.651	Go_X	0.0
560.916	1.0	go	0.682	Go_O	1.0
563.441	1.0	go	0.452	Go_X	1.0
565.982	0.3	stopfail	0.503	Go_X	0.0
568.506	1.0	go	0.527	Go_O	1.0
571.03	1.0	go	0.496	Go_O	1.0
573.554	0.25	stopfail	0.471	Go_O	0.0
576.078	1.0	go	0.885	Go_X	1.0
578.603	0.2	stopsuccess	0.0	Go_X	1.0
581.127	1.0	go	0.375	Go_X	0.0
583.651	1.0	go	0.391	Go_O	1.0
586.175	0.25	stopsuccess	0.0	Go_O	1.0
588.7	1.0	go	0.75	Go_X	1.0
591.224	0.3	stopsuccess	0.0	Go_X	1.0
593.748	1.0	go	0.438	Go_O	1.0
596.272	1.0	go	0.543	Go_O	1.0
598.796	1.0	go	0.446	Go_X	0.0
601.321	0.35	stopfail	0.428	Go_O	0.0
603.845	1.0	go	0.182	Go_X	1.0
606.369	1.0	go	0.577	Go_O	1.0
608.893	1.0	go	0.467	Go_O	1.0
611.417	1.0	go	0.612	Go_X	1.0
613.942	0.3	stopfail	0.799	Go_X	0.0
616.466	1.0	go	0.45	Go_X	1.0
618.99	1.0	go	0.77	Go_O	0.0
621.514	0.25	stopsuccess	0.0	Go_O	1.0
624.039	1.0	go	0.572	Go_O	1.0
626.563	1.0	go	0.532	Go_X	1.0
629.087	1.0	go	0.737	Go_O	1.0
631.611	1.0	go	0.524	Go_X	1.0
634.135	0.3	stopsuccess	0.0	Go_X	1.0
636.66	1.0	go	0.478	Go_X	0.0
639.184	0.35	stopfail	0.4	Go_O	0.0
641.708	1.0	go	0.466	Go_O	1.0
644.232	1.0	go	0.717	Go_X	1.0
646.756	0.3	stopsuccess	0.0	Go_X	1.0
649.2810000000001	1.0	go	0.592	Go_O	1.0
651.805	1.0	go	0.596	Go_X	1.0
654.329	1.0	go	0.613	Go_O	0.0
656.853	1.0	go	0.0	Go_O	0.0
659.377	0.35	stopsuccess	0.0	Go_O	1.0
661.902	1.0	go	0.546	Go_X	1.0
664.426	0.4	stopsuccess	0.0	Go_X	1.0
666.95	1.0	go	0.55	Go_O	1.0
669.474	1.0	go	0.689	Go_X	1.0
671.999	1.0	go	0.639	Go_X	1.0
674.523	1.0	go	0.677	Go_O	1.0
677.047	1.0	go	0.682	Go_X	1.0
679.571	1.0	go	0.43	Go_O	1.0
682.095	0.45	stopfail	0.618	Go_O	0.0
684.62	1.0	go	0.0	Go_X	0.0
687.144	1.0	go	0.58	Go_O	1.0
689.668	0.4	stopfail	0.418	Go_X	0.0
692.192	1.0	go	0.431	Go_O	1.0
694.716	1.0	go	0.5	Go_X	1.0
697.241	0.35	stopfail	0.417	Go_O	0.0
699.765	1.0	go	0.657	Go_X	1.0
702.289	1.0	go	0.602	Go_O	1.0
704.813	1.0	go	0.651	Go_X	1.0
707.338	1.0	go	0.575	Go_O	1.0
709.862	0.3	stopfail	0.502	Go_X	0.0
712.386	1.0	go	0.616	Go_X	0.0
714.91	0.25	stopsuccess	0.0	Go_O	1.0
717.434	1.0	go	0.771	Go_O	1.0
719.9590000000001	1.0	go	0.881	Go_X	1.0
722.4830000000001	1.0	go	0.477	Go_O	1.0
725.0070000000001	1.0	go	0.421	Go_O	0.0
727.5310000000001	1.0	go	0.472	Go_X	0.0
730.055	0.3	stopsuccess	0.0	Go_X	1.0
732.58	1.0	go	0.66	Go_O	1.0
735.104	1.0	go	0.438	Go_X	1.0
737.628	0.35	stopfail	0.53	Go_O	0.0
740.152	0.3	stopfail	0.514	Go_X	0.0
742.677	1.0	go	0.529	Go_O	1.0
745.201	1.0	go	0.76	Go_X	0.0
747.725	1.0	go	0.514	Go_X	1.0
750.249	1.0	go	0.482	Go_O	1.0
752.773	0.25	stopfail	0.324	Go_O	0.0
755.298	1.0	go	0.789	Go_X	1.0
