onset	duration	trial_type	response_time	stim_file	accuracy
69.981	1.0	go	0.0	Go_X	0.0
72.505	1.0	go	0.768	Go_O	1.0
75.03	1.0	go	0.449	Go_X	1.0
77.554	1.0	go	0.481	Go_O	1.0
80.078	1.0	go	0.679	Go_O	1.0
82.602	1.0	go	0.695	Go_X	1.0
85.127	0.25	stop	0.0	Go_O	1.0
87.651	1.0	go	0.629	Go_X	1.0
90.175	0.3	stop	0.0	Go_X	1.0
92.699	1.0	go	0.644	Go_O	1.0
95.223	1.0	go	0.696	Go_O	1.0
97.748	1.0	go	0.664	Go_X	1.0
100.272	0.35	stop	0.0	Go_O	1.0
102.796	1.0	go	0.641	Go_O	1.0
105.32	1.0	go	0.661	Go_X	1.0
107.844	0.4	stop	0.0	Go_X	1.0
110.369	0.45	stop	0.0	Go_O	1.0
112.893	1.0	go	0.564	Go_X	1.0
115.417	1.0	go	0.592	Go_O	1.0
117.941	0.5	stop	0.0	Go_X	1.0
120.466	1.0	go	0.623	Go_X	1.0
122.99	1.0	go	0.661	Go_O	1.0
125.514	0.55	stop	0.684	Go_O	0.0
128.038	1.0	go	0.601	Go_X	1.0
130.562	1.0	go	0.661	Go_O	1.0
133.087	0.5	stop	0.535	Go_X	0.0
135.611	1.0	go	0.498	Go_O	1.0
138.135	1.0	go	0.449	Go_X	1.0
140.659	0.45	stop	0.525	Go_O	0.0
143.183	1.0	go	0.42	Go_O	1.0
145.708	1.0	go	0.692	Go_X	1.0
148.232	1.0	go	0.731	Go_O	1.0
150.756	1.0	go	0.709	Go_X	1.0
153.28	1.0	go	0.517	Go_O	1.0
155.805	0.4	stop	0.419	Go_X	0.0
158.329	1.0	go	0.644	Go_X	1.0
160.853	1.0	go	0.572	Go_X	1.0
163.377	1.0	go	0.338	Go_O	1.0
165.901	1.0	go	0.4	Go_O	1.0
168.426	1.0	go	0.537	Go_X	0.0
170.95	0.35	stop	0.464	Go_O	0.0
173.474	1.0	go	0.325	Go_X	1.0
175.998	1.0	go	0.466	Go_O	1.0
178.522	1.0	go	0.602	Go_O	1.0
181.047	1.0	go	0.512	Go_X	1.0
183.571	1.0	go	0.811	Go_O	1.0
186.095	1.0	go	0.543	Go_X	1.0
188.619	0.3	stop	0.0	Go_X	1.0
191.144	1.0	go	0.399	Go_O	1.0
193.668	1.0	go	0.6	Go_X	1.0
196.192	0.35	stop	0.491	Go_O	0.0
198.716	1.0	go	0.577	Go_X	1.0
201.24	0.3	stop	0.0	Go_X	1.0
203.765	0.35	stop	0.407	Go_O	0.0
206.289	1.0	go	0.572	Go_O	1.0
208.813	1.0	go	0.4	Go_X	1.0
211.337	1.0	go	0.515	Go_O	1.0
213.861	1.0	go	0.536	Go_O	1.0
216.386	0.3	stop	0.297	Go_X	0.0
218.91	1.0	go	0.507	Go_X	0.0
221.434	0.25	stop	0.361	Go_O	0.0
223.958	1.0	go	0.49	Go_O	1.0
226.483	1.0	go	0.686	Go_X	1.0
229.007	1.0	go	0.754	Go_X	0.0
231.531	1.0	go	0.658	Go_O	0.0
234.055	1.0	go	0.704	Go_X	0.0
236.579	1.0	go	0.591	Go_O	0.0
239.104	1.0	go	0.693	Go_O	0.0
241.628	1.0	go	0.584	Go_X	1.0
244.152	1.0	go	0.556	Go_X	1.0
246.676	0.2	stop	0.0	Go_X	1.0
249.2	1.0	go	0.427	Go_O	1.0
251.725	1.0	go	0.678	Go_O	1.0
254.249	1.0	go	0.681	Go_X	1.0
256.773	0.25	stop	0.315	Go_O	0.0
259.297	1.0	go	0.738	Go_X	1.0
261.821	1.0	go	0.547	Go_O	1.0
264.346	1.0	go	0.686	Go_O	1.0
266.87	1.0	go	0.567	Go_X	1.0
269.394	1.0	go	0.638	Go_X	1.0
271.918	1.0	go	0.478	Go_O	1.0
274.443	0.2	stop	0.526	Go_X	0.0
276.967	1.0	go	0.666	Go_O	1.0
279.491	1.0	go	0.471	Go_X	1.0
282.015	0.15	stop	0.25	Go_O	0.0
284.539	1.0	go	0.297	Go_X	1.0
287.064	1.0	go	0.249	Go_O	1.0
289.588	0.1	stop	0.0	Go_X	1.0
292.112	1.0	go	0.339	Go_O	1.0
294.636	0.15	stop	0.0	Go_O	1.0
297.161	1.0	go	0.0	Go_X	0.0
299.685	1.0	go	0.601	Go_O	1.0
302.209	1.0	go	0.546	Go_X	1.0
304.733	1.0	go	0.469	Go_O	1.0
307.257	1.0	go	0.516	Go_X	1.0
309.782	0.2	stop	0.0	Go_X	1.0
312.306	0.25	stop	0.314	Go_O	0.0
314.847	1.0	go	0.596	Go_O	1.0
317.371	1.0	go	0.409	Go_X	1.0
319.895	0.2	stop	0.0	Go_X	1.0
322.419	1.0	go	0.385	Go_O	1.0
324.944	1.0	go	0.606	Go_X	1.0
327.468	1.0	go	0.0	Go_O	0.0
329.992	1.0	go	0.276	Go_X	1.0
332.516	1.0	go	0.321	Go_O	1.0
335.04	1.0	go	0.419	Go_X	1.0
337.565	0.25	stop	0.269	Go_O	0.0
340.089	1.0	go	0.974	Go_X	1.0
342.613	1.0	go	0.305	Go_O	1.0
345.137	1.0	go	0.432	Go_O	0.0
347.662	1.0	go	0.417	Go_X	1.0
350.186	1.0	go	0.372	Go_O	1.0
352.71	0.2	stop	0.389	Go_X	0.0
355.234	1.0	go	0.339	Go_X	0.0
357.758	1.0	go	0.471	Go_X	0.0
360.283	1.0	go	0.386	Go_O	1.0
362.807	1.0	go	0.4	Go_X	1.0
365.331	0.15	stop	0.0	Go_O	1.0
367.855	1.0	go	0.639	Go_O	0.0
370.379	1.0	go	0.452	Go_O	0.0
372.904	0.2	stop	0.0	Go_X	1.0
375.428	1.0	go	0.69	Go_X	1.0
377.952	0.25	stop	0.504	Go_O	0.0
380.476	1.0	go	0.5	Go_O	1.0
383.0	1.0	go	0.401	Go_X	1.0
385.525	1.0	go	0.299	Go_O	1.0
388.049	1.0	go	0.506	Go_X	1.0
390.573	1.0	go	0.418	Go_O	1.0
393.097	1.0	go	0.471	Go_X	1.0
395.622	1.0	go	0.0	Go_O	0.0
398.146	0.2	stop	0.0	Go_X	1.0
400.67	1.0	go	0.504	Go_X	1.0
403.194	1.0	go	0.408	Go_O	1.0
405.718	1.0	go	0.545	Go_X	0.0
408.243	0.25	stop	0.448	Go_O	0.0
410.767	1.0	go	0.424	Go_X	1.0
413.291	1.0	go	0.193	Go_O	1.0
415.815	1.0	go	0.727	Go_X	1.0
418.34	1.0	go	0.553	Go_O	1.0
420.864	0.2	stop	0.0	Go_X	1.0
423.388	1.0	go	0.7	Go_O	1.0
425.912	1.0	go	0.777	Go_X	1.0
428.436	0.25	stop	0.0	Go_O	1.0
430.961	1.0	go	0.491	Go_X	0.0
433.485	1.0	go	0.874	Go_O	1.0
436.009	0.3	stop	0.716	Go_X	0.0
438.533	1.0	go	0.584	Go_X	1.0
441.057	1.0	go	0.309	Go_O	1.0
443.582	0.25	stop	0.0	Go_O	1.0
446.106	1.0	go	0.74	Go_O	1.0
448.63	1.0	go	0.801	Go_X	0.0
451.154	1.0	go	0.372	Go_O	1.0
453.678	1.0	go	0.24	Go_X	1.0
456.203	1.0	go	0.259	Go_X	0.0
458.727	1.0	go	0.783	Go_O	1.0
461.251	0.3	stop	0.0	Go_X	1.0
463.775	1.0	go	0.88	Go_X	1.0
466.3	0.35	stop	0.58	Go_O	0.0
468.824	1.0	go	0.924	Go_O	1.0
471.348	1.0	go	0.531	Go_O	1.0
473.872	1.0	go	0.0	Go_X	0.0
476.396	1.0	go	0.792	Go_O	1.0
478.921	1.0	go	0.381	Go_X	1.0
481.445	0.3	stop	0.462	Go_X	0.0
483.969	1.0	go	0.529	Go_X	1.0
486.493	1.0	go	0.536	Go_O	1.0
489.017	1.0	go	0.709	Go_X	1.0
491.542	0.25	stop	0.0	Go_O	1.0
494.066	0.3	stop	0.722	Go_X	0.0
496.59	0.25	stop	0.505	Go_O	0.0
499.114	1.0	go	0.413	Go_O	1.0
501.639	0.2	stop	0.0	Go_X	1.0
504.163	1.0	go	0.496	Go_X	1.0
506.687	1.0	go	0.535	Go_O	1.0
509.211	1.0	go	0.391	Go_X	1.0
511.735	1.0	go	0.813	Go_O	1.0
514.26	1.0	go	0.772	Go_X	1.0
516.784	1.0	go	0.336	Go_O	1.0
519.308	1.0	go	0.225	Go_O	0.0
521.832	1.0	go	0.208	Go_X	0.0
524.356	0.25	stop	0.299	Go_O	0.0
526.881	1.0	go	0.577	Go_O	0.0
529.405	1.0	go	0.782	Go_X	1.0
531.929	0.2	stop	0.348	Go_X	0.0
534.453	1.0	go	0.678	Go_O	1.0
536.978	1.0	go	0.748	Go_X	1.0
539.502	1.0	go	0.294	Go_X	0.0
542.026	1.0	go	0.421	Go_O	1.0
544.55	1.0	go	0.631	Go_O	1.0
547.074	0.15	stop	0.0	Go_O	1.0
549.599	1.0	go	0.542	Go_X	1.0
552.123	1.0	go	0.898	Go_O	1.0
554.647	1.0	go	0.0	Go_X	0.0
557.171	0.2	stop	0.0	Go_X	1.0
559.695	1.0	go	0.667	Go_O	1.0
562.22	0.25	stop	0.0	Go_O	1.0
564.744	1.0	go	0.442	Go_X	1.0
567.268	1.0	go	0.621	Go_X	1.0
569.792	1.0	go	0.386	Go_O	1.0
572.317	1.0	go	0.529	Go_O	1.0
574.841	1.0	go	0.867	Go_X	1.0
577.365	1.0	go	0.642	Go_X	1.0
579.889	1.0	go	0.451	Go_O	1.0
582.413	0.3	stop	0.0	Go_X	1.0
584.938	1.0	go	0.0	Go_X	0.0
587.462	1.0	go	0.677	Go_O	1.0
589.986	1.0	go	0.464	Go_X	1.0
592.51	1.0	go	0.552	Go_O	1.0
595.034	0.35	stop	0.542	Go_O	0.0
597.559	1.0	go	0.561	Go_X	1.0
600.083	0.3	stop	0.0	Go_X	1.0
602.607	1.0	go	0.346	Go_O	1.0
605.131	1.0	go	0.463	Go_O	0.0
607.656	0.35	stop	0.429	Go_O	0.0
610.18	1.0	go	0.584	Go_X	1.0
612.704	1.0	go	0.476	Go_O	1.0
615.228	1.0	go	0.598	Go_X	1.0
617.752	1.0	go	0.624	Go_O	1.0
620.277	1.0	go	0.552	Go_X	1.0
622.801	1.0	go	0.565	Go_O	1.0
625.325	1.0	go	0.652	Go_X	1.0
627.849	1.0	go	0.651	Go_X	0.0
630.373	1.0	go	0.682	Go_O	1.0
632.898	1.0	go	0.452	Go_X	1.0
635.439	0.3	stop	0.503	Go_X	0.0
637.963	1.0	go	0.527	Go_O	1.0
640.487	1.0	go	0.496	Go_O	1.0
643.011	0.25	stop	0.471	Go_O	0.0
645.535	1.0	go	0.885	Go_X	1.0
648.06	0.2	stop	0.0	Go_X	1.0
650.584	1.0	go	0.375	Go_X	0.0
653.108	1.0	go	0.391	Go_O	1.0
655.632	0.25	stop	0.0	Go_O	1.0
658.157	1.0	go	0.75	Go_X	1.0
660.681	0.3	stop	0.0	Go_X	1.0
663.205	1.0	go	0.438	Go_O	1.0
665.729	1.0	go	0.543	Go_O	1.0
668.253	1.0	go	0.446	Go_X	0.0
670.778	0.35	stop	0.428	Go_O	0.0
673.302	1.0	go	0.182	Go_X	1.0
675.826	1.0	go	0.577	Go_O	1.0
678.35	1.0	go	0.467	Go_O	1.0
680.874	1.0	go	0.612	Go_X	1.0
683.399	0.3	stop	0.799	Go_X	0.0
685.923	1.0	go	0.45	Go_X	1.0
688.447	1.0	go	0.77	Go_O	0.0
690.971	0.25	stop	0.0	Go_O	1.0
693.496	1.0	go	0.572	Go_O	1.0
696.02	1.0	go	0.532	Go_X	1.0
698.544	1.0	go	0.737	Go_O	1.0
701.068	1.0	go	0.524	Go_X	1.0
703.592	0.3	stop	0.0	Go_X	1.0
706.117	1.0	go	0.478	Go_X	0.0
708.641	0.35	stop	0.4	Go_O	0.0
711.165	1.0	go	0.466	Go_O	1.0
713.689	1.0	go	0.717	Go_X	1.0
716.213	0.3	stop	0.0	Go_X	1.0
718.738	1.0	go	0.592	Go_O	1.0
721.262	1.0	go	0.596	Go_X	1.0
723.786	1.0	go	0.613	Go_O	0.0
726.31	1.0	go	0.0	Go_O	0.0
728.834	0.35	stop	0.0	Go_O	1.0
731.359	1.0	go	0.546	Go_X	1.0
733.883	0.4	stop	0.0	Go_X	1.0
736.407	1.0	go	0.55	Go_O	1.0
738.931	1.0	go	0.689	Go_X	1.0
741.456	1.0	go	0.639	Go_X	1.0
743.98	1.0	go	0.677	Go_O	1.0
746.504	1.0	go	0.682	Go_X	1.0
749.028	1.0	go	0.43	Go_O	1.0
751.552	0.45	stop	0.618	Go_O	0.0
754.077	1.0	go	0.0	Go_X	0.0
756.601	1.0	go	0.58	Go_O	1.0
759.125	0.4	stop	0.418	Go_X	0.0
761.649	1.0	go	0.431	Go_O	1.0
764.173	1.0	go	0.5	Go_X	1.0
766.698	0.35	stop	0.417	Go_O	0.0
769.222	1.0	go	0.657	Go_X	1.0
771.746	1.0	go	0.602	Go_O	1.0
774.27	1.0	go	0.651	Go_X	1.0
776.795	1.0	go	0.575	Go_O	1.0
779.319	0.3	stop	0.502	Go_X	0.0
781.843	1.0	go	0.616	Go_X	0.0
784.367	0.25	stop	0.0	Go_O	1.0
786.891	1.0	go	0.771	Go_O	1.0
789.416	1.0	go	0.881	Go_X	1.0
791.94	1.0	go	0.477	Go_O	1.0
794.464	1.0	go	0.421	Go_O	0.0
796.988	1.0	go	0.472	Go_X	0.0
799.512	0.3	stop	0.0	Go_X	1.0
802.037	1.0	go	0.66	Go_O	1.0
804.561	1.0	go	0.438	Go_X	1.0
807.085	0.35	stop	0.53	Go_O	0.0
809.609	0.3	stop	0.514	Go_X	0.0
812.134	1.0	go	0.529	Go_O	1.0
814.658	1.0	go	0.76	Go_X	0.0
817.182	1.0	go	0.514	Go_X	1.0
819.706	1.0	go	0.482	Go_O	1.0
822.23	0.25	stop	0.324	Go_O	0.0
824.755	1.0	go	0.789	Go_X	1.0
