onset	duration	trial_type	response_time	stim_file	accuracy
259.614	1.0	go	0.0	Go_O	0.0
262.138	1.0	go	0.314	Go_X	1.0
264.662	1.0	go	0.272	Go_O	1.0
267.186	1.0	go	0.227	Go_X	1.0
269.711	1.0	go	0.262	Go_X	1.0
272.235	1.0	go	0.314	Go_O	1.0
274.759	0.25	stopfail	0.339	Go_O	0.0
277.283	1.0	go	0.306	Go_X	1.0
279.807	0.2	stopfail	0.33	Go_X	0.0
282.332	1.0	go	0.519	Go_O	1.0
284.856	1.0	go	0.346	Go_X	1.0
287.38	1.0	go	0.282	Go_O	1.0
289.904	0.15	stopfail	0.297	Go_O	0.0
292.429	1.0	go	0.505	Go_O	1.0
294.953	1.0	go	0.401	Go_X	1.0
297.477	0.1	stopsuccess	0.0	Go_X	1.0
300.001	0.15	stopsuccess	0.0	Go_O	1.0
302.525	1.0	go	0.345	Go_O	1.0
305.05	1.0	go	0.25	Go_X	1.0
307.574	0.2	stopsuccess	0.0	Go_X	1.0
310.098	1.0	go	0.388	Go_X	1.0
312.622	1.0	go	0.449	Go_O	1.0
315.146	0.25	stopsuccess	0.0	Go_O	1.0
317.671	1.0	go	0.403	Go_X	1.0
320.195	1.0	go	0.442	Go_O	1.0
322.719	0.3	stopfail	0.423	Go_X	0.0
325.243	1.0	go	0.53	Go_X	1.0
327.768	1.0	go	0.41	Go_O	1.0
330.292	0.25	stopsuccess	0.0	Go_O	1.0
332.816	1.0	go	0.407	Go_X	0.0
335.34	1.0	go	0.454	Go_O	1.0
337.864	1.0	go	0.388	Go_O	1.0
340.389	1.0	go	0.255	Go_X	1.0
342.913	1.0	go	0.343	Go_X	1.0
345.437	0.3	stopsuccess	0.0	Go_X	1.0
347.961	1.0	go	0.382	Go_O	1.0
350.485	1.0	go	0.323	Go_O	1.0
353.01	1.0	go	0.457	Go_X	1.0
355.534	1.0	go	0.373	Go_O	1.0
358.058	1.0	go	0.447	Go_X	1.0
360.582	0.35	stopfail	0.331	Go_O	0.0
363.107	1.0	go	0.437	Go_X	1.0
365.631	1.0	go	0.363	Go_O	1.0
368.155	1.0	go	0.684	Go_O	1.0
370.679	1.0	go	0.414	Go_X	1.0
373.203	1.0	go	0.238	Go_O	1.0
375.728	1.0	go	0.356	Go_X	1.0
378.252	0.3	stopfail	0.329	Go_X	0.0
380.776	1.0	go	0.42	Go_O	1.0
383.3	1.0	go	0.315	Go_X	1.0
385.824	0.25	stopfail	0.336	Go_O	0.0
388.349	1.0	go	0.449	Go_X	1.0
390.873	0.2	stopsuccess	0.0	Go_X	1.0
393.397	0.25	stopfail	0.341	Go_O	0.0
395.921	1.0	go	0.402	Go_O	1.0
398.446	1.0	go	0.571	Go_O	0.0
400.97	1.0	go	0.322	Go_X	1.0
403.494	1.0	go	0.479	Go_O	1.0
406.018	0.2	stopsuccess	0.0	Go_X	1.0
408.542	1.0	go	0.495	Go_X	1.0
411.067	0.25	stopfail	0.369	Go_O	0.0
413.591	1.0	go	0.439	Go_X	1.0
416.115	1.0	go	0.391	Go_O	1.0
418.639	1.0	go	0.384	Go_O	1.0
421.163	1.0	go	0.545	Go_X	1.0
423.688	1.0	go	0.608	Go_O	1.0
426.212	1.0	go	0.317	Go_X	1.0
428.736	1.0	go	0.478	Go_X	1.0
431.26	1.0	go	0.478	Go_O	1.0
433.785	1.0	go	0.657	Go_O	1.0
436.309	0.2	stopfail	0.543	Go_X	0.0
438.833	1.0	go	0.469	Go_X	1.0
441.357	1.0	go	0.49	Go_O	1.0
443.881	1.0	go	0.657	Go_X	1.0
446.406	0.15	stopsuccess	0.0	Go_O	1.0
448.93	1.0	go	0.406	Go_X	1.0
451.454	1.0	go	0.377	Go_O	1.0
453.978	1.0	go	0.362	Go_X	1.0
456.502	1.0	go	0.497	Go_O	1.0
459.027	1.0	go	0.323	Go_O	0.0
461.551	1.0	go	0.34	Go_X	1.0
464.075	0.2	stopfail	0.364	Go_X	0.0
466.599	1.0	go	0.389	Go_O	1.0
469.124	1.0	go	0.401	Go_X	1.0
471.648	0.15	stopsuccess	0.0	Go_O	1.0
474.172	1.0	go	0.433	Go_X	1.0
476.696	1.0	go	0.544	Go_O	1.0
479.22	0.2	stopfail	0.362	Go_X	0.0
481.745	1.0	go	0.552	Go_O	1.0
484.269	0.15	stopsuccess	0.0	Go_O	1.0
486.793	1.0	go	0.489	Go_X	1.0
489.317	1.0	go	0.608	Go_O	1.0
491.841	1.0	go	0.438	Go_X	1.0
494.366	1.0	go	0.393	Go_X	1.0
496.89	1.0	go	0.636	Go_O	1.0
499.414	0.2	stopsuccess	0.0	Go_X	1.0
501.938	0.25	stopfail	0.587	Go_O	0.0
504.463	1.0	go	0.522	Go_O	1.0
506.987	1.0	go	0.527	Go_X	1.0
509.511	0.2	stopsuccess	0.0	Go_X	1.0
512.035	1.0	go	0.447	Go_O	1.0
514.559	1.0	go	0.588	Go_X	1.0
517.084	1.0	go	0.642	Go_X	1.0
519.608	1.0	go	0.56	Go_O	1.0
522.132	1.0	go	0.554	Go_X	1.0
524.656	1.0	go	0.298	Go_O	1.0
527.18	0.25	stopsuccess	0.0	Go_O	1.0
529.705	1.0	go	0.4	Go_X	1.0
532.229	1.0	go	0.461	Go_O	1.0
534.753	1.0	go	0.512	Go_X	1.0
537.277	1.0	go	0.857	Go_O	1.0
539.801	1.0	go	0.319	Go_O	1.0
542.326	0.3	stopfail	0.358	Go_X	0.0
544.85	1.0	go	0.395	Go_X	1.0
547.374	1.0	go	0.571	Go_O	1.0
549.898	1.0	go	0.397	Go_X	1.0
552.423	1.0	go	0.594	Go_O	1.0
554.947	0.25	stopsuccess	0.0	Go_O	1.0
557.471	1.0	go	0.436	Go_X	1.0
559.995	1.0	go	0.457	Go_X	1.0
562.519	0.3	stopfail	0.397	Go_X	0.0
565.044	1.0	go	0.606	Go_O	1.0
567.568	0.25	stopfail	0.449	Go_O	0.0
570.092	1.0	go	0.491	Go_O	1.0
572.616	1.0	go	0.555	Go_X	1.0
575.14	1.0	go	0.644	Go_X	1.0
577.665	1.0	go	0.696	Go_O	1.0
580.189	1.0	go	0.516	Go_O	1.0
582.713	1.0	go	0.501	Go_X	1.0
585.237	1.0	go	0.484	Go_O	1.0
587.762	0.2	stopfail	0.458	Go_X	0.0
590.286	1.0	go	0.626	Go_X	1.0
592.81	1.0	go	0.791	Go_X	1.0
595.334	1.0	go	0.763	Go_O	1.0
597.858	0.15	stopsuccess	0.0	Go_O	1.0
600.383	1.0	go	0.545	Go_X	1.0
602.907	1.0	go	0.594	Go_O	1.0
605.431	1.0	go	0.475	Go_O	1.0
607.955	1.0	go	0.337	Go_X	1.0
610.479	0.2	stopsuccess	0.0	Go_X	1.0
613.004	1.0	go	0.576	Go_O	1.0
615.528	1.0	go	0.39	Go_X	1.0
618.052	0.25	stopfail	0.35	Go_O	0.0
620.576	1.0	go	0.364	Go_X	1.0
623.101	1.0	go	0.553	Go_O	1.0
625.625	0.2	stopsuccess	0.0	Go_X	1.0
628.149	1.0	go	0.473	Go_O	1.0
630.673	1.0	go	0.47	Go_X	1.0
633.197	0.25	stopsuccess	0.0	Go_O	1.0
635.722	1.0	go	0.343	Go_O	1.0
638.246	1.0	go	0.608	Go_X	1.0
640.77	1.0	go	0.679	Go_O	1.0
643.294	1.0	go	0.68	Go_X	1.0
645.818	1.0	go	0.0	Go_X	0.0
648.343	1.0	go	0.395	Go_O	1.0
650.867	0.3	stopfail	0.378	Go_X	0.0
653.391	1.0	go	0.522	Go_X	1.0
655.915	0.25	stopsuccess	0.0	Go_O	1.0
658.44	1.0	go	0.431	Go_O	1.0
660.964	1.0	go	0.668	Go_O	1.0
663.488	1.0	go	0.615	Go_X	1.0
666.012	1.0	go	0.305	Go_X	0.0
668.536	1.0	go	0.38	Go_O	1.0
671.061	0.3	stopfail	0.65	Go_X	0.0
673.585	1.0	go	0.382	Go_X	1.0
676.109	1.0	go	0.401	Go_O	1.0
678.633	1.0	go	0.619	Go_O	1.0
681.157	0.25	stopfail	0.3	Go_O	0.0
683.682	0.2	stopsuccess	0.0	Go_X	1.0
686.206	0.25	stopsuccess	0.0	Go_O	1.0
688.73	1.0	go	0.0	Go_X	0.0
691.254	0.3	stopfail	0.4	Go_X	0.0
693.779	1.0	go	0.333	Go_X	1.0
696.303	1.0	go	0.475	Go_O	1.0
698.827	1.0	go	0.394	Go_O	1.0
701.351	1.0	go	0.371	Go_X	1.0
703.875	1.0	go	0.36	Go_X	1.0
706.4	1.0	go	0.559	Go_O	1.0
708.924	1.0	go	0.514	Go_O	1.0
711.448	1.0	go	0.451	Go_X	1.0
713.972	0.25	stopfail	0.431	Go_O	0.0
716.496	1.0	go	0.402	Go_X	1.0
719.021	1.0	go	0.589	Go_O	1.0
721.545	0.2	stopfail	0.329	Go_X	0.0
724.069	1.0	go	0.0	Go_X	0.0
726.593	1.0	go	0.562	Go_O	1.0
729.118	1.0	go	0.456	Go_O	1.0
731.642	1.0	go	0.463	Go_X	1.0
734.166	1.0	go	0.417	Go_X	1.0
736.69	0.15	stopsuccess	0.0	Go_O	1.0
739.214	1.0	go	0.515	Go_O	1.0
741.739	1.0	go	0.37	Go_X	1.0
744.263	1.0	go	0.568	Go_O	1.0
746.787	0.2	stopsuccess	0.0	Go_X	1.0
749.311	1.0	go	0.539	Go_O	1.0
751.835	0.25	stopfail	0.424	Go_O	0.0
754.36	1.0	go	0.341	Go_X	1.0
756.884	1.0	go	0.551	Go_X	1.0
759.408	1.0	go	0.46	Go_O	1.0
761.932	1.0	go	0.412	Go_X	0.0
764.457	1.0	go	0.445	Go_O	1.0
766.981	1.0	go	0.0	Go_X	0.0
769.505	1.0	go	0.43	Go_O	1.0
772.029	0.2	stopsuccess	0.0	Go_X	1.0
774.553	1.0	go	0.449	Go_O	1.0
777.078	1.0	go	0.454	Go_X	1.0
779.602	1.0	go	0.425	Go_O	1.0
782.126	1.0	go	0.526	Go_X	1.0
784.65	0.25	stopsuccess	0.0	Go_O	1.0
787.174	1.0	go	0.297	Go_X	1.0
789.699	0.3	stopfail	0.373	Go_X	0.0
792.223	1.0	go	0.63	Go_O	1.0
794.747	1.0	go	0.4	Go_X	1.0
797.271	0.25	stopfail	0.56	Go_O	0.0
799.796	1.0	go	0.643	Go_O	1.0
802.32	1.0	go	0.612	Go_X	1.0
804.844	1.0	go	0.322	Go_O	1.0
807.368	1.0	go	0.544	Go_O	1.0
809.892	1.0	go	0.347	Go_X	1.0
812.417	1.0	go	0.768	Go_O	1.0
814.941	1.0	go	0.81	Go_X	1.0
817.465	1.0	go	0.398	Go_X	1.0
819.989	1.0	go	0.512	Go_O	1.0
822.513	1.0	go	0.442	Go_X	1.0
825.038	0.2	stopfail	0.286	Go_X	0.0
827.562	1.0	go	0.379	Go_O	1.0
830.086	1.0	go	0.454	Go_O	1.0
832.61	0.15	stopfail	0.501	Go_O	0.0
835.135	1.0	go	0.779	Go_X	1.0
837.659	0.1	stopsuccess	0.0	Go_X	1.0
840.183	1.0	go	0.559	Go_O	1.0
842.707	1.0	go	0.702	Go_X	1.0
845.231	0.15	stopsuccess	0.0	Go_O	1.0
847.756	1.0	go	0.708	Go_X	1.0
850.28	0.2	stopsuccess	0.0	Go_X	1.0
852.804	1.0	go	0.516	Go_O	1.0
855.328	1.0	go	0.421	Go_O	1.0
857.852	1.0	go	0.558	Go_X	1.0
860.377	0.25	stopsuccess	0.0	Go_O	1.0
862.901	1.0	go	0.533	Go_O	1.0
865.425	1.0	go	0.0	Go_X	0.0
867.949	1.0	go	0.431	Go_O	1.0
870.474	1.0	go	0.323	Go_X	1.0
872.998	0.3	stopfail	0.355	Go_X	0.0
875.522	1.0	go	0.74	Go_O	1.0
878.046	1.0	go	0.782	Go_X	1.0
880.57	0.25	stopfail	0.471	Go_O	0.0
883.095	1.0	go	0.953	Go_O	1.0
885.619	1.0	go	0.395	Go_X	1.0
888.143	1.0	go	0.392	Go_X	1.0
890.667	1.0	go	0.813	Go_O	1.0
893.191	0.2	stopsuccess	0.0	Go_X	1.0
895.716	1.0	go	0.587	Go_X	1.0
898.24	0.25	stopsuccess	0.0	Go_O	1.0
900.764	1.0	go	0.0	Go_O	0.0
903.288	1.0	go	0.0	Go_O	0.0
905.813	0.3	stopsuccess	0.0	Go_X	1.0
908.337	1.0	go	0.0	Go_X	0.0
910.861	1.0	go	0.732	Go_X	1.0
913.385	1.0	go	0.415	Go_O	1.0
915.909	1.0	go	0.366	Go_O	1.0
918.434	0.35	stopfail	0.379	Go_O	0.0
920.958	1.0	go	0.378	Go_X	1.0
923.482	0.3	stopfail	0.297	Go_X	0.0
926.006	1.0	go	0.432	Go_O	1.0
928.53	1.0	go	0.587	Go_X	1.0
931.055	1.0	go	0.361	Go_O	1.0
933.579	1.0	go	0.41	Go_X	1.0
936.103	1.0	go	0.507	Go_O	1.0
938.627	1.0	go	0.426	Go_X	1.0
941.152	0.25	stopfail	0.392	Go_O	0.0
943.676	1.0	go	0.312	Go_X	1.0
946.2	1.0	go	0.314	Go_O	1.0
948.724	0.2	stopfail	0.291	Go_X	0.0
951.248	1.0	go	0.346	Go_O	1.0
953.773	1.0	go	0.278	Go_X	1.0
956.297	0.15	stopfail	0.306	Go_O	0.0
958.821	1.0	go	0.478	Go_O	1.0
961.345	1.0	go	0.31	Go_X	1.0
963.869	1.0	go	0.464	Go_O	1.0
966.394	1.0	go	0.305	Go_X	1.0
968.918	0.1	stopsuccess	0.0	Go_X	1.0
971.442	1.0	go	0.449	Go_X	1.0
973.966	0.15	stopsuccess	0.0	Go_O	1.0
976.49	1.0	go	0.782	Go_O	1.0
979.015	1.0	go	0.367	Go_X	1.0
981.539	1.0	go	0.431	Go_O	1.0
984.063	1.0	go	0.473	Go_X	1.0
986.587	1.0	go	0.374	Go_O	1.0
989.112	0.2	stopfail	0.491	Go_X	0.0
991.636	1.0	go	0.349	Go_O	1.0
994.16	1.0	go	0.263	Go_X	1.0
996.684	0.15	stopfail	0.539	Go_O	0.0
999.208	0.1	stopfail	0.345	Go_X	0.0
1001.733	1.0	go	0.514	Go_O	1.0
1004.257	1.0	go	0.313	Go_X	1.0
1006.781	1.0	go	0.38	Go_O	1.0
1009.305	1.0	go	0.276	Go_X	1.0
1011.829	0.05	stopsuccess	0.0	Go_O	1.0
1014.354	1.0	go	0.61	Go_X	1.0
