frame	onset	duration	trial_type	event_type	response_type	response_time	stim_file	accuracy
0	40.768		loss-reward	ImageDisplay1		0.0		
0	42.992	0.75	loss-reward	StartDisplay				
0	43.744		loss-reward	ImageDisplay2		0.0		
0	46.736	1.6	loss-reward	ChoiceDisplay	1	0.804	1	1
0	47.555	0.796	loss-reward	ChosenDisplay		0.0		
0	48.341	0.25	loss-reward	TurnDisplay				
0	48.592	0.75	loss-reward	OutcomeDisplay				
1	49.344		control-reward	ImageDisplay1		0.0		
1	51.584	0.75	control-reward	StartDisplay				
1	52.336		control-reward	ImageDisplay2		0.0		
1	55.345	1.6	control-reward	ChoiceDisplay	1	0.593	1	1
1	55.964	1.007	control-reward	ChosenDisplay		0.0		
1	56.95	0.25	control-reward	TurnDisplay				
1	57.201	0.75	control-reward	OutcomeDisplay				
2	57.953		loss-reward	ImageDisplay1		0.0		
2	60.193	0.75	loss-reward	StartDisplay				
2	60.945		loss-reward	ImageDisplay2		0.0		
2	63.954	1.6	loss-reward	ChoiceDisplay	1	0.855	1	1
2	64.824	0.745	loss-reward	ChosenDisplay		0.0		
2	65.559	0.25	loss-reward	TurnDisplay				
2	65.81	0.75	loss-reward	OutcomeDisplay				
3	66.562		win-noreward	ImageDisplay1		0.0		
3	68.802	0.75	win-noreward	StartDisplay				
3	69.554		win-noreward	ImageDisplay2		0.0		
3	72.563	1.6	win-noreward	ChoiceDisplay	1	0.694	1	1
3	73.282	0.906	win-noreward	ChosenDisplay		0.0		
3	74.168	0.25	win-noreward	TurnDisplay				
3	74.419	0.75	win-noreward	OutcomeDisplay				
4	75.171		win-noreward	ImageDisplay1		0.0		
4	77.411	0.75	win-noreward	StartDisplay				
4	78.163		win-noreward	ImageDisplay2		0.0		
4	81.172	1.6	win-noreward	ChoiceDisplay	1	0.767	1	1
4	81.958	0.833	win-noreward	ChosenDisplay		0.0		
4	82.777	0.25	win-noreward	TurnDisplay				
4	83.028	0.75	win-noreward	OutcomeDisplay				
5	83.78		win-reward	ImageDisplay1		0.0		
5	86.02	0.75	win-reward	StartDisplay				
5	86.772		win-reward	ImageDisplay2		0.0		
5	89.781	1.6	win-reward	ChoiceDisplay	1	0.545	1	1
5	90.35	1.055	win-reward	ChosenDisplay		0.0		
5	91.386	0.25	win-reward	TurnDisplay				
5	91.637	0.75	win-reward	OutcomeDisplay				
6	92.389		control-noreward	ImageDisplay1		0.0		
6	94.629	0.75	control-noreward	StartDisplay				
6	95.381		control-noreward	ImageDisplay2		0.0		
6	98.39	1.6	control-noreward	ChoiceDisplay	1	0.371	1	1
6	98.775	1.229	control-noreward	ChosenDisplay		0.0		
6	99.995	0.25	control-noreward	TurnDisplay				
6	100.246	0.75	control-noreward	OutcomeDisplay				
7	100.998		control-noreward	ImageDisplay1		0.0		
7	102.987	0.75	control-noreward	StartDisplay				
7	103.756		control-noreward	ImageDisplay2		0.0		
7	106.999	1.6	control-noreward	ChoiceDisplay	1	0.625	1	1
7	107.651	0.975	control-noreward	ChosenDisplay		0.0		
7	108.604	0.25	control-noreward	TurnDisplay				
7	108.855	0.75	control-noreward	OutcomeDisplay				
8	109.607		win-noreward	ImageDisplay1		0.0		
8	111.847	0.75	win-noreward	StartDisplay				
8	112.599		win-noreward	ImageDisplay2		0.0		
8	115.608	1.6	win-noreward	ChoiceDisplay	1	0.62	1	1
8	116.244	0.98	win-noreward	ChosenDisplay		0.0		
8	117.213	0.25	win-noreward	TurnDisplay				
8	117.464	0.75	win-noreward	OutcomeDisplay				
9	118.216		control-reward	ImageDisplay1		0.0		
9	120.456	0.75	control-reward	StartDisplay				
9	121.209		control-reward	ImageDisplay2		0.0		
9	124.217	1.6	control-reward	ChoiceDisplay	1	0.607	1	1
9	124.836	0.993	control-reward	ChosenDisplay		0.0		
9	125.822	0.25	control-reward	TurnDisplay				
9	126.073	0.75	control-reward	OutcomeDisplay				
10	126.825		control-reward	ImageDisplay1		0.0		
10	129.065	0.75	control-reward	StartDisplay				
10	129.817		control-reward	ImageDisplay2		0.0		
10	132.826	1.6	control-reward	ChoiceDisplay	1	0.559	1	1
10	133.412	1.041	control-reward	ChosenDisplay		0.0		
10	134.431	0.25	control-reward	TurnDisplay				
10	134.682	0.75	control-reward	OutcomeDisplay				
11	135.434		loss-reward	ImageDisplay1		0.0		
11	137.674	0.75	loss-reward	StartDisplay				
11	138.427		loss-reward	ImageDisplay2		0.0		
11	141.436	1.6	loss-reward	ChoiceDisplay	1	0.688	1	1
11	142.138	0.912	loss-reward	ChosenDisplay		0.0		
11	143.04	0.25	loss-reward	TurnDisplay				
11	143.291	0.75	loss-reward	OutcomeDisplay				
12	144.043		control-reward	ImageDisplay1		0.0		
12	146.033	0.75	control-reward	StartDisplay				
12	146.785		control-reward	ImageDisplay2		0.0		
12	150.045	1.6	control-reward	ChoiceDisplay	1	0.922	1	1
12	150.981	0.678	control-reward	ChosenDisplay		0.0		
12	151.649	0.25	control-reward	TurnDisplay				
12	151.9	0.75	control-reward	OutcomeDisplay				
13	152.652		loss-noreward	ImageDisplay1		0.0		
13	154.642	0.75	loss-noreward	StartDisplay				
13	155.394		loss-noreward	ImageDisplay2		0.0		
13	158.654	1.6	loss-noreward	ChoiceDisplay	1	0.664	1	1
13	159.339	0.936	loss-noreward	ChosenDisplay		0.0		
13	160.258	0.25	loss-noreward	TurnDisplay				
13	160.509	0.75	loss-noreward	OutcomeDisplay				
14	161.261		win-noreward	ImageDisplay1		0.0		
14	163.251	0.75	win-noreward	StartDisplay				
14	164.003		win-noreward	ImageDisplay2		0.0		
14	167.263	1.6	win-noreward	ChoiceDisplay	1	0.68	1	1
14	167.965	0.92	win-noreward	ChosenDisplay		0.0		
14	168.867	0.25	win-noreward	TurnDisplay				
14	169.118	0.75	win-noreward	OutcomeDisplay				
15	169.87		control-noreward	ImageDisplay1		0.0		
15	172.111	0.75	control-noreward	StartDisplay				
15	172.863		control-noreward	ImageDisplay2		0.0		
15	175.872	1.6	control-noreward	ChoiceDisplay	1	1.023	1	1
15	176.908	0.577	control-noreward	ChosenDisplay		0.0		
15	177.476	0.25	control-noreward	TurnDisplay				
15	177.727	0.75	control-noreward	OutcomeDisplay				
16	178.48		control-reward	ImageDisplay1		0.0		
16	180.469	0.75	control-reward	StartDisplay				
16	181.221		control-reward	ImageDisplay2		0.0		
16	184.481	1.6	control-reward	ChoiceDisplay	1	0.383	1	1
16	184.882	1.217	control-reward	ChosenDisplay		0.0		
16	186.085	0.25	control-reward	TurnDisplay				
16	186.336	0.75	control-reward	OutcomeDisplay				
17	187.089		control-noreward	ImageDisplay1		0.0		
17	189.329	0.75	control-noreward	StartDisplay				
17	190.081		control-noreward	ImageDisplay2		0.0		
17	193.09	1.6	control-noreward	ChoiceDisplay	1	1.233	1	1
17	194.344	0.367	control-noreward	ChosenDisplay		0.0		
17	194.695	0.25	control-noreward	TurnDisplay				
17	194.945	0.75	control-noreward	OutcomeDisplay				
18	195.698		control-reward	ImageDisplay1		0.0		
18	197.938	0.75	control-reward	StartDisplay				
18	198.69		control-reward	ImageDisplay2		0.0		
18	201.699	1.6	control-reward	ChoiceDisplay	1	0.943	1	1
18	202.668	0.657	control-reward	ChosenDisplay		0.0		
18	203.304	0.25	control-reward	TurnDisplay				
18	203.554	0.75	control-reward	OutcomeDisplay				
19	204.307		loss-noreward	ImageDisplay1		0.0		
19	206.296	0.75	loss-noreward	StartDisplay				
19	207.048		loss-noreward	ImageDisplay2		0.0		
19	210.308	1.6	loss-noreward	ChoiceDisplay	1	0.866	1	1
19	211.194	0.734	loss-noreward	ChosenDisplay		0.0		
19	211.913	0.25	loss-noreward	TurnDisplay				
19	212.163	0.75	loss-noreward	OutcomeDisplay				
20	212.916		loss-noreward	ImageDisplay1		0.0		
20	215.156	0.75	loss-noreward	StartDisplay				
20	215.908		loss-noreward	ImageDisplay2		0.0		
20	218.917	1.6	loss-noreward	ChoiceDisplay	1	0.912	1	1
20	219.853	0.688	loss-noreward	ChosenDisplay		0.0		
20	220.522	0.25	loss-noreward	TurnDisplay				
20	220.772	0.75	loss-noreward	OutcomeDisplay				
21	221.525		win-noreward	ImageDisplay1		0.0		
21	223.514	0.75	win-noreward	StartDisplay				
21	224.266		win-noreward	ImageDisplay2		0.0		
21	227.526	1.6	win-noreward	ChoiceDisplay	1	0.621	1	1
21	228.161	0.979	win-noreward	ChosenDisplay		0.0		
21	229.131	0.25	win-noreward	TurnDisplay				
21	229.381	0.75	win-noreward	OutcomeDisplay				
22	230.134		control-noreward	ImageDisplay1		0.0		
22	232.123	0.75	control-noreward	StartDisplay				
22	232.875		control-noreward	ImageDisplay2		0.0		
22	236.135	1.6	control-noreward	ChoiceDisplay	1	0.369	1	1
22	236.519	1.231	control-noreward	ChosenDisplay		0.0		
22	237.74	0.25	control-noreward	TurnDisplay				
22	237.99	0.75	control-noreward	OutcomeDisplay				
23	238.743		control-noreward	ImageDisplay1		0.0		
23	240.983	0.75	control-noreward	StartDisplay				
23	241.735		control-noreward	ImageDisplay2		0.0		
23	244.744	1.6	control-noreward	ChoiceDisplay	1	0.518	1	1
23	245.279	1.082	control-noreward	ChosenDisplay		0.0		
23	246.349	0.25	control-noreward	TurnDisplay				
23	246.6	0.75	control-noreward	OutcomeDisplay				
24	247.352		loss-reward	ImageDisplay1		0.0		
24	249.341	0.75	loss-reward	StartDisplay				
24	250.093		loss-reward	ImageDisplay2		0.0		
24	253.353	1.6	loss-reward	ChoiceDisplay	1	0.994	1	1
24	254.373	0.606	loss-reward	ChosenDisplay		0.0		
24	254.958	0.25	loss-reward	TurnDisplay				
24	255.209	0.75	loss-reward	OutcomeDisplay				
25	255.961		win-noreward	ImageDisplay1		0.0		
25	257.95	0.75	win-noreward	StartDisplay				
25	258.702		win-noreward	ImageDisplay2		0.0		
25	261.962	1.6	win-noreward	ChoiceDisplay	1	1.181	1	1
25	263.166	0.419	win-noreward	ChosenDisplay		0.0		
25	263.567	0.25	win-noreward	TurnDisplay				
25	263.818	0.75	win-noreward	OutcomeDisplay				
26	264.57		control-noreward	ImageDisplay1		0.0		
26	266.559	0.75	control-noreward	StartDisplay				
26	267.311		control-noreward	ImageDisplay2		0.0		
26	270.571	1.6	control-noreward	ChoiceDisplay	1	0.729	1	1
26	271.323	0.871	control-noreward	ChosenDisplay		0.0		
26	272.176	0.25	control-noreward	TurnDisplay				
26	272.427	0.75	control-noreward	OutcomeDisplay				
27	273.179		control-noreward	ImageDisplay1		0.0		
27	275.419	0.75	control-noreward	StartDisplay				
27	276.171		control-noreward	ImageDisplay2		0.0		
27	279.18	1.6	control-noreward	ChoiceDisplay	1	0.51	1	1
27	279.715	1.09	control-noreward	ChosenDisplay		0.0		
27	280.785	0.25	control-noreward	TurnDisplay				
27	281.036	0.75	control-noreward	OutcomeDisplay				
28	281.788		loss-reward	ImageDisplay1		0.0		
28	283.794	0.75	loss-reward	StartDisplay				
28	284.529		loss-reward	ImageDisplay2		0.0		
28	287.789	1.6	loss-reward	ChoiceDisplay	1	0.814	1	1
28	288.625	0.786	loss-reward	ChosenDisplay		0.0		
28	289.394	0.25	loss-reward	TurnDisplay				
28	289.645	0.75	loss-reward	OutcomeDisplay				
29	290.397		win-noreward	ImageDisplay1		0.0		
29	292.637	0.75	win-noreward	StartDisplay				
29	293.389		win-noreward	ImageDisplay2		0.0		
29	296.398	1.6	win-noreward	ChoiceDisplay	1	0.973	1	1
29	297.384	0.627	win-noreward	ChosenDisplay		0.0		
29	298.003	0.25	win-noreward	TurnDisplay				
29	298.254	0.75	win-noreward	OutcomeDisplay				
30	299.006		loss-reward	ImageDisplay1		0.0		
30	300.995	0.75	loss-reward	StartDisplay				
30	301.748		loss-reward	ImageDisplay2		0.0		
30	305.007	1.6	loss-reward	ChoiceDisplay	1	1.193	1	1
30	306.228	0.407	loss-reward	ChosenDisplay		0.0		
30	306.612	0.25	loss-reward	TurnDisplay				
30	306.863	0.75	loss-reward	OutcomeDisplay				
31	307.615		loss-noreward	ImageDisplay1		0.0		
31	309.855	0.75	loss-noreward	StartDisplay				
31	310.607		loss-noreward	ImageDisplay2		0.0		
31	313.616	1.6	loss-noreward	ChoiceDisplay	1	1.115	1	1
31	314.753	0.485	loss-noreward	ChosenDisplay		0.0		
31	315.221	0.25	loss-noreward	TurnDisplay				
31	315.472	0.75	loss-noreward	OutcomeDisplay				
32	316.224		control-reward	ImageDisplay1		0.0		
32	318.213	0.75	control-reward	StartDisplay				
32	318.966		control-reward	ImageDisplay2		0.0		
32	322.225	1.6	control-reward	ChoiceDisplay	1	0.742	1	1
32	322.994	0.858	control-reward	ChosenDisplay		0.0		
32	323.83	0.25	control-reward	TurnDisplay				
32	324.081	0.75	control-reward	OutcomeDisplay				
33	324.833		loss-noreward	ImageDisplay1		0.0		
33	326.822	0.75	loss-noreward	StartDisplay				
33	327.575		loss-noreward	ImageDisplay2		0.0		
33	330.834	1.6	loss-noreward	ChoiceDisplay	1	1.088	1	1
33	331.938	0.512	loss-noreward	ChosenDisplay		0.0		
33	332.439	0.25	loss-noreward	TurnDisplay				
33	332.69	0.75	loss-noreward	OutcomeDisplay				
34	333.442		loss-reward	ImageDisplay1		0.0		
34	335.682	0.75	loss-reward	StartDisplay				
34	336.434		loss-reward	ImageDisplay2		0.0		
34	339.443	1.6	loss-reward	ChoiceDisplay	1	1.397	1	1
34	340.864	0.203	loss-reward	ChosenDisplay		0.0		
34	341.048	0.25	loss-reward	TurnDisplay				
34	341.299	0.75	loss-reward	OutcomeDisplay				
35	342.051		control-noreward	ImageDisplay1		0.0		
35	344.04	0.75	control-noreward	StartDisplay				
35	344.793		control-noreward	ImageDisplay2		0.0		
35	348.052	1.6	control-noreward	ChoiceDisplay	1	1.129	1	1
35	349.206	0.471	control-noreward	ChosenDisplay		0.0		
35	349.657	0.25	control-noreward	TurnDisplay				
35	349.908	0.75	control-noreward	OutcomeDisplay				
36	350.66		loss-noreward	ImageDisplay1		0.0		
36	352.649	0.75	loss-noreward	StartDisplay				
36	353.402		loss-noreward	ImageDisplay2		0.0		
36	356.661	1.6	loss-noreward	ChoiceDisplay	1	0.877	1	1
36	357.564	0.723	loss-noreward	ChosenDisplay		0.0		
36	358.266	0.25	loss-noreward	TurnDisplay				
36	358.517	0.75	loss-noreward	OutcomeDisplay				
37	359.269		win-reward	ImageDisplay1		0.0		
37	361.509	0.75	win-reward	StartDisplay				
37	362.261		win-reward	ImageDisplay2		0.0		
37	365.271	1.6	win-reward	ChoiceDisplay	1	1.129	1	1
37	366.424	0.471	win-reward	ChosenDisplay		0.0		
37	366.875	0.25	win-reward	TurnDisplay				
37	367.126	0.75	win-reward	OutcomeDisplay				
38	367.878		loss-noreward	ImageDisplay1		0.0		
38	370.118	0.75	loss-noreward	StartDisplay				
38	370.871		loss-noreward	ImageDisplay2		0.0		
38	373.88	1.6	loss-noreward	ChoiceDisplay	1	1.08	1	1
38	374.983	0.52	loss-noreward	ChosenDisplay		0.0		
38	375.484	0.25	loss-noreward	TurnDisplay				
38	375.735	0.75	loss-noreward	OutcomeDisplay				
39	376.487		control-noreward	ImageDisplay1		0.0		
39	378.477	0.75	control-noreward	StartDisplay				
39	379.229		control-noreward	ImageDisplay2		0.0		
39	382.489	1.6	control-noreward	ChoiceDisplay	1	0.743	1	1
39	383.258	0.857	control-noreward	ChosenDisplay		0.0		
39	384.093	0.25	control-noreward	TurnDisplay				
39	384.344	0.75	control-noreward	OutcomeDisplay				
40	385.096		loss-noreward	ImageDisplay1		0.0		
40	387.336	0.75	loss-noreward	StartDisplay				
40	388.089		loss-noreward	ImageDisplay2		0.0		
40	391.098	1.6	loss-noreward	ChoiceDisplay	1	1.089	1	1
40	392.201	0.511	loss-noreward	ChosenDisplay		0.0		
40	392.702	0.25	loss-noreward	TurnDisplay				
40	392.953	0.75	loss-noreward	OutcomeDisplay				
41	393.705		win-noreward	ImageDisplay1		0.0		
41	395.945	0.75	win-noreward	StartDisplay				
41	396.698		win-noreward	ImageDisplay2		0.0		
41	399.707	1.6	win-noreward	ChoiceDisplay	1	0.971	1	1
41	400.693	0.629	win-noreward	ChosenDisplay		0.0		
41	401.311	0.25	win-noreward	TurnDisplay				
41	401.562	0.75	win-noreward	OutcomeDisplay				
42	402.314		control-reward	ImageDisplay1		0.0		
42	404.304	0.75	control-reward	StartDisplay				
42	405.056		control-reward	ImageDisplay2		0.0		
42	408.316	1.6	control-reward	ChoiceDisplay	1	0.562	1	1
42	408.901	1.038	control-reward	ChosenDisplay		0.0		
42	409.92	0.25	control-reward	TurnDisplay				
42	410.171	0.75	control-reward	OutcomeDisplay				
43	410.923		loss-reward	ImageDisplay1		0.0		
43	412.913	0.75	loss-reward	StartDisplay				
43	413.665		loss-reward	ImageDisplay2		0.0		
43	416.925	1.6	loss-reward	ChoiceDisplay	1	1.288	1	1
43	418.229	0.312	loss-reward	ChosenDisplay		0.0		
43	418.529	0.25	loss-reward	TurnDisplay				
43	418.78	0.75	loss-reward	OutcomeDisplay				
44	419.532		loss-reward	ImageDisplay1		0.0		
44	421.773	0.75	loss-reward	StartDisplay				
44	422.525		loss-reward	ImageDisplay2		0.0		
44	425.534	1.6	loss-reward	ChoiceDisplay	1	0.622	1	1
44	426.169	0.978	loss-reward	ChosenDisplay		0.0		
44	427.139	0.25	loss-reward	TurnDisplay				
44	427.389	0.75	loss-reward	OutcomeDisplay				
45	428.142		win-reward	ImageDisplay1		0.0		
45	430.131	0.75	win-reward	StartDisplay				
45	430.883		win-reward	ImageDisplay2		0.0		
45	434.143	1.6	win-reward	ChoiceDisplay	1	1.443	1	1
45	435.614	0.157	win-reward	ChosenDisplay		0.0		
45	435.748	0.25	win-reward	TurnDisplay				
45	435.998	0.75	win-reward	OutcomeDisplay				
46	436.751		loss-reward	ImageDisplay1		0.0		
46	438.74	0.75	loss-reward	StartDisplay				
46	439.492		loss-reward	ImageDisplay2		0.0		
46	442.752	1.6	loss-reward	ChoiceDisplay	1	1.443	1	1
46	444.223	0.157	loss-reward	ChosenDisplay		0.0		
46	444.357	0.25	loss-reward	TurnDisplay				
46	444.607	0.75	loss-reward	OutcomeDisplay				
47	445.36		win-reward	ImageDisplay1		0.0		
47	447.349	0.75	win-reward	StartDisplay				
47	448.101		win-reward	ImageDisplay2		0.0		
47	451.361	1.6	win-reward	ChoiceDisplay	1	1.17	1	1
47	452.548	0.43	win-reward	ChosenDisplay		0.0		
47	452.966	0.25	win-reward	TurnDisplay				
47	453.216	0.75	win-reward	OutcomeDisplay				
48	453.969		control-noreward	ImageDisplay1		0.0		
48	455.958	0.75	control-noreward	StartDisplay				
48	456.71		control-noreward	ImageDisplay2		0.0		
48	459.97	1.6	control-noreward	ChoiceDisplay	1	1.407	1	1
48	461.391	0.193	control-noreward	ChosenDisplay		0.0		
48	461.575	0.25	control-noreward	TurnDisplay				
48	461.825	0.75	control-noreward	OutcomeDisplay				
49	462.578		control-noreward	ImageDisplay1		0.0		
49	464.567	0.75	control-noreward	StartDisplay				
49	465.319		control-noreward	ImageDisplay2		0.0		
49	468.579	1.6	control-noreward	ChoiceDisplay	1	0.566	1	1
49	469.164	1.034	control-noreward	ChosenDisplay		0.0		
49	470.184	0.25	control-noreward	TurnDisplay				
49	470.434	0.75	control-noreward	OutcomeDisplay				
50	471.187		win-noreward	ImageDisplay1		0.0		
50	473.176	0.75	win-noreward	StartDisplay				
50	473.928		win-noreward	ImageDisplay2		0.0		
50	477.188	1.6	win-noreward	ChoiceDisplay	1	0.957	1	1
50	478.174	0.643	win-noreward	ChosenDisplay		0.0		
50	478.793	0.25	win-noreward	TurnDisplay				
50	479.044	0.75	win-noreward	OutcomeDisplay				
51	479.796		win-reward	ImageDisplay1		0.0		
51	482.036	0.75	win-reward	StartDisplay				
51	482.788		win-reward	ImageDisplay2		0.0		
51	485.797	1.6	win-reward	ChoiceDisplay	1	1.353	1	1
51	487.168	0.247	win-reward	ChosenDisplay		0.0		
51	487.402	0.25	win-reward	TurnDisplay				
51	487.653	0.75	win-reward	OutcomeDisplay				
52	488.405		win-noreward	ImageDisplay1		0.0		
52	490.394	0.75	win-noreward	StartDisplay				
52	491.146		win-noreward	ImageDisplay2		0.0		
52	494.406	1.6	win-noreward	ChoiceDisplay	1	1.304	1	1
52	495.727	0.296	win-noreward	ChosenDisplay		0.0		
52	496.011	0.25	win-noreward	TurnDisplay				
52	496.262	0.75	win-noreward	OutcomeDisplay				
53	497.014		win-noreward	ImageDisplay1		0.0		
53	499.003	0.75	win-noreward	StartDisplay				
53	499.755		win-noreward	ImageDisplay2		0.0		
53	503.015	1.6	win-noreward	ChoiceDisplay		0.0		
53	504.603	0.0	win-noreward	ChosenDisplay		0.0		
53	504.62	0.25	win-noreward	TurnDisplay				
53	504.871	0.75	win-noreward	OutcomeDisplay				
54	505.606		win-reward	ImageDisplay1		0.0		
54	507.863	0.75	win-reward	StartDisplay				
54	508.615		win-reward	ImageDisplay2		0.0		
54	511.607	1.6	win-reward	ChoiceDisplay	1	1.293	1	1
54	512.928	0.307	win-reward	ChosenDisplay		0.0		
54	513.212	0.25	win-reward	TurnDisplay				
54	513.463	0.75	win-reward	OutcomeDisplay				
55	514.215		win-reward	ImageDisplay1		0.0		
55	516.455	0.75	win-reward	StartDisplay				
55	517.207		win-reward	ImageDisplay2		0.0		
55	520.216	1.6	win-reward	ChoiceDisplay	1	1.338	1	1
55	521.57	0.262	win-reward	ChosenDisplay		0.0		
55	521.821	0.25	win-reward	TurnDisplay				
55	522.072	0.75	win-reward	OutcomeDisplay				
56	522.824		control-reward	ImageDisplay1		0.0		
56	525.064	0.75	control-reward	StartDisplay				
56	525.816		control-reward	ImageDisplay2		0.0		
56	528.825	1.6	control-reward	ChoiceDisplay	1	0.497	1	1
56	529.344	1.103	control-reward	ChosenDisplay		0.0		
56	530.43	0.25	control-reward	TurnDisplay				
56	530.681	0.75	control-reward	OutcomeDisplay				
57	531.433		win-reward	ImageDisplay1		0.0		
57	533.423	0.75	win-reward	StartDisplay				
57	534.175		win-reward	ImageDisplay2		0.0		
57	537.435	1.6	win-reward	ChoiceDisplay	1	1.151	1	1
57	538.605	0.449	win-reward	ChosenDisplay		0.0		
57	539.039	0.25	win-reward	TurnDisplay				
57	539.29	0.75	win-reward	OutcomeDisplay				
58	540.042		loss-reward	ImageDisplay1		0.0		
58	542.282	0.75	loss-reward	StartDisplay				
58	543.035		loss-reward	ImageDisplay2		0.0		
58	546.044	1.6	loss-reward	ChoiceDisplay		0.0		
58	547.632	0.0	loss-reward	ChosenDisplay		0.0		
58	547.648	0.25	loss-reward	TurnDisplay				
58	547.882	0.75	loss-reward	OutcomeDisplay				
59	548.635		control-reward	ImageDisplay1		0.0		
59	550.891	0.75	control-reward	StartDisplay				
59	551.644		control-reward	ImageDisplay2		0.0		
59	554.636	1.6	control-reward	ChoiceDisplay	1	0.399	1	1
59	555.054	1.201	control-reward	ChosenDisplay		0.0		
59	556.241	0.25	control-reward	TurnDisplay				
59	556.491	0.75	control-reward	OutcomeDisplay				
60	557.244		win-noreward	ImageDisplay1		0.0		
60	559.484	0.75	win-noreward	StartDisplay				
60	560.236		win-noreward	ImageDisplay2		0.0		
60	563.245	1.6	win-noreward	ChoiceDisplay	1	1.295	1	1
60	564.565	0.305	win-noreward	ChosenDisplay		0.0		
60	564.85	0.25	win-noreward	TurnDisplay				
60	565.1	0.75	win-noreward	OutcomeDisplay				
61	565.853		win-reward	ImageDisplay1		0.0		
61	568.093	0.75	win-reward	StartDisplay				
61	568.845		win-reward	ImageDisplay2		0.0		
61	571.854	1.6	win-reward	ChoiceDisplay	1	1.198	1	1
61	573.074	0.402	win-reward	ChosenDisplay		0.0		
61	573.459	0.25	win-reward	TurnDisplay				
61	573.709	0.75	win-reward	OutcomeDisplay				
62	574.462		control-noreward	ImageDisplay1		0.0		
62	576.702	0.75	control-noreward	StartDisplay				
62	577.454		control-noreward	ImageDisplay2		0.0		
62	580.463	1.6	control-noreward	ChoiceDisplay	1	1.51	1	1
62	581.984	0.0	control-noreward	ChosenDisplay		0.0		
62	582.068	0.25	control-noreward	TurnDisplay				
62	582.235	0.75	control-noreward	OutcomeDisplay				
63	582.97		loss-reward	ImageDisplay1		0.0		
63	584.976	0.75	loss-reward	StartDisplay				
63	585.729		loss-reward	ImageDisplay2		0.0		
63	588.972	1.6	loss-reward	ChoiceDisplay	1	1.292	1	1
63	590.292	0.308	loss-reward	ChosenDisplay		0.0		
63	590.576	0.25	loss-reward	TurnDisplay				
63	590.827	0.75	loss-reward	OutcomeDisplay				
64	591.579		loss-reward	ImageDisplay1		0.0		
64	593.569	0.75	loss-reward	StartDisplay				
64	594.321		loss-reward	ImageDisplay2		0.0		
64	597.581	1.6	loss-reward	ChoiceDisplay	1	1.355	1	1
64	598.951	0.245	loss-reward	ChosenDisplay		0.0		
64	599.186	0.25	loss-reward	TurnDisplay				
64	599.436	0.75	loss-reward	OutcomeDisplay				
65	600.189		loss-reward	ImageDisplay1		0.0		
65	602.178	0.75	loss-reward	StartDisplay				
65	602.947		loss-reward	ImageDisplay2		0.0		
65	606.19	1.6	loss-reward	ChoiceDisplay	1	1.2	1	1
65	607.41	0.4	loss-reward	ChosenDisplay		0.0		
65	607.795	0.25	loss-reward	TurnDisplay				
65	608.045	0.75	loss-reward	OutcomeDisplay				
66	608.798		loss-reward	ImageDisplay1		0.0		
66	611.038	0.75	loss-reward	StartDisplay				
66	611.79		loss-reward	ImageDisplay2		0.0		
66	614.799	1.6	loss-reward	ChoiceDisplay	1	1.436	1	1
66	616.253	0.164	loss-reward	ChosenDisplay		0.0		
66	616.404	0.25	loss-reward	TurnDisplay				
66	616.654	0.75	loss-reward	OutcomeDisplay				
67	617.407		control-reward	ImageDisplay1		0.0		
67	619.647	0.75	control-reward	StartDisplay				
67	620.399		control-reward	ImageDisplay2		0.0		
67	623.408	1.6	control-reward	ChoiceDisplay	1	1.26	1	1
67	624.695	0.34	control-reward	ChosenDisplay		0.0		
67	625.013	0.25	control-reward	TurnDisplay				
67	625.263	0.75	control-reward	OutcomeDisplay				
68	626.016		win-reward	ImageDisplay1		0.0		
68	628.005	0.75	win-reward	StartDisplay				
68	628.757		win-reward	ImageDisplay2		0.0		
68	632.017	1.6	win-reward	ChoiceDisplay	1	1.149	1	1
68	633.187	0.451	win-reward	ChosenDisplay		0.0		
68	633.622	0.25	win-reward	TurnDisplay				
68	633.872	0.75	win-reward	OutcomeDisplay				
69	634.625		control-reward	ImageDisplay1		0.0		
69	636.614	0.75	control-reward	StartDisplay				
69	637.366		control-reward	ImageDisplay2		0.0		
69	640.626	1.6	control-reward	ChoiceDisplay	1	0.808	1	1
69	641.462	0.792	control-reward	ChosenDisplay		0.0		
69	642.231	0.25	control-reward	TurnDisplay				
69	642.481	0.75	control-reward	OutcomeDisplay				
70	643.234		win-reward	ImageDisplay1		0.0		
70	645.474	0.75	win-reward	StartDisplay				
70	646.226		win-reward	ImageDisplay2		0.0		
70	649.235	1.6	win-reward	ChoiceDisplay	1	0.974	1	1
70	650.238	0.626	win-reward	ChosenDisplay		0.0		
70	650.84	0.25	win-reward	TurnDisplay				
70	651.09	0.75	win-reward	OutcomeDisplay				
71	651.843		loss-noreward	ImageDisplay1		0.0		
71	654.083	0.75	loss-noreward	StartDisplay				
71	654.835		loss-noreward	ImageDisplay2		0.0		
71	657.844	1.6	loss-noreward	ChoiceDisplay	1	1.074	1	1
71	658.931	0.526	loss-noreward	ChosenDisplay		0.0		
71	659.449	0.25	loss-noreward	TurnDisplay				
71	659.7	0.75	loss-noreward	OutcomeDisplay				
72	660.452		win-reward	ImageDisplay1		0.0		
72	662.441	0.75	win-reward	StartDisplay				
72	663.193		win-reward	ImageDisplay2		0.0		
72	666.453	1.6	win-reward	ChoiceDisplay	1	1.182	1	1
72	667.657	0.418	win-reward	ChosenDisplay		0.0		
72	668.058	0.25	win-reward	TurnDisplay				
72	668.309	0.75	win-reward	OutcomeDisplay				
73	669.061		win-reward	ImageDisplay1		0.0		
73	671.301	0.75	win-reward	StartDisplay				
73	672.053		win-reward	ImageDisplay2		0.0		
73	675.062	1.6	win-reward	ChoiceDisplay	1	1.248	1	1
73	676.333	0.352	win-reward	ChosenDisplay		0.0		
73	676.667	0.25	win-reward	TurnDisplay				
73	676.918	0.75	win-reward	OutcomeDisplay				
74	677.67		loss-noreward	ImageDisplay1		0.0		
74	679.659	0.75	loss-noreward	StartDisplay				
74	680.411		loss-noreward	ImageDisplay2		0.0		
74	683.671	1.6	loss-noreward	ChoiceDisplay	1	1.227	1	1
74	684.925	0.373	loss-noreward	ChosenDisplay		0.0		
74	685.276	0.25	loss-noreward	TurnDisplay				
74	685.527	0.75	loss-noreward	OutcomeDisplay				
75	686.279		loss-reward	ImageDisplay1		0.0		
75	688.519	0.75	loss-reward	StartDisplay				
75	689.271		loss-reward	ImageDisplay2		0.0		
75	692.28	1.6	loss-reward	ChoiceDisplay	1	1.316	1	1
75	693.617	0.284	loss-reward	ChosenDisplay		0.0		
75	693.885	0.25	loss-reward	TurnDisplay				
75	694.136	0.75	loss-reward	OutcomeDisplay				
76	694.888		loss-noreward	ImageDisplay1		0.0		
76	696.877	0.75	loss-noreward	StartDisplay				
76	697.629		loss-noreward	ImageDisplay2		0.0		
76	700.889	1.6	loss-noreward	ChoiceDisplay	1	1.277	1	1
76	702.193	0.323	loss-noreward	ChosenDisplay		0.0		
76	702.494	0.25	loss-noreward	TurnDisplay				
76	702.745	0.75	loss-noreward	OutcomeDisplay				
77	703.497		loss-noreward	ImageDisplay1		0.0		
77	705.737	0.75	loss-noreward	StartDisplay				
77	706.489		loss-noreward	ImageDisplay2		0.0		
77	709.498	1.6	loss-noreward	ChoiceDisplay	1	1.149	1	1
77	710.668	0.451	loss-noreward	ChosenDisplay		0.0		
77	711.103	0.25	loss-noreward	TurnDisplay				
77	711.354	0.75	loss-noreward	OutcomeDisplay				
78	712.106		win-noreward	ImageDisplay1		0.0		
78	714.095	0.75	win-noreward	StartDisplay				
78	714.848		win-noreward	ImageDisplay2		0.0		
78	718.107	1.6	win-noreward	ChoiceDisplay	1	1.184	1	1
78	719.311	0.416	win-noreward	ChosenDisplay		0.0		
78	719.712	0.25	win-noreward	TurnDisplay				
78	719.963	0.75	win-noreward	OutcomeDisplay				
79	720.715		loss-reward	ImageDisplay1		0.0		
79	722.955	0.75	loss-reward	StartDisplay				
79	723.707		loss-reward	ImageDisplay2		0.0		
79	726.716	1.6	loss-reward	ChoiceDisplay	1	1.394	1	1
79	728.137	0.206	loss-reward	ChosenDisplay		0.0		
79	728.338	0.25	loss-reward	TurnDisplay				
79	728.572	0.75	loss-reward	OutcomeDisplay				
80	729.324		control-reward	ImageDisplay1		0.0		
80	731.313	0.75	control-reward	StartDisplay				
80	732.066		control-reward	ImageDisplay2		0.0		
80	735.325	1.6	control-reward	ChoiceDisplay	1	1.363	1	1
80	736.713	0.237	control-reward	ChosenDisplay		0.0		
80	736.93	0.25	control-reward	TurnDisplay				
80	737.181	0.75	control-reward	OutcomeDisplay				
81	737.933		loss-noreward	ImageDisplay1		0.0		
81	740.173	0.75	loss-noreward	StartDisplay				
81	740.925		loss-noreward	ImageDisplay2		0.0		
81	743.934	1.6	loss-noreward	ChoiceDisplay	1	1.12	1	1
81	745.071	0.48	loss-noreward	ChosenDisplay		0.0		
81	745.539	0.25	loss-noreward	TurnDisplay				
81	745.79	0.75	loss-noreward	OutcomeDisplay				
82	746.542		win-reward	ImageDisplay1		0.0		
82	748.531	0.75	win-reward	StartDisplay				
82	749.284		win-reward	ImageDisplay2		0.0		
82	752.543	1.6	win-reward	ChoiceDisplay	1	1.316	1	1
82	753.881	0.284	win-reward	ChosenDisplay		0.0		
82	754.148	0.25	win-reward	TurnDisplay				
82	754.399	0.75	win-reward	OutcomeDisplay				
83	755.151		loss-noreward	ImageDisplay1		0.0		
83	757.14	0.75	loss-noreward	StartDisplay				
83	757.893		loss-noreward	ImageDisplay2		0.0		
83	761.152	1.6	loss-noreward	ChoiceDisplay	1	1.163	1	1
83	762.339	0.437	loss-noreward	ChosenDisplay		0.0		
83	762.757	0.25	loss-noreward	TurnDisplay				
83	763.008	0.75	loss-noreward	OutcomeDisplay				
84	763.76		win-noreward	ImageDisplay1		0.0		
84	766.0	0.75	win-noreward	StartDisplay				
84	766.753		win-noreward	ImageDisplay2		0.0		
84	769.762	1.6	win-noreward	ChoiceDisplay	1	1.293	1	1
84	771.082	0.307	win-noreward	ChosenDisplay		0.0		
84	771.366	0.25	win-noreward	TurnDisplay				
84	771.617	0.75	win-noreward	OutcomeDisplay				
85	772.369		control-noreward	ImageDisplay1		0.0		
85	774.609	0.75	control-noreward	StartDisplay				
85	775.362		control-noreward	ImageDisplay2		0.0		
85	778.371	1.6	control-noreward	ChoiceDisplay	1	0.979	1	1
85	779.374	0.621	control-noreward	ChosenDisplay		0.0		
85	779.975	0.25	control-noreward	TurnDisplay				
85	780.226	0.75	control-noreward	OutcomeDisplay				
86	780.978		loss-reward	ImageDisplay1		0.0		
86	782.968	0.75	loss-reward	StartDisplay				
86	783.72		loss-reward	ImageDisplay2		0.0		
86	786.98	1.6	loss-reward	ChoiceDisplay	1	1.202	1	1
86	788.2	0.398	loss-reward	ChosenDisplay		0.0		
86	788.584	0.25	loss-reward	TurnDisplay				
86	788.835	0.75	loss-reward	OutcomeDisplay				
87	789.587		control-reward	ImageDisplay1		0.0		
87	791.577	0.75	control-reward	StartDisplay				
87	792.329		control-reward	ImageDisplay2		0.0		
87	795.589	1.6	control-reward	ChoiceDisplay	1	0.886	1	1
87	796.491	0.714	control-reward	ChosenDisplay		0.0		
87	797.193	0.25	control-reward	TurnDisplay				
87	797.444	0.75	control-reward	OutcomeDisplay				
88	798.196		win-reward	ImageDisplay1		0.0		
88	800.186	0.75	win-reward	StartDisplay				
88	800.938		win-reward	ImageDisplay2		0.0		
88	804.198	1.6	win-reward	ChoiceDisplay	1	1.193	1	1
88	805.418	0.407	win-reward	ChosenDisplay		0.0		
88	805.802	0.25	win-reward	TurnDisplay				
88	806.053	0.75	win-reward	OutcomeDisplay				
89	806.805		control-reward	ImageDisplay1		0.0		
89	809.045	0.75	control-reward	StartDisplay				
89	809.798		control-reward	ImageDisplay2		0.0		
89	812.807	1.6	control-reward	ChoiceDisplay	1	1.235	1	1
89	814.06	0.365	control-reward	ChosenDisplay		0.0		
89	814.411	0.25	control-reward	TurnDisplay				
89	814.662	0.75	control-reward	OutcomeDisplay				
90	815.414		control-reward	ImageDisplay1		0.0		
90	817.404	0.75	control-reward	StartDisplay				
90	818.156		control-reward	ImageDisplay2		0.0		
90	821.416	1.6	control-reward	ChoiceDisplay	1	0.326	1	1
90	821.767	1.274	control-reward	ChosenDisplay		0.0		
90	823.02	0.25	control-reward	TurnDisplay				
90	823.271	0.75	control-reward	OutcomeDisplay				
91	824.023		win-reward	ImageDisplay1		0.0		
91	826.013	0.75	win-reward	StartDisplay				
91	826.765		win-reward	ImageDisplay2		0.0		
91	830.025	1.6	win-reward	ChoiceDisplay	1	1.295	1	1
91	831.345	0.305	win-reward	ChosenDisplay		0.0		
91	831.63	0.25	win-reward	TurnDisplay				
91	831.88	0.75	win-reward	OutcomeDisplay				
92	832.633		win-reward	ImageDisplay1		0.0		
92	834.873	0.75	win-reward	StartDisplay				
92	835.625		win-reward	ImageDisplay2		0.0		
92	838.634	1.6	win-reward	ChoiceDisplay	1	1.431	1	1
92	840.088	0.169	win-reward	ChosenDisplay		0.0		
92	840.239	0.25	win-reward	TurnDisplay				
92	840.489	0.75	win-reward	OutcomeDisplay				
93	841.242		control-noreward	ImageDisplay1		0.0		
93	843.482	0.75	control-noreward	StartDisplay				
93	844.234		control-noreward	ImageDisplay2		0.0		
93	847.243	1.6	control-noreward	ChoiceDisplay	1	1.536	1	1
93	848.797	0.0	control-noreward	ChosenDisplay		0.0		
93	848.848	0.25	control-noreward	TurnDisplay				
93	849.031	0.75	control-noreward	OutcomeDisplay				
94	849.784		control-noreward	ImageDisplay1		0.0		
94	851.79	0.75	control-noreward	StartDisplay				
94	852.542		control-noreward	ImageDisplay2		0.0		
94	855.785	1.6	control-noreward	ChoiceDisplay	1	1.153	1	1
94	856.955	0.447	control-noreward	ChosenDisplay		0.0		
94	857.39	0.25	control-noreward	TurnDisplay				
94	857.641	0.75	control-noreward	OutcomeDisplay				
95	858.393		win-reward	ImageDisplay1		0.0		
95	860.382	0.75	win-reward	StartDisplay				
95	861.134		win-reward	ImageDisplay2		0.0		
95	864.394	1.6	win-reward	ChoiceDisplay	1	1.427	1	1
95	865.848	0.173	win-reward	ChosenDisplay		0.0		
95	865.999	0.25	win-reward	TurnDisplay				
95	866.25	0.75	win-reward	OutcomeDisplay				
