onset	duration	trial_type	response_time	stim_file	accuracy
0.5229999999999961	1.0	go	0.716	Go_X	1.0
3.046999999999997	1.0	go	0.363	Go_O	0.0
5.570999999999998	1.0	go	0.254	Go_X	1.0
8.096000000000004	1.0	go	0.271	Go_O	1.0
10.620000000000005	1.0	go	0.291	Go_X	1.0
13.144000000000005	1.0	go	0.31	Go_O	1.0
15.668000000000006	0.25	stopfail	0.372	Go_O	0.0
18.193000000000012	1.0	go	0.289	Go_X	1.0
20.733000000000004	0.2	stopfail	0.285	Go_X	0.0
23.25800000000001	1.0	go	0.441	Go_O	1.0
25.799000000000007	1.0	go	0.347	Go_X	1.0
28.323000000000008	1.0	go	0.314	Go_O	1.0
30.84700000000001	0.15	stopsuccess	0.0	Go_O	1.0
33.37100000000001	1.0	go	0.285	Go_X	1.0
35.89599999999999	1.0	go	0.298	Go_O	0.0
38.41999999999999	0.2	stopfail	0.379	Go_X	0.0
40.96100000000001	0.15	stopsuccess	0.0	Go_O	1.0
43.50200000000001	1.0	go	0.34	Go_X	1.0
46.02600000000001	1.0	go	0.318	Go_O	1.0
48.55000000000001	0.2	stopfail	0.268	Go_X	0.0
51.07400000000001	1.0	go	0.313	Go_O	1.0
53.59899999999999	1.0	go	0.353	Go_X	1.0
56.12299999999999	0.15	stopfail	0.325	Go_O	0.0
58.64699999999999	1.0	go	0.396	Go_O	1.0
61.17099999999999	1.0	go	0.335	Go_X	1.0
63.69499999999999	0.1	stopsuccess	0.0	Go_X	1.0
66.22	1.0	go	0.398	Go_X	1.0
68.744	1.0	go	0.327	Go_O	1.0
71.268	0.15	stopsuccess	0.0	Go_O	1.0
73.809	1.0	go	0.31	Go_O	0.0
76.333	1.0	go	0.369	Go_X	1.0
78.858	1.0	go	0.339	Go_X	1.0
81.382	1.0	go	0.33	Go_O	1.0
83.906	1.0	go	0.331	Go_X	0.0
86.43	0.2	stopfail	0.368	Go_X	0.0
88.95400000000001	1.0	go	0.378	Go_O	1.0
91.47899999999998	1.0	go	0.341	Go_O	1.0
94.00299999999999	1.0	go	0.447	Go_X	1.0
96.52699999999999	1.0	go	0.315	Go_X	1.0
99.05099999999999	1.0	go	0.269	Go_O	1.0
101.576	0.15	stopfail	0.478	Go_O	0.0
104.11599999999999	1.0	go	0.525	Go_O	1.0
106.64099999999999	1.0	go	0.362	Go_X	1.0
109.18199999999999	1.0	go	0.441	Go_O	1.0
111.70599999999999	1.0	go	0.303	Go_X	1.0
114.24699999999999	1.0	go	0.302	Go_X	1.0
116.77099999999999	1.0	go	0.368	Go_O	1.0
119.29499999999999	0.1	stopfail	0.432	Go_X	0.0
121.81899999999999	1.0	go	0.477	Go_X	1.0
124.344	1.0	go	0.404	Go_O	1.0
126.868	0.05	stopsuccess	0.0	Go_O	1.0
129.409	1.0	go	0.522	Go_X	1.0
131.933	0.1	stopsuccess	0.0	Go_X	1.0
134.474	0.15	stopsuccess	0.0	Go_O	1.0
136.998	1.0	go	0.348	Go_O	1.0
139.52200000000002	1.0	go	0.341	Go_X	1.0
142.047	1.0	go	0.458	Go_O	1.0
144.571	1.0	go	0.41	Go_O	1.0
147.095	0.2	stopfail	0.255	Go_X	0.0
149.619	1.0	go	0.488	Go_X	1.0
152.14399999999998	0.15	stopfail	0.37	Go_O	0.0
154.68499999999997	1.0	go	0.256	Go_X	1.0
157.20899999999997	1.0	go	0.314	Go_O	1.0
159.73299999999998	1.0	go	0.301	Go_X	1.0
162.25699999999998	1.0	go	0.375	Go_O	1.0
164.782	1.0	go	0.322	Go_O	1.0
167.306	1.0	go	0.311	Go_X	1.0
169.847	1.0	go	0.292	Go_O	1.0
172.388	1.0	go	0.345	Go_X	1.0
174.929	1.0	go	0.476	Go_O	1.0
177.46900000000002	0.1	stopfail	0.346	Go_X	0.0
180.01000000000002	1.0	go	0.34	Go_X	1.0
182.535	1.0	go	0.385	Go_O	1.0
185.059	1.0	go	0.39	Go_X	1.0
187.583	0.05	stopfail	0.391	Go_O	0.0
190.107	1.0	go	0.325	Go_O	0.0
192.631	1.0	go	0.233	Go_X	1.0
195.15599999999998	1.0	go	0.407	Go_X	1.0
197.67999999999998	1.0	go	0.344	Go_O	1.0
200.20399999999998	1.0	go	0.35	Go_O	1.0
202.72799999999998	1.0	go	0.33	Go_X	1.0
205.25300000000001	0.0	stopfail	0.542	Go_X	0.0
207.80999999999997	1.0	go	0.366	Go_O	1.0
210.33399999999997	1.0	go	0.268	Go_X	1.0
212.859	0.0	stopsuccess	0.0	Go_O	1.0
215.41600000000003	1.0	go	0.222	Go_X	1.0
217.941	1.0	go	0.33	Go_O	1.0
220.482	0.05	stopsuccess	0.0	Go_X	1.0
223.023	1.0	go	0.306	Go_O	1.0
225.547	0.1	stopsuccess	0.0	Go_O	1.0
228.071	1.0	go	0.387	Go_X	1.0
230.612	1.0	go	0.617	Go_X	1.0
233.136	1.0	go	0.39	Go_O	1.0
235.66	1.0	go	0.582	Go_O	1.0
238.18499999999997	1.0	go	0.351	Go_X	1.0
240.725	0.15	stopfail	0.398	Go_X	0.0
243.266	0.1	stopfail	0.309	Go_O	0.0
245.79100000000003	1.0	go	0.399	Go_O	1.0
248.31500000000003	1.0	go	0.362	Go_X	1.0
250.85600000000002	0.05	stopfail	0.414	Go_X	0.0
253.38000000000002	1.0	go	0.411	Go_O	1.0
255.90400000000002	1.0	go	0.919	Go_X	1.0
258.429	1.0	go	0.268	Go_O	1.0
260.953	1.0	go	0.228	Go_X	1.0
263.477	1.0	go	0.272	Go_X	1.0
266.001	1.0	go	0.272	Go_O	1.0
268.525	0.0	stopsuccess	0.0	Go_O	1.0
271.06600000000003	1.0	go	0.258	Go_X	1.0
273.591	1.0	go	0.354	Go_O	1.0
276.115	1.0	go	0.352	Go_O	1.0
278.639	1.0	go	0.319	Go_X	1.0
281.17999999999995	1.0	go	0.301	Go_X	0.0
283.70399999999995	0.05	stopfail	0.332	Go_X	0.0
286.245	1.0	go	0.421	Go_O	1.0
288.769	1.0	go	0.434	Go_X	1.0
291.294	1.0	go	0.419	Go_O	1.0
293.818	1.0	go	0.323	Go_O	1.0
296.342	0.0	stopsuccess	0.0	Go_O	1.0
298.88300000000004	1.0	go	0.255	Go_X	1.0
301.40700000000004	1.0	go	0.367	Go_O	1.0
303.93100000000004	0.05	stopfail	0.405	Go_X	0.0
306.456	1.0	go	0.352	Go_X	1.0
308.98	0.0	stopfail	0.309	Go_O	0.0
311.52099999999996	1.0	go	0.413	Go_O	1.0
314.04499999999996	1.0	go	0.355	Go_X	1.0
316.56899999999996	1.0	go	0.29	Go_O	1.0
319.09299999999996	1.0	go	0.385	Go_X	1.0
321.61800000000005	1.0	go	0.325	Go_X	0.0
324.14200000000005	1.0	go	0.415	Go_O	0.0
326.66600000000005	1.0	go	0.409	Go_O	1.0
329.19000000000005	0.0	stopsuccess	0.0	Go_X	1.0
331.731	1.0	go	0.262	Go_X	1.0
334.256	1.0	go	0.363	Go_O	1.0
336.79600000000005	1.0	go	0.328	Go_X	1.0
339.321	0.05	stopfail	0.316	Go_O	0.0
341.86199999999997	1.0	go	0.37	Go_X	1.0
344.38599999999997	1.0	go	0.357	Go_O	1.0
346.90999999999997	1.0	go	0.421	Go_X	1.0
349.43399999999997	1.0	go	0.354	Go_O	1.0
351.95899999999995	0.0	stopfail	0.448	Go_X	0.0
354.499	1.0	go	0.399	Go_X	1.0
357.024	1.0	go	0.548	Go_O	1.0
359.548	0.0	stopsuccess	0.0	Go_O	1.0
362.106	1.0	go	0.354	Go_X	1.0
364.64700000000005	1.0	go	0.28	Go_O	1.0
367.17100000000005	0.05	stopfail	0.309	Go_X	0.0
369.69500000000005	1.0	go	0.416	Go_X	1.0
372.21900000000005	1.0	go	0.291	Go_O	1.0
374.74300000000005	0.0	stopfail	0.362	Go_O	0.0
377.284	1.0	go	0.41	Go_O	1.0
379.80899999999997	1.0	go	0.283	Go_X	1.0
382.33299999999997	1.0	go	0.275	Go_O	0.0
384.85699999999997	1.0	go	0.252	Go_X	1.0
387.381	1.0	go	0.348	Go_O	1.0
389.905	1.0	go	0.394	Go_X	1.0
392.42999999999995	0.0	stopsuccess	0.0	Go_X	1.0
394.971	1.0	go	0.338	Go_X	1.0
397.51200000000006	0.05	stopfail	0.322	Go_O	0.0
400.053	1.0	go	0.503	Go_O	1.0
402.577	1.0	go	0.353	Go_X	1.0
405.101	1.0	go	0.345	Go_O	1.0
407.625	1.0	go	0.29	Go_X	1.0
410.149	1.0	go	0.369	Go_O	1.0
412.674	0.0	stopfail	0.312	Go_X	0.0
415.21500000000003	1.0	go	0.305	Go_X	0.0
417.73900000000003	1.0	go	0.393	Go_O	1.0
420.26300000000003	1.0	go	0.395	Go_O	1.0
422.78700000000003	0.0	stopsuccess	0.0	Go_O	1.0
425.345	0.05	stopfail	0.247	Go_X	0.0
427.869	0.0	stopsuccess	0.0	Go_O	1.0
430.4100000000001	1.0	go	0.357	Go_X	1.0
432.9340000000001	0.05	stopsuccess	0.0	Go_X	1.0
435.45900000000006	1.0	go	0.35	Go_O	1.0
437.98300000000006	1.0	go	0.343	Go_X	1.0
440.524	1.0	go	0.572	Go_O	1.0
443.048	1.0	go	0.407	Go_X	1.0
445.572	1.0	go	0.605	Go_X	1.0
448.11300000000006	1.0	go	0.321	Go_O	1.0
450.63700000000006	1.0	go	0.55	Go_O	1.0
453.16200000000003	1.0	go	0.547	Go_X	1.0
455.703	0.1	stopsuccess	0.0	Go_O	1.0
458.227	1.0	go	0.327	Go_O	1.0
460.751	1.0	go	0.387	Go_X	1.0
463.275	0.15	stopfail	0.39	Go_X	0.0
465.81600000000003	1.0	go	0.434	Go_X	0.0
468.34000000000003	1.0	go	0.313	Go_O	1.0
470.865	1.0	go	0.5	Go_O	1.0
473.389	1.0	go	0.312	Go_X	1.0
475.913	1.0	go	0.372	Go_X	1.0
478.437	0.1	stopfail	0.468	Go_O	0.0
480.961	1.0	go	0.316	Go_O	1.0
483.486	1.0	go	0.333	Go_X	1.0
486.01	1.0	go	0.338	Go_O	1.0
488.534	0.05	stopfail	0.501	Go_X	0.0
491.058	1.0	go	0.431	Go_X	1.0
493.5830000000001	0.0	stopsuccess	0.0	Go_O	1.0
496.124	1.0	go	0.491	Go_O	0.0
498.648	1.0	go	0.322	Go_X	1.0
501.172	1.0	go	0.359	Go_O	1.0
503.696	1.0	go	0.32	Go_X	1.0
506.22	1.0	go	0.321	Go_O	0.0
508.745	1.0	go	0.257	Go_X	1.0
511.28600000000006	1.0	go	0.578	Go_O	1.0
513.8100000000001	0.05	stopfail	0.536	Go_X	0.0
516.3340000000001	1.0	go	0.524	Go_O	1.0
518.8580000000001	1.0	go	0.455	Go_X	1.0
521.3820000000001	1.0	go	0.366	Go_X	1.0
523.923	1.0	go	0.317	Go_O	1.0
526.448	0.0	stopfail	0.403	Go_O	0.0
528.989	1.0	go	0.35	Go_O	1.0
531.513	0.0	stopsuccess	0.0	Go_X	1.0
534.054	1.0	go	0.357	Go_X	1.0
536.578	1.0	go	0.328	Go_X	1.0
539.102	0.05	stopsuccess	0.0	Go_O	1.0
541.626	1.0	go	0.353	Go_O	1.0
544.1510000000001	1.0	go	0.444	Go_O	1.0
546.6750000000001	1.0	go	0.263	Go_X	1.0
549.1990000000001	1.0	go	0.509	Go_X	1.0
551.7230000000001	1.0	go	0.406	Go_O	1.0
554.248	1.0	go	0.443	Go_O	1.0
556.772	1.0	go	0.343	Go_X	1.0
559.296	1.0	go	0.366	Go_X	1.0
561.82	1.0	go	0.411	Go_O	1.0
564.344	1.0	go	0.251	Go_X	1.0
566.869	0.1	stopfail	0.423	Go_X	0.0
569.393	1.0	go	0.473	Go_O	1.0
571.917	1.0	go	0.463	Go_O	1.0
574.441	0.05	stopfail	0.41	Go_O	0.0
576.966	1.0	go	0.349	Go_X	1.0
579.49	0.0	stopsuccess	0.0	Go_X	1.0
582.0310000000001	1.0	go	0.172	Go_O	1.0
584.5550000000001	1.0	go	0.224	Go_X	1.0
587.0790000000001	0.05	stopfail	0.272	Go_O	0.0
589.6030000000001	1.0	go	0.267	Go_X	1.0
592.128	0.0	stopfail	0.417	Go_X	0.0
594.6850000000001	1.0	go	0.341	Go_O	1.0
597.21	1.0	go	0.388	Go_O	1.0
599.734	1.0	go	0.348	Go_X	1.0
602.258	0.0	stopsuccess	0.0	Go_O	1.0
604.799	1.0	go	0.241	Go_X	1.0
607.323	1.0	go	0.345	Go_O	0.0
609.847	1.0	go	0.323	Go_O	0.0
612.3720000000001	1.0	go	0.412	Go_X	1.0
614.8960000000001	0.05	stopsuccess	0.0	Go_X	1.0
617.4200000000001	1.0	go	0.345	Go_X	1.0
619.9440000000001	1.0	go	0.327	Go_O	1.0
622.4680000000001	0.1	stopsuccess	0.0	Go_O	1.0
624.993	1.0	go	0.327	Go_O	1.0
627.517	1.0	go	0.32	Go_X	1.0
630.041	1.0	go	0.51	Go_X	1.0
632.565	1.0	go	0.38	Go_O	1.0
635.09	0.15	stopfail	0.269	Go_X	0.0
637.614	1.0	go	0.349	Go_O	1.0
640.138	0.1	stopsuccess	0.0	Go_O	1.0
642.662	1.0	go	0.268	Go_X	1.0
645.187	1.0	go	0.328	Go_O	1.0
647.711	0.15	stopfail	0.511	Go_X	0.0
650.235	1.0	go	0.419	Go_X	1.0
652.759	1.0	go	0.455	Go_X	1.0
655.283	1.0	go	0.902	Go_O	0.0
657.811	1.0	go	0.368	Go_O	1.0
660.332	0.1	stopfail	0.307	Go_O	0.0
662.856	1.0	go	0.309	Go_X	0.0
665.38	0.05	stopsuccess	0.0	Go_X	1.0
667.905	1.0	go	0.377	Go_X	1.0
670.429	1.0	go	0.377	Go_O	1.0
672.953	1.0	go	0.344	Go_O	0.0
675.477	1.0	go	0.494	Go_X	1.0
678.001	1.0	go	0.395	Go_X	1.0
680.5260000000001	1.0	go	0.439	Go_O	1.0
683.0500000000001	0.1	stopfail	0.782	Go_O	0.0
685.5740000000001	1.0	go	0.334	Go_O	1.0
688.0980000000001	1.0	go	0.357	Go_X	1.0
690.623	0.05	stopsuccess	0.0	Go_X	1.0
693.164	1.0	go	0.386	Go_X	1.0
695.688	1.0	go	0.527	Go_O	1.0
698.212	0.1	stopsuccess	0.0	Go_O	1.0
700.753	1.0	go	0.531	Go_O	1.0
703.294	1.0	go	0.337	Go_X	1.0
705.818	1.0	go	0.446	Go_X	1.0
708.342	1.0	go	0.531	Go_O	1.0
710.8670000000001	0.15	stopsuccess	0.0	Go_X	1.0
713.3910000000001	1.0	go	0.352	Go_X	0.0
715.9150000000001	0.2	stopfail	0.338	Go_O	0.0
718.4390000000001	1.0	go	0.389	Go_O	1.0
720.98	1.0	go	0.343	Go_X	1.0
723.504	1.0	go	0.335	Go_O	1.0
726.029	1.0	go	0.266	Go_X	1.0
728.553	1.0	go	0.251	Go_O	1.0
731.094	0.15	stopsuccess	0.0	Go_X	1.0
733.618	1.0	go	0.41	Go_X	1.0
736.142	1.0	go	0.321	Go_O	1.0
738.666	0.2	stopfail	0.401	Go_O	0.0
741.207	0.15	stopfail	0.299	Go_X	0.0
743.732	1.0	go	0.314	Go_O	1.0
746.256	1.0	go	0.452	Go_X	1.0
748.78	1.0	go	0.483	Go_O	1.0
751.304	1.0	go	0.639	Go_X	1.0
753.8290000000001	0.1	stopsuccess	0.0	Go_O	1.0
756.3530000000001	1.0	go	0.768	Go_X	1.0
