frame	onset	duration	trial_type	event_type	response_type	response_time	stim_file	accuracy
0	96.181		win-noreward	ImageDisplay1		0.0		
0	98.17	0.75	win-noreward	StartDisplay				
0	98.923		win-noreward	ImageDisplay2		0.0		
0	102.166	1.6	win-noreward	ChoiceDisplay	1	1.067	1	1
0	103.252	0.533	win-noreward	ChosenDisplay		0.0		
0	103.77	0.25	win-noreward	TurnDisplay				
0	104.021	0.75	win-noreward	OutcomeDisplay				
1	104.773		loss-reward	ImageDisplay1		0.0		
1	107.014	0.75	loss-reward	StartDisplay				
1	107.766		loss-reward	ImageDisplay2		0.0		
1	110.775	1.6	loss-reward	ChoiceDisplay	1	1.092	1	1
1	111.878	0.508	loss-reward	ChosenDisplay		0.0		
1	112.38	0.25	loss-reward	TurnDisplay				
1	112.63	0.75	loss-reward	OutcomeDisplay				
2	113.383		win-noreward	ImageDisplay1		0.0		
2	115.372	0.75	win-noreward	StartDisplay				
2	116.124		win-noreward	ImageDisplay2		0.0		
2	119.384	1.6	win-noreward	ChoiceDisplay	1	1.134	1	1
2	120.537	0.466	win-noreward	ChosenDisplay		0.0		
2	120.989	0.25	win-noreward	TurnDisplay				
2	121.239	0.75	win-noreward	OutcomeDisplay				
3	121.992		win-reward	ImageDisplay1		0.0		
3	124.232	0.75	win-reward	StartDisplay				
3	124.984		win-reward	ImageDisplay2		0.0		
3	127.993	1.6	win-reward	ChoiceDisplay	1	1.124	1	1
3	129.13	0.476	win-reward	ChosenDisplay		0.0		
3	129.598	0.25	win-reward	TurnDisplay				
3	129.848	0.75	win-reward	OutcomeDisplay				
4	130.601		win-noreward	ImageDisplay1		0.0		
4	132.59	0.75	win-noreward	StartDisplay				
4	133.342		win-noreward	ImageDisplay2		0.0		
4	136.602	1.6	win-noreward	ChoiceDisplay		0.0		
4	138.19	0.0	win-noreward	ChosenDisplay		0.0		
4	138.207	0.25	win-noreward	TurnDisplay				
4	138.441	0.75	win-noreward	OutcomeDisplay				
5	139.193		loss-noreward	ImageDisplay1		0.0		
5	141.199	0.75	loss-noreward	StartDisplay				
5	141.951		loss-noreward	ImageDisplay2		0.0		
5	145.194	1.6	loss-noreward	ChoiceDisplay	1	1.062	1	1
5	146.281	0.538	loss-noreward	ChosenDisplay		0.0		
5	146.799	0.25	loss-noreward	TurnDisplay				
5	147.05	0.75	loss-noreward	OutcomeDisplay				
6	147.802		loss-reward	ImageDisplay1		0.0		
6	150.042	0.75	loss-reward	StartDisplay				
6	150.794		loss-reward	ImageDisplay2		0.0		
6	153.803	1.6	loss-reward	ChoiceDisplay	1	1.039	1	1
6	154.857	0.561	loss-reward	ChosenDisplay		0.0		
6	155.408	0.25	loss-reward	TurnDisplay				
6	155.659	0.75	loss-reward	OutcomeDisplay				
7	156.411		win-reward	ImageDisplay1		0.0		
7	158.651	0.75	win-reward	StartDisplay				
7	159.403		win-reward	ImageDisplay2		0.0		
7	162.412	1.6	win-reward	ChoiceDisplay	1	1.063	1	1
7	163.499	0.537	win-reward	ChosenDisplay		0.0		
7	164.017	0.25	win-reward	TurnDisplay				
7	164.268	0.75	win-reward	OutcomeDisplay				
8	165.02		loss-reward	ImageDisplay1		0.0		
8	167.26	0.75	loss-reward	StartDisplay				
8	168.013		loss-reward	ImageDisplay2		0.0		
8	171.022	1.6	loss-reward	ChoiceDisplay	1	0.808	1	1
8	171.857	0.792	loss-reward	ChosenDisplay		0.0		
8	172.626	0.25	loss-reward	TurnDisplay				
8	172.877	0.75	loss-reward	OutcomeDisplay				
9	173.629		loss-reward	ImageDisplay1		0.0		
9	175.869	0.75	loss-reward	StartDisplay				
9	176.622		loss-reward	ImageDisplay2		0.0		
9	179.631	1.6	loss-reward	ChoiceDisplay	1	0.761	1	1
9	180.416	0.839	loss-reward	ChosenDisplay		0.0		
9	181.235	0.25	loss-reward	TurnDisplay				
9	181.486	0.75	loss-reward	OutcomeDisplay				
10	182.238		loss-noreward	ImageDisplay1		0.0		
10	184.228	0.75	loss-noreward	StartDisplay				
10	184.98		loss-noreward	ImageDisplay2		0.0		
10	188.24	1.6	loss-noreward	ChoiceDisplay	1	0.974	1	1
10	189.226	0.626	loss-noreward	ChosenDisplay		0.0		
10	189.845	0.25	loss-noreward	TurnDisplay				
10	190.095	0.75	loss-noreward	OutcomeDisplay				
11	190.848		win-reward	ImageDisplay1		0.0		
11	193.088	0.75	win-reward	StartDisplay				
11	193.84		win-reward	ImageDisplay2		0.0		
11	196.849	1.6	win-reward	ChoiceDisplay	1	1.031	1	1
11	197.902	0.569	win-reward	ChosenDisplay		0.0		
11	198.454	0.25	win-reward	TurnDisplay				
11	198.704	0.75	win-reward	OutcomeDisplay				
12	199.457		loss-noreward	ImageDisplay1		0.0		
12	201.446	0.75	loss-noreward	StartDisplay				
12	202.198		loss-noreward	ImageDisplay2		0.0		
12	205.458	1.6	loss-noreward	ChoiceDisplay	1	0.819	1	1
12	206.294	0.781	loss-noreward	ChosenDisplay		0.0		
12	207.063	0.25	loss-noreward	TurnDisplay				
12	207.313	0.75	loss-noreward	OutcomeDisplay				
13	208.066		control-noreward	ImageDisplay1		0.0		
13	210.055	0.75	control-noreward	StartDisplay				
13	210.807		control-noreward	ImageDisplay2		0.0		
13	214.067	1.6	control-noreward	ChoiceDisplay	1	0.904	1	1
13	214.986	0.696	control-noreward	ChosenDisplay		0.0		
13	215.672	0.25	control-noreward	TurnDisplay				
13	215.922	0.75	control-noreward	OutcomeDisplay				
14	216.675		loss-reward	ImageDisplay1		0.0		
14	218.915	0.75	loss-reward	StartDisplay				
14	219.667		loss-reward	ImageDisplay2		0.0		
14	222.676	1.6	loss-reward	ChoiceDisplay	1	1.098	1	1
14	223.796	0.502	loss-reward	ChosenDisplay		0.0		
14	224.281	0.25	loss-reward	TurnDisplay				
14	224.532	0.75	loss-reward	OutcomeDisplay				
15	225.284		loss-reward	ImageDisplay1		0.0		
15	227.524	0.75	loss-reward	StartDisplay				
15	228.276		loss-reward	ImageDisplay2		0.0		
15	231.285	1.6	loss-reward	ChoiceDisplay	1	0.766	1	1
15	232.071	0.834	loss-reward	ChosenDisplay		0.0		
15	232.89	0.25	loss-reward	TurnDisplay				
15	233.141	0.75	loss-reward	OutcomeDisplay				
16	233.893		loss-reward	ImageDisplay1		0.0		
16	236.133	0.75	loss-reward	StartDisplay				
16	236.885		loss-reward	ImageDisplay2		0.0		
16	239.894	1.6	loss-reward	ChoiceDisplay	1	0.634	1	1
16	240.546	0.966	loss-reward	ChosenDisplay		0.0		
16	241.499	0.25	loss-reward	TurnDisplay				
16	241.75	0.75	loss-reward	OutcomeDisplay				
17	242.502		win-noreward	ImageDisplay1		0.0		
17	244.491	0.75	win-noreward	StartDisplay				
17	245.243		win-noreward	ImageDisplay2		0.0		
17	248.503	1.6	win-noreward	ChoiceDisplay	1	0.907	1	1
17	249.423	0.693	win-noreward	ChosenDisplay		0.0		
17	250.108	0.25	win-noreward	TurnDisplay				
17	250.359	0.75	win-noreward	OutcomeDisplay				
18	251.111		control-reward	ImageDisplay1		0.0		
18	253.351	0.75	control-reward	StartDisplay				
18	254.103		control-reward	ImageDisplay2		0.0		
18	257.112	1.6	control-reward	ChoiceDisplay	1	0.878	1	1
18	258.015	0.722	control-reward	ChosenDisplay		0.0		
18	258.719	0.25	control-reward	TurnDisplay				
18	258.968	0.75	control-reward	OutcomeDisplay				
19	259.72		control-reward	ImageDisplay1		0.0		
19	261.96	0.75	control-reward	StartDisplay				
19	262.712		control-reward	ImageDisplay2		0.0		
19	265.721	1.6	control-reward	ChoiceDisplay	1	0.82	1	1
19	266.557	0.78	control-reward	ChosenDisplay		0.0		
19	267.326	0.25	control-reward	TurnDisplay				
19	267.577	0.75	control-reward	OutcomeDisplay				
20	268.329		control-noreward	ImageDisplay1		0.0		
20	270.318	0.75	control-noreward	StartDisplay				
20	271.071		control-noreward	ImageDisplay2		0.0		
20	274.33	1.6	control-noreward	ChoiceDisplay	1	0.78	1	1
20	275.133	0.82	control-noreward	ChosenDisplay		0.0		
20	275.935	0.25	control-noreward	TurnDisplay				
20	276.186	0.75	control-noreward	OutcomeDisplay				
21	276.938		control-reward	ImageDisplay1		0.0		
21	279.178	0.75	control-reward	StartDisplay				
21	279.931		control-reward	ImageDisplay2		0.0		
21	282.94	1.6	control-reward	ChoiceDisplay	1	1.117	1	1
21	284.076	0.483	control-reward	ChosenDisplay		0.0		
21	284.544	0.25	control-reward	TurnDisplay				
21	284.795	0.75	control-reward	OutcomeDisplay				
22	285.547		loss-reward	ImageDisplay1		0.0		
22	287.787	0.75	loss-reward	StartDisplay				
22	288.54		loss-reward	ImageDisplay2		0.0		
22	291.549	1.6	loss-reward	ChoiceDisplay	1	0.792	1	1
22	292.368	0.808	loss-reward	ChosenDisplay		0.0		
22	293.153	0.25	loss-reward	TurnDisplay				
22	293.404	0.75	loss-reward	OutcomeDisplay				
23	294.156		win-reward	ImageDisplay1		0.0		
23	296.396	0.75	win-reward	StartDisplay				
23	297.149		win-reward	ImageDisplay2		0.0		
23	300.158	1.6	win-reward	ChoiceDisplay	1	0.921	1	1
23	301.094	0.679	win-reward	ChosenDisplay		0.0		
23	301.762	0.25	win-reward	TurnDisplay				
23	302.013	0.75	win-reward	OutcomeDisplay				
24	302.765		control-reward	ImageDisplay1		0.0		
24	305.006	0.75	control-reward	StartDisplay				
24	305.758		control-reward	ImageDisplay2		0.0		
24	308.767	1.6	control-reward	ChoiceDisplay	1	0.751	1	1
24	309.536	0.849	control-reward	ChosenDisplay		0.0		
24	310.372	0.25	control-reward	TurnDisplay				
24	310.622	0.75	control-reward	OutcomeDisplay				
25	311.375		control-noreward	ImageDisplay1		0.0		
25	313.364	0.75	control-noreward	StartDisplay				
25	314.116		control-noreward	ImageDisplay2		0.0		
25	317.376	1.6	control-noreward	ChoiceDisplay	1	0.843	1	1
25	318.245	0.757	control-noreward	ChosenDisplay		0.0		
25	318.981	0.25	control-noreward	TurnDisplay				
25	319.231	0.75	control-noreward	OutcomeDisplay				
26	319.984		loss-reward	ImageDisplay1		0.0		
26	322.224	0.75	loss-reward	StartDisplay				
26	322.976		loss-reward	ImageDisplay2		0.0		
26	325.985	1.6	loss-reward	ChoiceDisplay	1	0.885	1	1
26	326.888	0.715	loss-reward	ChosenDisplay		0.0		
26	327.59	0.25	loss-reward	TurnDisplay				
26	327.84	0.75	loss-reward	OutcomeDisplay				
27	328.593		control-noreward	ImageDisplay1		0.0		
27	330.582	0.75	control-noreward	StartDisplay				
27	331.334		control-noreward	ImageDisplay2		0.0		
27	334.594	1.6	control-noreward	ChoiceDisplay	1	1.014	1	1
27	335.63	0.586	control-noreward	ChosenDisplay		0.0		
27	336.199	0.25	control-noreward	TurnDisplay				
27	336.45	0.75	control-noreward	OutcomeDisplay				
28	337.202		win-reward	ImageDisplay1		0.0		
28	339.442	0.75	win-reward	StartDisplay				
28	340.194		win-reward	ImageDisplay2		0.0		
28	343.203	1.6	win-reward	ChoiceDisplay	1	1.067	1	1
28	344.29	0.533	win-reward	ChosenDisplay		0.0		
28	344.808	0.25	win-reward	TurnDisplay				
28	345.059	0.75	win-reward	OutcomeDisplay				
29	345.811		win-noreward	ImageDisplay1		0.0		
29	347.8	0.75	win-noreward	StartDisplay				
29	348.552		win-noreward	ImageDisplay2		0.0		
29	351.812	1.6	win-noreward	ChoiceDisplay	1	0.919	1	1
29	352.748	0.681	win-noreward	ChosenDisplay		0.0		
29	353.417	0.25	win-noreward	TurnDisplay				
29	353.668	0.75	win-noreward	OutcomeDisplay				
30	354.42		loss-reward	ImageDisplay1		0.0		
30	356.66	0.75	loss-reward	StartDisplay				
30	357.412		loss-reward	ImageDisplay2		0.0		
30	360.421	1.6	loss-reward	ChoiceDisplay	1	0.741	1	1
30	361.173	0.859	loss-reward	ChosenDisplay		0.0		
30	362.026	0.25	loss-reward	TurnDisplay				
30	362.277	0.75	loss-reward	OutcomeDisplay				
31	363.029		win-reward	ImageDisplay1		0.0		
31	365.269	0.75	win-reward	StartDisplay				
31	366.021		win-reward	ImageDisplay2		0.0		
31	369.03	1.6	win-reward	ChoiceDisplay	1	1.066	1	1
31	370.117	0.534	win-reward	ChosenDisplay		0.0		
31	370.635	0.25	win-reward	TurnDisplay				
31	370.886	0.75	win-reward	OutcomeDisplay				
32	371.638		control-reward	ImageDisplay1		0.0		
32	373.878	0.75	control-reward	StartDisplay				
32	374.63		control-reward	ImageDisplay2		0.0		
32	377.639	1.6	control-reward	ChoiceDisplay	1	1.009	1	1
32	378.676	0.591	control-reward	ChosenDisplay		0.0		
32	379.244	0.25	control-reward	TurnDisplay				
32	379.495	0.75	control-reward	OutcomeDisplay				
33	380.247		win-reward	ImageDisplay1		0.0		
33	382.487	0.75	win-reward	StartDisplay				
33	383.239		win-reward	ImageDisplay2		0.0		
33	386.248	1.6	win-reward	ChoiceDisplay	1	1.185	1	1
33	387.452	0.415	win-reward	ChosenDisplay		0.0		
33	387.853	0.25	win-reward	TurnDisplay				
33	388.104	0.75	win-reward	OutcomeDisplay				
34	388.856		loss-reward	ImageDisplay1		0.0		
34	391.096	0.75	loss-reward	StartDisplay				
34	391.848		loss-reward	ImageDisplay2		0.0		
34	394.858	1.6	loss-reward	ChoiceDisplay	1	0.941	1	1
34	395.81	0.659	loss-reward	ChosenDisplay		0.0		
34	396.462	0.25	loss-reward	TurnDisplay				
34	396.713	0.75	loss-reward	OutcomeDisplay				
35	397.465		loss-noreward	ImageDisplay1		0.0		
35	399.455	0.75	loss-noreward	StartDisplay				
35	400.207		loss-noreward	ImageDisplay2		0.0		
35	403.467	1.6	loss-noreward	ChoiceDisplay	1	1.019	1	1
35	404.503	0.581	loss-noreward	ChosenDisplay		0.0		
35	405.071	0.25	loss-noreward	TurnDisplay				
35	405.322	0.75	loss-noreward	OutcomeDisplay				
36	406.074		win-noreward	ImageDisplay1		0.0		
36	408.064	0.75	win-noreward	StartDisplay				
36	408.816		win-noreward	ImageDisplay2		0.0		
36	412.076	1.6	win-noreward	ChoiceDisplay	1	1.022	1	1
36	413.112	0.578	win-noreward	ChosenDisplay		0.0		
36	413.68	0.25	win-noreward	TurnDisplay				
36	413.931	0.75	win-noreward	OutcomeDisplay				
37	414.683		loss-noreward	ImageDisplay1		0.0		
37	416.673	0.75	loss-noreward	StartDisplay				
37	417.425		loss-noreward	ImageDisplay2		0.0		
37	420.685	1.6	loss-noreward	ChoiceDisplay	1	1.151	1	1
37	421.855	0.449	loss-noreward	ChosenDisplay		0.0		
37	422.29	0.25	loss-noreward	TurnDisplay				
37	422.54	0.75	loss-noreward	OutcomeDisplay				
38	423.293		loss-noreward	ImageDisplay1		0.0		
38	425.282	0.75	loss-noreward	StartDisplay				
38	426.034		loss-noreward	ImageDisplay2		0.0		
38	429.294	1.6	loss-noreward	ChoiceDisplay	1	0.938	1	1
38	430.247	0.662	loss-noreward	ChosenDisplay		0.0		
38	430.899	0.25	loss-noreward	TurnDisplay				
38	431.149	0.75	loss-noreward	OutcomeDisplay				
39	431.902		loss-noreward	ImageDisplay1		0.0		
39	433.891	0.75	loss-noreward	StartDisplay				
39	434.643		loss-noreward	ImageDisplay2		0.0		
39	437.903	1.6	loss-noreward	ChoiceDisplay	1	1.347	1	1
39	439.274	0.253	loss-noreward	ChosenDisplay		0.0		
39	439.508	0.25	loss-noreward	TurnDisplay				
39	439.758	0.75	loss-noreward	OutcomeDisplay				
40	440.511		win-reward	ImageDisplay1		0.0		
40	442.751	0.75	win-reward	StartDisplay				
40	443.503		win-reward	ImageDisplay2		0.0		
40	446.512	1.6	win-reward	ChoiceDisplay	1	1.173	1	1
40	447.699	0.427	win-reward	ChosenDisplay		0.0		
40	448.117	0.25	win-reward	TurnDisplay				
40	448.367	0.75	win-reward	OutcomeDisplay				
41	449.12		control-noreward	ImageDisplay1		0.0		
41	451.109	0.75	control-noreward	StartDisplay				
41	451.861		control-noreward	ImageDisplay2		0.0		
41	455.121	1.6	control-noreward	ChoiceDisplay	1	0.967	1	1
41	456.107	0.633	control-noreward	ChosenDisplay		0.0		
41	456.726	0.25	control-noreward	TurnDisplay				
41	456.977	0.75	control-noreward	OutcomeDisplay				
42	457.729		control-reward	ImageDisplay1		0.0		
42	459.969	0.75	control-reward	StartDisplay				
42	460.721		control-reward	ImageDisplay2		0.0		
42	463.73	1.6	control-reward	ChoiceDisplay	1	1.299	1	1
42	465.051	0.301	control-reward	ChosenDisplay		0.0		
42	465.335	0.25	control-reward	TurnDisplay				
42	465.586	0.75	control-reward	OutcomeDisplay				
43	466.338		loss-noreward	ImageDisplay1		0.0		
43	468.327	0.75	loss-noreward	StartDisplay				
43	469.079		loss-noreward	ImageDisplay2		0.0		
43	472.339	1.6	loss-noreward	ChoiceDisplay	1	1.284	1	1
43	473.643	0.316	loss-noreward	ChosenDisplay		0.0		
43	473.944	0.25	loss-noreward	TurnDisplay				
43	474.195	0.75	loss-noreward	OutcomeDisplay				
44	474.947		control-reward	ImageDisplay1		0.0		
44	477.187	0.75	control-reward	StartDisplay				
44	477.939		control-reward	ImageDisplay2		0.0		
44	480.948	1.6	control-reward	ChoiceDisplay	1	1.05	1	1
44	482.018	0.55	control-reward	ChosenDisplay		0.0		
44	482.553	0.25	control-reward	TurnDisplay				
44	482.804	0.75	control-reward	OutcomeDisplay				
45	483.556		win-noreward	ImageDisplay1		0.0		
45	485.545	0.75	win-noreward	StartDisplay				
45	486.298		win-noreward	ImageDisplay2		0.0		
45	489.557	1.6	win-noreward	ChoiceDisplay	1	0.945	1	1
45	490.527	0.655	win-noreward	ChosenDisplay		0.0		
45	491.162	0.25	win-noreward	TurnDisplay				
45	491.413	0.75	win-noreward	OutcomeDisplay				
46	492.165		loss-noreward	ImageDisplay1		0.0		
46	494.154	0.75	loss-noreward	StartDisplay				
46	494.907		loss-noreward	ImageDisplay2		0.0		
46	498.166	1.6	loss-noreward	ChoiceDisplay	1	0.661	1	1
46	498.852	0.939	loss-noreward	ChosenDisplay		0.0		
46	499.771	0.25	loss-noreward	TurnDisplay				
46	500.022	0.75	loss-noreward	OutcomeDisplay				
47	500.774		control-reward	ImageDisplay1		0.0		
47	503.014	0.75	control-reward	StartDisplay				
47	503.766		control-reward	ImageDisplay2		0.0		
47	506.775	1.6	control-reward	ChoiceDisplay	1	0.821	1	1
47	507.611	0.779	control-reward	ChosenDisplay		0.0		
47	508.38	0.25	control-reward	TurnDisplay				
47	508.631	0.75	control-reward	OutcomeDisplay				
48	509.383		control-reward	ImageDisplay1		0.0		
48	511.623	0.75	control-reward	StartDisplay				
48	512.376		control-reward	ImageDisplay2		0.0		
48	515.385	1.6	control-reward	ChoiceDisplay	1	0.861	1	1
48	516.271	0.739	control-reward	ChosenDisplay		0.0		
48	516.989	0.25	control-reward	TurnDisplay				
48	517.24	0.75	control-reward	OutcomeDisplay				
49	517.992		control-reward	ImageDisplay1		0.0		
49	520.232	0.75	control-reward	StartDisplay				
49	520.985		control-reward	ImageDisplay2		0.0		
49	523.994	1.6	control-reward	ChoiceDisplay	1	0.828	1	1
49	524.846	0.772	control-reward	ChosenDisplay		0.0		
49	525.598	0.25	control-reward	TurnDisplay				
49	525.849	0.75	control-reward	OutcomeDisplay				
50	526.601		control-noreward	ImageDisplay1		0.0		
50	528.591	0.75	control-noreward	StartDisplay				
50	529.343		control-noreward	ImageDisplay2		0.0		
50	532.603	1.6	control-noreward	ChoiceDisplay	1	0.898	1	1
50	533.522	0.702	control-noreward	ChosenDisplay		0.0		
50	534.207	0.25	control-noreward	TurnDisplay				
50	534.458	0.75	control-noreward	OutcomeDisplay				
51	535.21		loss-reward	ImageDisplay1		0.0		
51	537.451	0.75	loss-reward	StartDisplay				
51	538.203		loss-reward	ImageDisplay2		0.0		
51	541.212	1.6	loss-reward	ChoiceDisplay	1	1.281	1	1
51	542.516	0.319	loss-reward	ChosenDisplay		0.0		
51	542.817	0.25	loss-reward	TurnDisplay				
51	543.067	0.75	loss-reward	OutcomeDisplay				
52	543.82		control-reward	ImageDisplay1		0.0		
52	546.06	0.75	control-reward	StartDisplay				
52	546.812		control-reward	ImageDisplay2		0.0		
52	549.821	1.6	control-reward	ChoiceDisplay	1	0.898	1	1
52	550.74	0.702	control-reward	ChosenDisplay		0.0		
52	551.426	0.25	control-reward	TurnDisplay				
52	551.676	0.75	control-reward	OutcomeDisplay				
53	552.429		win-reward	ImageDisplay1		0.0		
53	554.669	0.75	win-reward	StartDisplay				
53	555.421		win-reward	ImageDisplay2		0.0		
53	558.43	1.6	win-reward	ChoiceDisplay	1	1.182	1	1
53	559.633	0.418	win-reward	ChosenDisplay		0.0		
53	560.035	0.25	win-reward	TurnDisplay				
53	560.285	0.75	win-reward	OutcomeDisplay				
54	561.038		win-noreward	ImageDisplay1		0.0		
54	563.027	0.75	win-noreward	StartDisplay				
54	563.779		win-noreward	ImageDisplay2		0.0		
54	567.039	1.6	win-noreward	ChoiceDisplay	1	1.31	1	1
54	568.376	0.29	win-noreward	ChosenDisplay		0.0		
54	568.644	0.25	win-noreward	TurnDisplay				
54	568.894	0.75	win-noreward	OutcomeDisplay				
55	569.647		control-noreward	ImageDisplay1		0.0		
55	571.636	0.75	control-noreward	StartDisplay				
55	572.388		control-noreward	ImageDisplay2		0.0		
55	575.648	1.6	control-noreward	ChoiceDisplay	1	1.267	1	1
55	576.935	0.333	control-noreward	ChosenDisplay		0.0		
55	577.253	0.25	control-noreward	TurnDisplay				
55	577.504	0.75	control-noreward	OutcomeDisplay				
56	578.256		control-noreward	ImageDisplay1		0.0		
56	580.245	0.75	control-noreward	StartDisplay				
56	580.997		control-noreward	ImageDisplay2		0.0		
56	584.257	1.6	control-noreward	ChoiceDisplay	1	1.036	1	1
56	585.31	0.564	control-noreward	ChosenDisplay		0.0		
56	585.862	0.25	control-noreward	TurnDisplay				
56	586.113	0.75	control-noreward	OutcomeDisplay				
57	586.865		win-noreward	ImageDisplay1		0.0		
57	588.854	0.75	win-noreward	StartDisplay				
57	589.606		win-noreward	ImageDisplay2		0.0		
57	592.866	1.6	win-noreward	ChoiceDisplay	1	0.917	1	1
57	593.802	0.683	win-noreward	ChosenDisplay		0.0		
57	594.471	0.25	win-noreward	TurnDisplay				
57	594.722	0.75	win-noreward	OutcomeDisplay				
58	595.474		control-noreward	ImageDisplay1		0.0		
58	597.463	0.75	control-noreward	StartDisplay				
58	598.216		control-noreward	ImageDisplay2		0.0		
58	601.475	1.6	control-noreward	ChoiceDisplay	1	1.023	1	1
58	602.512	0.577	control-noreward	ChosenDisplay		0.0		
58	603.08	0.25	control-noreward	TurnDisplay				
58	603.331	0.75	control-noreward	OutcomeDisplay				
59	604.083		loss-reward	ImageDisplay1		0.0		
59	606.323	0.75	loss-reward	StartDisplay				
59	607.075		loss-reward	ImageDisplay2		0.0		
59	610.084	1.6	loss-reward	ChoiceDisplay	1	1.209	1	1
59	611.305	0.391	loss-reward	ChosenDisplay		0.0		
59	611.689	0.25	loss-reward	TurnDisplay				
59	611.94	0.75	loss-reward	OutcomeDisplay				
60	612.692		control-reward	ImageDisplay1		0.0		
60	614.932	0.75	control-reward	StartDisplay				
60	615.684		control-reward	ImageDisplay2		0.0		
60	618.693	1.6	control-reward	ChoiceDisplay	1	0.86	1	1
60	619.579	0.74	control-reward	ChosenDisplay		0.0		
60	620.298	0.25	control-reward	TurnDisplay				
60	620.549	0.75	control-reward	OutcomeDisplay				
61	621.301		win-noreward	ImageDisplay1		0.0		
61	623.29	0.75	win-noreward	StartDisplay				
61	624.043		win-noreward	ImageDisplay2		0.0		
61	627.302	1.6	win-noreward	ChoiceDisplay	1	1.206	1	1
61	628.523	0.394	win-noreward	ChosenDisplay		0.0		
61	628.907	0.25	win-noreward	TurnDisplay				
61	629.158	0.75	win-noreward	OutcomeDisplay				
62	629.91		control-noreward	ImageDisplay1		0.0		
62	631.9	0.75	control-noreward	StartDisplay				
62	632.652		control-noreward	ImageDisplay2		0.0		
62	635.912	1.6	control-noreward	ChoiceDisplay	1	1.367	1	1
62	637.299	0.233	control-noreward	ChosenDisplay		0.0		
62	637.516	0.25	control-noreward	TurnDisplay				
62	637.767	0.75	control-noreward	OutcomeDisplay				
63	638.519		control-reward	ImageDisplay1		0.0		
63	640.759	0.75	control-reward	StartDisplay				
63	641.512		control-reward	ImageDisplay2		0.0		
63	644.521	1.6	control-reward	ChoiceDisplay	1	1.201	1	1
63	645.741	0.399	control-reward	ChosenDisplay		0.0		
63	646.125	0.25	control-reward	TurnDisplay				
63	646.376	0.75	control-reward	OutcomeDisplay				
64	647.128		win-reward	ImageDisplay1		0.0		
64	649.368	0.75	win-reward	StartDisplay				
64	650.121		win-reward	ImageDisplay2		0.0		
64	653.13	1.6	win-reward	ChoiceDisplay	1	1.25	1	1
64	654.4	0.35	win-reward	ChosenDisplay		0.0		
64	654.734	0.25	win-reward	TurnDisplay				
64	654.985	0.75	win-reward	OutcomeDisplay				
65	655.737		control-noreward	ImageDisplay1		0.0		
65	657.727	0.75	control-noreward	StartDisplay				
65	658.479		control-noreward	ImageDisplay2		0.0		
65	661.739	1.6	control-noreward	ChoiceDisplay	1	1.356	1	1
65	663.11	0.244	control-noreward	ChosenDisplay		0.0		
65	663.344	0.25	control-noreward	TurnDisplay				
65	663.594	0.75	control-noreward	OutcomeDisplay				
66	664.347		control-reward	ImageDisplay1		0.0		
66	666.587	0.75	control-reward	StartDisplay				
66	667.339		control-reward	ImageDisplay2		0.0		
66	670.348	1.6	control-reward	ChoiceDisplay	1	1.087	1	1
66	671.451	0.513	control-reward	ChosenDisplay		0.0		
66	671.953	0.25	control-reward	TurnDisplay				
66	672.203	0.75	control-reward	OutcomeDisplay				
67	672.956		control-reward	ImageDisplay1		0.0		
67	675.196	0.75	control-reward	StartDisplay				
67	675.948		control-reward	ImageDisplay2		0.0		
67	678.957	1.6	control-reward	ChoiceDisplay	1	1.135	1	1
67	680.11	0.465	control-reward	ChosenDisplay		0.0		
67	680.562	0.25	control-reward	TurnDisplay				
67	680.812	0.75	control-reward	OutcomeDisplay				
68	681.565		win-reward	ImageDisplay1		0.0		
68	683.805	0.75	win-reward	StartDisplay				
68	684.557		win-reward	ImageDisplay2		0.0		
68	687.566	1.6	win-reward	ChoiceDisplay	1	1.14	1	1
68	688.719	0.46	win-reward	ChosenDisplay		0.0		
68	689.171	0.25	win-reward	TurnDisplay				
68	689.422	0.75	win-reward	OutcomeDisplay				
69	690.174		loss-reward	ImageDisplay1		0.0		
69	692.414	0.75	loss-reward	StartDisplay				
69	693.166		loss-reward	ImageDisplay2		0.0		
69	696.175	1.6	loss-reward	ChoiceDisplay	1	1.399	1	1
69	697.596	0.201	loss-reward	ChosenDisplay		0.0		
69	697.78	0.25	loss-reward	TurnDisplay				
69	698.031	0.75	loss-reward	OutcomeDisplay				
70	698.783		control-noreward	ImageDisplay1		0.0		
70	700.772	0.75	control-noreward	StartDisplay				
70	701.524		control-noreward	ImageDisplay2		0.0		
70	704.784	1.6	control-noreward	ChoiceDisplay	1	0.877	1	1
70	705.687	0.723	control-noreward	ChosenDisplay		0.0		
70	706.389	0.25	control-noreward	TurnDisplay				
70	706.64	0.75	control-noreward	OutcomeDisplay				
71	707.392		win-noreward	ImageDisplay1		0.0		
71	709.381	0.75	win-noreward	StartDisplay				
71	710.133		win-noreward	ImageDisplay2		0.0		
71	713.393	1.6	win-noreward	ChoiceDisplay	1	1.116	1	1
71	714.53	0.484	win-noreward	ChosenDisplay		0.0		
71	714.998	0.25	win-noreward	TurnDisplay				
71	715.249	0.75	win-noreward	OutcomeDisplay				
72	716.001		win-reward	ImageDisplay1		0.0		
72	718.241	0.75	win-reward	StartDisplay				
72	718.993		win-reward	ImageDisplay2		0.0		
72	722.002	1.6	win-reward	ChoiceDisplay	1	1.309	1	1
72	723.323	0.291	win-reward	ChosenDisplay		0.0		
72	723.607	0.25	win-reward	TurnDisplay				
72	723.858	0.75	win-reward	OutcomeDisplay				
73	724.61		win-reward	ImageDisplay1		0.0		
73	726.85	0.75	win-reward	StartDisplay				
73	727.602		win-reward	ImageDisplay2		0.0		
73	730.611	1.6	win-reward	ChoiceDisplay	1	1.425	1	1
73	732.049	0.175	win-reward	ChosenDisplay		0.0		
73	732.216	0.25	win-reward	TurnDisplay				
73	732.467	0.75	win-reward	OutcomeDisplay				
74	733.219		loss-noreward	ImageDisplay1		0.0		
74	735.208	0.75	loss-noreward	StartDisplay				
74	735.961		loss-noreward	ImageDisplay2		0.0		
74	739.22	1.6	loss-noreward	ChoiceDisplay	1	1.39	1	1
74	740.625	0.21	loss-noreward	ChosenDisplay		0.0		
74	740.825	0.25	loss-noreward	TurnDisplay				
74	741.076	0.75	loss-noreward	OutcomeDisplay				
75	741.828		win-reward	ImageDisplay1		0.0		
75	744.068	0.75	win-reward	StartDisplay				
75	744.821		win-reward	ImageDisplay2		0.0		
75	747.83	1.6	win-reward	ChoiceDisplay	1	1.59	1	1
75	749.418	0.0	win-reward	ChosenDisplay		0.0		
75	749.434	0.25	win-reward	TurnDisplay				
75	749.668	0.75	win-reward	OutcomeDisplay				
76	750.421		loss-noreward	ImageDisplay1		0.0		
76	752.427	0.75	loss-noreward	StartDisplay				
76	753.179		loss-noreward	ImageDisplay2		0.0		
76	756.422	1.6	loss-noreward	ChoiceDisplay	1	1.329	1	1
76	757.776	0.271	loss-noreward	ChosenDisplay		0.0		
76	758.027	0.25	loss-noreward	TurnDisplay				
76	758.277	0.75	loss-noreward	OutcomeDisplay				
77	759.03		win-noreward	ImageDisplay1		0.0		
77	761.019	0.75	win-noreward	StartDisplay				
77	761.771		win-noreward	ImageDisplay2		0.0		
77	765.031	1.6	win-noreward	ChoiceDisplay	1	1.029	1	1
77	766.084	0.571	win-noreward	ChosenDisplay		0.0		
77	766.636	0.25	win-noreward	TurnDisplay				
77	766.886	0.75	win-noreward	OutcomeDisplay				
78	767.639		loss-reward	ImageDisplay1		0.0		
78	769.879	0.75	loss-reward	StartDisplay				
78	770.631		loss-reward	ImageDisplay2		0.0		
78	773.64	1.6	loss-reward	ChoiceDisplay	1	0.464	1	1
78	774.125	1.136	loss-reward	ChosenDisplay		0.0		
78	775.245	0.25	loss-reward	TurnDisplay				
78	775.496	0.75	loss-reward	OutcomeDisplay				
79	776.248		loss-noreward	ImageDisplay1		0.0		
79	778.237	0.75	loss-noreward	StartDisplay				
79	778.989		loss-noreward	ImageDisplay2		0.0		
79	782.249	1.6	loss-noreward	ChoiceDisplay	1	1.374	1	1
79	783.637	0.226	loss-noreward	ChosenDisplay		0.0		
79	783.854	0.25	loss-noreward	TurnDisplay				
79	784.105	0.75	loss-noreward	OutcomeDisplay				
80	784.857		win-reward	ImageDisplay1		0.0		
80	787.097	0.75	win-reward	StartDisplay				
80	787.849		win-reward	ImageDisplay2		0.0		
80	790.858	1.6	win-reward	ChoiceDisplay	1	0.782	1	1
80	791.661	0.818	win-reward	ChosenDisplay		0.0		
80	792.463	0.25	win-reward	TurnDisplay				
80	792.714	0.75	win-reward	OutcomeDisplay				
81	793.466		control-reward	ImageDisplay1		0.0		
81	795.706	0.75	control-reward	StartDisplay				
81	796.458		control-reward	ImageDisplay2		0.0		
81	799.467	1.6	control-reward	ChoiceDisplay	1	0.881	1	1
81	800.37	0.719	control-reward	ChosenDisplay		0.0		
81	801.072	0.25	control-reward	TurnDisplay				
81	801.323	0.75	control-reward	OutcomeDisplay				
82	802.075		loss-reward	ImageDisplay1		0.0		
82	804.315	0.75	loss-reward	StartDisplay				
82	805.067		loss-reward	ImageDisplay2		0.0		
82	808.076	1.6	loss-reward	ChoiceDisplay	1	0.958	1	1
82	809.046	0.642	loss-reward	ChosenDisplay		0.0		
82	809.681	0.25	loss-reward	TurnDisplay				
82	809.932	0.75	loss-reward	OutcomeDisplay				
83	810.684		control-noreward	ImageDisplay1		0.0		
83	812.673	0.75	control-noreward	StartDisplay				
83	813.426		control-noreward	ImageDisplay2		0.0		
83	816.685	1.6	control-noreward	ChoiceDisplay	1	0.356	1	1
83	817.053	1.244	control-noreward	ChosenDisplay		0.0		
83	818.29	0.25	control-noreward	TurnDisplay				
83	818.541	0.75	control-noreward	OutcomeDisplay				
84	819.293		win-reward	ImageDisplay1		0.0		
84	821.533	0.75	win-reward	StartDisplay				
84	822.285		win-reward	ImageDisplay2		0.0		
84	825.294	1.6	win-reward	ChoiceDisplay	1	1.094	1	1
84	826.414	0.506	win-reward	ChosenDisplay		0.0		
84	826.899	0.25	win-reward	TurnDisplay				
84	827.15	0.75	win-reward	OutcomeDisplay				
85	827.902		win-noreward	ImageDisplay1		0.0		
85	829.892	0.75	win-noreward	StartDisplay				
85	830.644		win-noreward	ImageDisplay2		0.0		
85	833.904	1.6	win-noreward	ChoiceDisplay	1	1.24	1	1
85	835.157	0.36	win-noreward	ChosenDisplay		0.0		
85	835.508	0.25	win-noreward	TurnDisplay				
85	835.759	0.75	win-noreward	OutcomeDisplay				
86	836.511		loss-reward	ImageDisplay1		0.0		
86	838.751	0.75	loss-reward	StartDisplay				
86	839.504		loss-reward	ImageDisplay2		0.0		
86	842.513	1.6	loss-reward	ChoiceDisplay	1	0.987	1	1
86	843.516	0.613	loss-reward	ChosenDisplay		0.0		
86	844.117	0.25	loss-reward	TurnDisplay				
86	844.368	0.75	loss-reward	OutcomeDisplay				
87	845.12		loss-reward	ImageDisplay1		0.0		
87	847.36	0.75	loss-reward	StartDisplay				
87	848.113		loss-reward	ImageDisplay2		0.0		
87	851.122	1.6	loss-reward	ChoiceDisplay	1	1.14	1	1
87	852.275	0.46	loss-reward	ChosenDisplay		0.0		
87	852.726	0.25	loss-reward	TurnDisplay				
87	852.977	0.75	loss-reward	OutcomeDisplay				
88	853.729		loss-noreward	ImageDisplay1		0.0		
88	855.719	0.75	loss-noreward	StartDisplay				
88	856.471		loss-noreward	ImageDisplay2		0.0		
88	859.731	1.6	loss-noreward	ChoiceDisplay	1	1.364	1	1
88	861.118	0.236	loss-noreward	ChosenDisplay		0.0		
88	861.336	0.25	loss-noreward	TurnDisplay				
88	861.586	0.75	loss-noreward	OutcomeDisplay				
89	862.339		control-noreward	ImageDisplay1		0.0		
89	864.328	0.75	control-noreward	StartDisplay				
89	865.08		control-noreward	ImageDisplay2		0.0		
89	868.34	1.6	control-noreward	ChoiceDisplay	1	1.25	1	1
89	869.61	0.35	control-noreward	ChosenDisplay		0.0		
89	869.945	0.25	control-noreward	TurnDisplay				
89	870.195	0.75	control-noreward	OutcomeDisplay				
90	870.948		win-noreward	ImageDisplay1		0.0		
90	872.937	0.75	win-noreward	StartDisplay				
90	873.689		win-noreward	ImageDisplay2		0.0		
90	876.949	1.6	win-noreward	ChoiceDisplay	1	1.342	1	1
90	878.303	0.258	win-noreward	ChosenDisplay		0.0		
90	878.554	0.25	win-noreward	TurnDisplay				
90	878.804	0.75	win-noreward	OutcomeDisplay				
91	879.557		win-reward	ImageDisplay1		0.0		
91	881.797	0.75	win-reward	StartDisplay				
91	882.549		win-reward	ImageDisplay2		0.0		
91	885.558	1.6	win-reward	ChoiceDisplay	1	0.984	1	1
91	886.561	0.616	win-reward	ChosenDisplay		0.0		
91	887.163	0.25	win-reward	TurnDisplay				
91	887.414	0.75	win-reward	OutcomeDisplay				
92	888.166		loss-noreward	ImageDisplay1		0.0		
92	890.155	0.75	loss-noreward	StartDisplay				
92	890.907		loss-noreward	ImageDisplay2		0.0		
92	894.167	1.6	loss-noreward	ChoiceDisplay	1	1.176	1	1
92	895.371	0.424	loss-noreward	ChosenDisplay		0.0		
92	895.772	0.25	loss-noreward	TurnDisplay				
92	896.023	0.75	loss-noreward	OutcomeDisplay				
93	896.775		win-reward	ImageDisplay1		0.0		
93	899.015	0.75	win-reward	StartDisplay				
93	899.767		win-reward	ImageDisplay2		0.0		
93	902.776	1.6	win-reward	ChoiceDisplay	1	1.176	1	1
93	903.963	0.424	win-reward	ChosenDisplay		0.0		
93	904.381	0.25	win-reward	TurnDisplay				
93	904.632	0.75	win-reward	OutcomeDisplay				
94	905.384		control-noreward	ImageDisplay1		0.0		
94	907.373	0.75	control-noreward	StartDisplay				
94	908.125		control-noreward	ImageDisplay2		0.0		
94	911.385	1.6	control-noreward	ChoiceDisplay	1	1.133	1	1
94	912.539	0.467	control-noreward	ChosenDisplay		0.0		
94	912.99	0.25	control-noreward	TurnDisplay				
94	913.241	0.75	control-noreward	OutcomeDisplay				
95	913.993		control-noreward	ImageDisplay1		0.0		
95	915.982	0.75	control-noreward	StartDisplay				
95	916.735		control-noreward	ImageDisplay2		0.0		
95	919.994	1.6	control-noreward	ChoiceDisplay	1	0.897	1	1
95	920.914	0.703	control-noreward	ChosenDisplay		0.0		
95	921.599	0.25	control-noreward	TurnDisplay				
95	921.85	0.75	control-noreward	OutcomeDisplay				
