onset	duration	trial_type	response_time	stim_file	accuracy
60.281	1.0	go	0.938	Go_O	1.0
62.805	1.0	go	0.359	Go_X	1.0
65.329	1.0	go	0.402	Go_X	1.0
67.854	1.0	go	0.32	Go_O	1.0
70.378	1.0	go	0.468	Go_O	1.0
72.902	1.0	go	0.336	Go_X	1.0
75.427	0.25	stopfail	0.364	Go_O	0.0
77.95	1.0	go	0.396	Go_X	1.0
80.475	0.2	stopsuccess	0.0	Go_X	1.0
82.999	1.0	go	0.358	Go_O	1.0
85.523	1.0	go	0.479	Go_O	1.0
88.047	1.0	go	0.549	Go_X	1.0
90.572	0.25	stopfail	0.354	Go_O	0.0
93.112	1.0	go	0.594	Go_X	1.0
95.637	1.0	go	0.303	Go_O	1.0
98.161	0.2	stopsuccess	0.0	Go_X	1.0
100.685	0.25	stopfail	0.365	Go_O	0.0
103.209	1.0	go	0.479	Go_X	1.0
105.734	1.0	go	0.424	Go_O	1.0
108.258	0.2	stopsuccess	0.0	Go_X	1.0
110.782	1.0	go	0.447	Go_O	1.0
113.306	1.0	go	0.501	Go_X	1.0
115.83	0.25	stopsuccess	0.0	Go_O	1.0
118.355	1.0	go	0.571	Go_O	1.0
120.879	1.0	go	0.555	Go_X	1.0
123.403	0.3	stopfail	0.445	Go_X	0.0
125.927	1.0	go	0.594	Go_O	1.0
128.451	1.0	go	0.663	Go_X	1.0
130.976	0.25	stopfail	0.32	Go_O	0.0
133.517	1.0	go	0.418	Go_O	1.0
136.041	1.0	go	0.269	Go_X	1.0
138.565	1.0	go	0.325	Go_O	1.0
141.089	1.0	go	0.755	Go_X	1.0
143.613	1.0	go	0.344	Go_O	1.0
146.138	0.2	stopsuccess	0.0	Go_X	1.0
148.662	1.0	go	0.733	Go_X	1.0
151.186	1.0	go	0.562	Go_X	1.0
153.71	1.0	go	0.369	Go_O	1.0
156.234	1.0	go	0.561	Go_X	1.0
158.759	1.0	go	0.733	Go_O	1.0
161.283	0.25	stopsuccess	0.0	Go_O	1.0
163.807	1.0	go	0.377	Go_X	1.0
166.331	1.0	go	0.313	Go_O	1.0
168.856	1.0	go	0.424	Go_O	1.0
171.38	1.0	go	0.306	Go_X	1.0
173.904	1.0	go	0.31	Go_O	1.0
176.428	1.0	go	0.403	Go_X	1.0
178.952	0.3	stopsuccess	0.0	Go_X	1.0
181.477	1.0	go	0.481	Go_O	1.0
184.001	1.0	go	0.386	Go_X	1.0
186.525	0.35	stopsuccess	0.0	Go_O	1.0
189.049	1.0	go	0.513	Go_O	1.0
191.573	0.4	stopfail	0.31	Go_X	0.0
194.098	0.35	stopfail	0.322	Go_O	0.0
196.639	1.0	go	0.454	Go_X	1.0
199.163	1.0	go	0.609	Go_O	1.0
201.687	1.0	go	0.577	Go_X	1.0
204.211	1.0	go	0.452	Go_X	1.0
206.735	0.3	stopfail	0.378	Go_X	0.0
209.26	1.0	go	0.566	Go_O	1.0
211.784	0.25	stopsuccess	0.0	Go_O	1.0
214.308	1.0	go	0.423	Go_O	1.0
216.832	1.0	go	0.658	Go_X	1.0
219.357	1.0	go	0.632	Go_X	1.0
221.881	1.0	go	0.353	Go_O	1.0
224.405	1.0	go	0.569	Go_O	1.0
226.929	1.0	go	0.744	Go_X	1.0
229.453	1.0	go	0.7	Go_X	1.0
231.978	1.0	go	0.658	Go_O	1.0
234.502	1.0	go	0.392	Go_X	1.0
237.026	0.3	stopsuccess	0.0	Go_X	1.0
239.55	1.0	go	0.345	Go_O	1.0
242.074	1.0	go	0.444	Go_X	1.0
244.599	1.0	go	0.578	Go_O	1.0
247.123	0.35	stopsuccess	0.0	Go_O	1.0
249.647	1.0	go	0.481	Go_X	1.0
252.171	1.0	go	0.573	Go_O	1.0
254.696	1.0	go	0.682	Go_X	1.0
257.22	1.0	go	0.573	Go_O	1.0
259.744	1.0	go	0.473	Go_O	1.0
262.268	1.0	go	0.5	Go_X	1.0
264.792	0.4	stopfail	0.424	Go_X	0.0
267.317	1.0	go	0.637	Go_X	1.0
269.841	1.0	go	0.528	Go_O	1.0
272.365	0.35	stopfail	0.435	Go_O	0.0
274.889	1.0	go	0.375	Go_X	1.0
277.413	1.0	go	0.222	Go_O	1.0
279.938	0.3	stopfail	0.244	Go_X	0.0
282.462	1.0	go	0.462	Go_X	1.0
284.986	0.25	stopfail	0.43	Go_O	0.0
287.51	1.0	go	0.303	Go_O	1.0
290.035	1.0	go	0.505	Go_O	1.0
292.559	1.0	go	0.428	Go_X	1.0
295.083	1.0	go	0.783	Go_X	1.0
297.607	1.0	go	0.51	Go_O	1.0
300.131	0.2	stopsuccess	0.0	Go_X	1.0
302.656	0.25	stopsuccess	0.0	Go_O	1.0
305.197	1.0	go	0.88	Go_O	1.0
307.721	1.0	go	0.505	Go_X	1.0
310.245	0.3	stopfail	0.481	Go_X	0.0
312.769	1.0	go	0.485	Go_X	1.0
315.293	1.0	go	0.691	Go_O	1.0
317.818	1.0	go	0.469	Go_X	1.0
320.342	1.0	go	0.422	Go_O	1.0
322.866	1.0	go	0.414	Go_X	1.0
325.39	1.0	go	0.431	Go_O	1.0
327.914	0.25	stopsuccess	0.0	Go_O	1.0
330.439	1.0	go	0.623	Go_O	1.0
332.963	1.0	go	0.65	Go_X	1.0
335.487	1.0	go	0.552	Go_X	1.0
338.011	1.0	go	0.442	Go_O	1.0
340.536	1.0	go	0.511	Go_O	1.0
343.06	0.3	stopsuccess	0.0	Go_X	1.0
345.584	1.0	go	0.683	Go_X	1.0
348.108	1.0	go	0.565	Go_O	1.0
350.632	1.0	go	0.6	Go_X	1.0
353.157	1.0	go	0.536	Go_O	1.0
355.681	0.35	stopfail	0.529	Go_O	0.0
358.205	1.0	go	0.773	Go_X	1.0
360.729	1.0	go	0.607	Go_X	1.0
363.253	0.3	stopfail	0.414	Go_X	0.0
365.778	1.0	go	0.646	Go_O	1.0
368.302	0.25	stopsuccess	0.0	Go_O	1.0
370.826	1.0	go	0.507	Go_X	1.0
373.35	1.0	go	0.517	Go_O	1.0
375.875	1.0	go	0.633	Go_X	1.0
378.399	1.0	go	0.405	Go_O	1.0
380.923	1.0	go	0.6	Go_O	1.0
383.447	1.0	go	0.429	Go_X	1.0
385.971	1.0	go	0.638	Go_O	1.0
388.496	0.3	stopsuccess	0.0	Go_X	1.0
391.02	1.0	go	0.586	Go_X	1.0
393.544	1.0	go	0.408	Go_O	1.0
396.068	1.0	go	0.497	Go_X	1.0
398.592	0.35	stopfail	0.627	Go_O	0.0
401.117	1.0	go	0.496	Go_O	1.0
403.641	1.0	go	0.571	Go_X	1.0
406.165	1.0	go	0.442	Go_O	1.0
408.689	1.0	go	0.786	Go_X	1.0
411.214	0.3	stopsuccess	0.0	Go_X	1.0
413.738	1.0	go	0.433	Go_O	1.0
416.262	1.0	go	0.478	Go_X	1.0
418.786	0.35	stopfail	0.484	Go_O	0.0
421.31	1.0	go	0.492	Go_X	1.0
423.835	1.0	go	0.479	Go_O	1.0
426.359	0.3	stopsuccess	0.0	Go_X	1.0
428.883	1.0	go	0.68	Go_O	1.0
431.407	1.0	go	0.476	Go_X	1.0
433.931	0.35	stopsuccess	0.0	Go_O	1.0
436.456	1.0	go	0.764	Go_X	1.0
438.98	1.0	go	0.449	Go_O	1.0
441.504	1.0	go	0.432	Go_X	1.0
444.028	1.0	go	0.577	Go_O	1.0
446.553	1.0	go	0.532	Go_X	1.0
449.077	1.0	go	0.0	Go_O	0.0
451.601	0.4	stopfail	0.409	Go_X	0.0
454.125	1.0	go	0.508	Go_X	1.0
456.649	0.35	stopfail	0.583	Go_O	0.0
459.174	1.0	go	0.48	Go_O	1.0
461.698	1.0	go	0.518	Go_O	1.0
464.222	1.0	go	0.533	Go_X	0.0
466.746	1.0	go	0.538	Go_O	1.0
469.27	1.0	go	0.568	Go_X	1.0
471.795	0.3	stopsuccess	0.0	Go_X	1.0
474.319	1.0	go	0.529	Go_O	1.0
476.843	1.0	go	0.657	Go_X	1.0
479.367	1.0	go	0.706	Go_O	1.0
481.892	0.35	stopfail	0.416	Go_O	0.0
484.416	0.3	stopsuccess	0.0	Go_X	1.0
486.94	0.35	stopsuccess	0.0	Go_O	1.0
489.464	1.0	go	0.601	Go_X	1.0
491.988	0.4	stopsuccess	0.0	Go_X	1.0
494.513	1.0	go	0.662	Go_X	1.0
497.037	1.0	go	0.462	Go_O	1.0
499.561	1.0	go	0.436	Go_X	1.0
502.085	1.0	go	0.582	Go_O	1.0
504.609	1.0	go	0.472	Go_X	1.0
507.134	1.0	go	0.635	Go_O	1.0
509.658	1.0	go	0.429	Go_X	1.0
512.182	1.0	go	0.38	Go_O	1.0
514.706	0.45	stopfail	0.507	Go_O	0.0
517.23	1.0	go	0.707	Go_O	1.0
519.755	1.0	go	0.381	Go_X	1.0
522.279	0.4	stopfail	0.476	Go_X	0.0
524.803	1.0	go	0.475	Go_X	0.0
527.327	1.0	go	0.802	Go_O	1.0
529.852	1.0	go	0.525	Go_X	1.0
532.376	1.0	go	0.463	Go_O	1.0
534.9	1.0	go	0.406	Go_X	1.0
537.424	0.35	stopfail	0.447	Go_O	0.0
539.948	1.0	go	0.563	Go_O	1.0
542.473	1.0	go	0.504	Go_O	1.0
544.997	1.0	go	0.389	Go_X	1.0
547.521	0.3	stopsuccess	0.0	Go_X	1.0
550.045	1.0	go	0.561	Go_X	0.0
552.57	0.35	stopfail	0.519	Go_O	0.0
555.11	1.0	go	0.535	Go_O	1.0
557.635	1.0	go	0.515	Go_O	1.0
560.159	1.0	go	0.361	Go_X	1.0
562.683	1.0	go	0.608	Go_X	1.0
565.207	1.0	go	0.554	Go_O	1.0
567.731	1.0	go	0.621	Go_O	1.0
570.256	1.0	go	0.456	Go_X	1.0
572.78	0.3	stopsuccess	0.0	Go_X	1.0
575.304	1.0	go	0.522	Go_O	1.0
577.828	1.0	go	0.548	Go_X	1.0
580.353	1.0	go	0.408	Go_X	1.0
582.877	1.0	go	0.48	Go_O	1.0
585.401	0.35	stopfail	0.485	Go_O	0.0
587.925	1.0	go	0.487	Go_O	1.0
590.449	0.3	stopfail	0.441	Go_X	0.0
592.974	1.0	go	0.545	Go_X	1.0
595.498	1.0	go	0.754	Go_O	1.0
598.022	0.25	stopsuccess	0.0	Go_O	1.0
600.546	1.0	go	0.395	Go_X	1.0
603.07	1.0	go	0.686	Go_O	1.0
605.595	1.0	go	0.804	Go_X	0.0
608.119	1.0	go	0.663	Go_O	1.0
610.643	1.0	go	0.405	Go_X	1.0
613.167	1.0	go	0.453	Go_X	1.0
615.692	1.0	go	0.539	Go_O	1.0
618.216	1.0	go	0.445	Go_X	1.0
620.74	1.0	go	0.483	Go_O	1.0
623.264	1.0	go	0.487	Go_X	1.0
625.788	0.3	stopsuccess	0.0	Go_X	1.0
628.313	1.0	go	0.489	Go_O	1.0
630.837	1.0	go	0.477	Go_O	1.0
633.361	0.35	stopfail	0.508	Go_O	0.0
635.885	1.0	go	0.435	Go_X	1.0
638.409	0.3	stopfail	0.372	Go_X	0.0
640.934	1.0	go	0.512	Go_X	1.0
643.458	1.0	go	0.622	Go_O	1.0
645.982	0.25	stopsuccess	0.0	Go_O	1.0
648.506	1.0	go	0.541	Go_O	1.0
651.031	0.3	stopsuccess	0.0	Go_X	1.0
653.555	1.0	go	0.525	Go_X	0.0
656.079	1.0	go	0.482	Go_O	1.0
658.603	1.0	go	0.565	Go_X	1.0
661.127	0.35	stopsuccess	0.0	Go_O	1.0
663.652	1.0	go	0.654	Go_X	1.0
666.176	1.0	go	0.65	Go_O	1.0
668.7	1.0	go	0.56	Go_O	1.0
671.224	1.0	go	0.825	Go_X	1.0
673.748	0.4	stopfail	0.559	Go_X	0.0
676.273	1.0	go	0.487	Go_X	1.0
678.797	1.0	go	0.576	Go_O	1.0
681.321	0.35	stopsuccess	0.0	Go_O	1.0
683.845	1.0	go	0.493	Go_X	1.0
686.37	1.0	go	0.506	Go_O	1.0
688.894	1.0	go	0.63	Go_X	1.0
691.418	1.0	go	0.45	Go_O	0.0
693.942	0.4	stopfail	0.55	Go_X	0.0
696.466	1.0	go	0.578	Go_X	1.0
698.991	0.35	stopfail	0.581	Go_O	0.0
701.515	1.0	go	0.583	Go_O	1.0
704.039	1.0	go	0.526	Go_O	1.0
706.563	0.3	stopsuccess	0.0	Go_X	1.0
709.087	1.0	go	0.629	Go_X	1.0
711.612	1.0	go	0.459	Go_X	1.0
714.136	1.0	go	0.442	Go_O	1.0
716.66	1.0	go	0.471	Go_O	1.0
719.184	0.35	stopfail	0.501	Go_O	0.0
721.709	1.0	go	0.446	Go_X	1.0
724.233	0.3	stopfail	0.53	Go_X	0.0
726.757	1.0	go	0.511	Go_X	1.0
729.281	1.0	go	0.602	Go_O	1.0
731.805	1.0	go	0.578	Go_O	1.0
734.33	1.0	go	0.615	Go_X	1.0
736.854	1.0	go	0.492	Go_X	1.0
739.378	1.0	go	0.671	Go_O	1.0
741.902	0.25	stopsuccess	0.0	Go_O	1.0
744.426	1.0	go	0.756	Go_X	1.0
746.951	1.0	go	0.634	Go_O	1.0
749.475	0.3	stopsuccess	0.0	Go_X	1.0
751.999	1.0	go	0.461	Go_O	1.0
754.523	1.0	go	0.607	Go_X	1.0
757.048	0.35	stopsuccess	0.0	Go_O	1.0
759.572	1.0	go	0.53	Go_X	1.0
762.096	1.0	go	0.799	Go_O	1.0
764.62	1.0	go	0.599	Go_X	1.0
767.144	1.0	go	0.69	Go_O	1.0
769.669	0.4	stopsuccess	0.0	Go_X	1.0
772.193	1.0	go	0.593	Go_O	1.0
774.717	0.45	stopsuccess	0.0	Go_O	1.0
777.241	1.0	go	0.797	Go_X	1.0
779.765	1.0	go	0.852	Go_O	1.0
782.29	1.0	go	0.836	Go_X	1.0
784.814	1.0	go	0.726	Go_O	1.0
787.338	1.0	go	0.899	Go_X	1.0
789.862	0.5	stopfail	0.52	Go_X	0.0
792.387	1.0	go	0.629	Go_X	1.0
794.911	1.0	go	0.734	Go_O	1.0
797.435	0.45	stopsuccess	0.0	Go_O	1.0
799.959	0.5	stopfail	0.553	Go_X	0.0
802.483	1.0	go	0.482	Go_O	1.0
805.008	1.0	go	0.546	Go_X	1.0
807.549	1.0	go	0.496	Go_X	1.0
810.073	1.0	go	0.805	Go_O	1.0
812.597	0.45	stopfail	0.606	Go_O	0.0
815.121	1.0	go	0.73	Go_O	1.0
