onset	duration	trial_type	response_time	stim_file	accuracy
59.873	1.0	go	0.828	Go_O	1.0
62.397	1.0	go	0.563	Go_X	1.0
64.922	1.0	go	0.419	Go_X	1.0
67.446	1.0	go	0.46	Go_O	1.0
69.97	1.0	go	0.333	Go_X	1.0
72.494	1.0	go	0.626	Go_O	1.0
75.019	0.25	stopsuccess	0.0	Go_O	1.0
77.543	1.0	go	0.402	Go_O	1.0
80.067	0.3	stopfail	0.286	Go_X	0.0
82.591	1.0	go	0.507	Go_X	1.0
85.115	1.0	go	0.552	Go_X	1.0
87.64	1.0	go	0.549	Go_O	1.0
90.164	0.25	stopsuccess	0.0	Go_O	1.0
92.688	1.0	go	0.406	Go_O	1.0
95.212	1.0	go	0.466	Go_X	1.0
97.737	0.3	stopfail	0.379	Go_X	0.0
100.261	0.25	stopsuccess	0.0	Go_O	1.0
102.785	1.0	go	0.475	Go_O	1.0
105.309	1.0	go	0.598	Go_X	1.0
107.834	0.3	stopsuccess	0.0	Go_X	1.0
110.374	1.0	go	0.408	Go_X	1.0
112.899	1.0	go	0.348	Go_O	1.0
115.423	0.35	stopsuccess	0.0	Go_O	1.0
117.947	1.0	go	0.433	Go_X	1.0
120.471	1.0	go	0.463	Go_O	1.0
122.996	0.4	stopfail	0.532	Go_X	0.0
125.52	1.0	go	0.495	Go_O	1.0
128.044	1.0	go	0.0	Go_X	0.0
130.568	0.35	stopsuccess	0.0	Go_O	1.0
133.092	1.0	go	0.471	Go_O	1.0
135.617	1.0	go	0.679	Go_X	1.0
138.141	1.0	go	0.459	Go_O	1.0
140.665	1.0	go	0.438	Go_X	1.0
143.189	1.0	go	0.586	Go_O	1.0
145.714	0.4	stopfail	0.448	Go_X	0.0
148.238	1.0	go	0.56	Go_X	1.0
150.762	1.0	go	0.441	Go_O	1.0
153.286	1.0	go	0.489	Go_X	1.0
155.811	1.0	go	0.572	Go_O	1.0
158.335	1.0	go	0.441	Go_X	1.0
160.859	0.35	stopsuccess	0.0	Go_O	1.0
163.383	1.0	go	0.433	Go_X	1.0
165.907	1.0	go	0.489	Go_O	1.0
168.432	1.0	go	0.527	Go_X	1.0
170.956	1.0	go	0.495	Go_O	1.0
173.48	1.0	go	0.669	Go_O	1.0
176.004	1.0	go	0.801	Go_X	1.0
178.529	0.4	stopsuccess	0.0	Go_X	1.0
181.053	1.0	go	0.509	Go_O	1.0
183.577	1.0	go	0.57	Go_X	1.0
186.101	0.45	stopsuccess	0.0	Go_O	1.0
188.625	1.0	go	0.0	Go_X	0.0
191.15	0.5	stopfail	0.535	Go_X	0.0
193.674	0.45	stopfail	0.453	Go_O	0.0
196.198	1.0	go	0.603	Go_O	1.0
198.722	1.0	go	0.639	Go_O	1.0
201.247	1.0	go	0.593	Go_X	1.0
203.771	1.0	go	0.54	Go_O	1.0
206.312	0.4	stopfail	0.362	Go_X	0.0
208.836	1.0	go	0.525	Go_X	1.0
211.36	0.35	stopsuccess	0.0	Go_O	1.0
213.884	1.0	go	0.456	Go_O	1.0
216.409	1.0	go	0.553	Go_X	1.0
218.933	1.0	go	0.874	Go_O	1.0
221.457	1.0	go	0.0	Go_X	0.0
223.981	1.0	go	0.439	Go_O	1.0
226.506	1.0	go	0.512	Go_X	1.0
229.03	1.0	go	0.727	Go_O	1.0
231.554	1.0	go	0.534	Go_X	1.0
234.078	1.0	go	0.586	Go_X	1.0
236.602	0.4	stopfail	0.48	Go_X	0.0
239.127	1.0	go	0.715	Go_O	1.0
241.651	1.0	go	0.651	Go_X	1.0
244.175	1.0	go	0.678	Go_O	1.0
246.699	0.35	stopsuccess	0.0	Go_O	1.0
249.224	1.0	go	0.679	Go_X	1.0
251.748	1.0	go	0.623	Go_O	1.0
254.272	1.0	go	0.657	Go_X	1.0
256.796	1.0	go	0.408	Go_O	1.0
259.32	1.0	go	0.463	Go_X	1.0
261.845	1.0	go	0.631	Go_O	1.0
264.369	0.4	stopfail	0.362	Go_X	0.0
266.893	1.0	go	0.61	Go_O	1.0
269.417	1.0	go	0.727	Go_X	1.0
271.942	0.35	stopsuccess	0.0	Go_O	1.0
274.466	1.0	go	0.348	Go_X	1.0
276.99	1.0	go	0.573	Go_O	1.0
279.514	0.4	stopsuccess	0.0	Go_X	1.0
282.038	1.0	go	0.577	Go_O	1.0
284.563	0.45	stopfail	0.561	Go_O	0.0
287.087	1.0	go	0.619	Go_X	1.0
289.611	1.0	go	0.813	Go_X	1.0
292.135	1.0	go	0.493	Go_O	1.0
294.66	1.0	go	0.731	Go_O	1.0
297.184	1.0	go	0.395	Go_X	1.0
299.708	0.4	stopsuccess	0.0	Go_X	1.0
302.232	0.45	stopsuccess	0.0	Go_O	1.0
304.757	1.0	go	0.633	Go_X	1.0
307.281	1.0	go	0.434	Go_O	1.0
309.805	0.5	stopsuccess	0.0	Go_X	1.0
312.329	1.0	go	0.465	Go_O	1.0
314.853	1.0	go	0.62	Go_X	1.0
317.378	1.0	go	0.817	Go_O	1.0
319.902	1.0	go	0.546	Go_X	1.0
322.426	1.0	go	0.625	Go_X	1.0
324.95	1.0	go	0.597	Go_O	1.0
327.474	0.55	stopfail	0.595	Go_O	0.0
329.999	1.0	go	0.495	Go_X	1.0
332.523	1.0	go	0.677	Go_O	1.0
335.047	1.0	go	0.735	Go_O	1.0
337.571	1.0	go	0.617	Go_X	1.0
340.096	1.0	go	0.499	Go_X	1.0
342.62	0.5	stopfail	0.492	Go_X	0.0
345.144	1.0	go	0.446	Go_O	1.0
347.668	1.0	go	0.644	Go_O	1.0
350.193	1.0	go	0.897	Go_X	1.0
352.717	1.0	go	0.564	Go_O	1.0
355.241	0.45	stopfail	0.552	Go_O	0.0
357.765	1.0	go	0.552	Go_X	1.0
360.289	1.0	go	0.483	Go_X	1.0
362.814	0.4	stopsuccess	0.0	Go_X	1.0
365.355	1.0	go	0.576	Go_O	1.0
367.879	0.45	stopsuccess	0.0	Go_O	1.0
370.42	1.0	go	0.623	Go_X	0.0
372.944	1.0	go	0.706	Go_O	1.0
375.468	1.0	go	0.462	Go_X	1.0
377.992	1.0	go	0.466	Go_O	1.0
380.517	1.0	go	0.495	Go_O	1.0
383.041	1.0	go	0.806	Go_X	1.0
385.565	1.0	go	0.677	Go_O	1.0
388.089	0.5	stopsuccess	0.0	Go_X	1.0
390.614	1.0	go	0.529	Go_X	1.0
393.138	1.0	go	0.605	Go_O	1.0
395.662	1.0	go	0.983	Go_X	1.0
398.186	0.55	stopfail	0.629	Go_O	0.0
400.71	1.0	go	0.771	Go_O	1.0
403.235	1.0	go	0.789	Go_X	1.0
405.759	1.0	go	0.687	Go_X	1.0
408.283	1.0	go	0.834	Go_O	1.0
410.807	0.5	stopsuccess	0.0	Go_X	1.0
413.332	1.0	go	0.547	Go_X	1.0
415.856	1.0	go	0.53	Go_O	1.0
418.38	0.55	stopfail	0.561	Go_O	0.0
420.904	1.0	go	0.746	Go_O	1.0
423.428	1.0	go	0.458	Go_X	1.0
425.953	0.5	stopfail	0.655	Go_X	0.0
428.477	1.0	go	0.715	Go_O	1.0
431.001	1.0	go	0.0	Go_X	0.0
433.525	0.45	stopfail	0.589	Go_O	0.0
436.05	1.0	go	0.709	Go_O	1.0
438.574	1.0	go	0.866	Go_X	1.0
441.098	1.0	go	0.752	Go_X	1.0
443.622	1.0	go	0.961	Go_O	1.0
446.146	1.0	go	0.829	Go_X	1.0
448.671	1.0	go	0.533	Go_O	1.0
451.195	0.4	stopsuccess	0.0	Go_X	1.0
453.719	1.0	go	0.0	Go_X	0.0
456.243	0.45	stopsuccess	0.0	Go_O	1.0
458.768	1.0	go	0.401	Go_O	1.0
461.292	1.0	go	0.811	Go_O	1.0
463.816	1.0	go	0.768	Go_X	1.0
466.34	1.0	go	0.495	Go_X	1.0
468.864	1.0	go	0.655	Go_O	1.0
471.389	0.5	stopfail	0.459	Go_X	0.0
473.913	1.0	go	0.902	Go_O	1.0
476.437	1.0	go	0.919	Go_X	1.0
478.961	1.0	go	0.447	Go_O	1.0
481.486	0.45	stopsuccess	0.0	Go_O	1.0
484.01	0.5	stopfail	0.404	Go_X	0.0
486.534	0.45	stopsuccess	0.0	Go_O	1.0
489.058	1.0	go	0.448	Go_X	1.0
491.583	0.5	stopsuccess	0.0	Go_X	1.0
494.107	1.0	go	0.621	Go_X	1.0
496.631	1.0	go	0.958	Go_O	1.0
499.155	1.0	go	0.494	Go_X	1.0
501.679	1.0	go	0.746	Go_O	1.0
504.204	1.0	go	0.703	Go_O	1.0
506.728	1.0	go	0.0	Go_X	0.0
509.252	1.0	go	0.612	Go_O	1.0
511.776	1.0	go	0.758	Go_X	1.0
514.301	0.55	stopsuccess	0.0	Go_O	1.0
516.825	1.0	go	0.582	Go_O	1.0
519.349	1.0	go	0.705	Go_X	1.0
521.873	0.6	stopfail	0.486	Go_X	0.0
524.397	1.0	go	0.991	Go_X	0.0
526.922	1.0	go	0.599	Go_O	1.0
529.446	1.0	go	0.616	Go_X	1.0
531.97	1.0	go	0.872	Go_O	1.0
534.494	1.0	go	0.498	Go_O	1.0
537.019	0.55	stopfail	0.59	Go_O	0.0
539.543	1.0	go	0.578	Go_X	1.0
542.067	1.0	go	0.66	Go_O	1.0
544.591	1.0	go	0.619	Go_X	1.0
547.115	0.5	stopfail	0.654	Go_X	0.0
549.64	1.0	go	0.577	Go_O	1.0
552.164	0.45	stopsuccess	0.0	Go_O	1.0
554.688	1.0	go	0.477	Go_X	1.0
557.212	1.0	go	0.545	Go_X	1.0
559.737	1.0	go	0.694	Go_O	1.0
562.261	1.0	go	0.535	Go_O	1.0
564.785	1.0	go	0.0	Go_X	0.0
567.309	1.0	go	0.619	Go_X	1.0
569.834	1.0	go	0.822	Go_O	1.0
572.358	0.5	stopfail	0.541	Go_X	0.0
574.882	1.0	go	0.655	Go_X	1.0
577.406	1.0	go	0.45	Go_O	1.0
579.93	1.0	go	0.562	Go_O	1.0
582.455	1.0	go	0.574	Go_X	1.0
584.979	0.45	stopsuccess	0.0	Go_O	1.0
587.503	1.0	go	0.558	Go_O	1.0
590.027	0.5	stopsuccess	0.0	Go_X	1.0
592.552	1.0	go	0.529	Go_X	1.0
595.076	1.0	go	0.89	Go_O	1.0
597.6	0.55	stopsuccess	0.0	Go_O	1.0
600.124	1.0	go	0.617	Go_X	1.0
602.648	1.0	go	0.767	Go_X	1.0
605.173	1.0	go	0.863	Go_O	1.0
607.697	1.0	go	0.699	Go_O	1.0
610.221	1.0	go	0.429	Go_X	1.0
612.746	1.0	go	0.742	Go_X	1.0
615.27	1.0	go	0.759	Go_O	1.0
617.794	1.0	go	0.904	Go_O	1.0
620.318	1.0	go	0.771	Go_X	1.0
622.842	1.0	go	0.601	Go_O	1.0
625.366	0.6	stopfail	0.6	Go_X	0.0
627.891	1.0	go	0.665	Go_X	1.0
630.415	1.0	go	0.844	Go_O	1.0
632.939	0.55	stopsuccess	0.0	Go_O	1.0
635.463	1.0	go	0.616	Go_X	1.0
637.988	0.6	stopsuccess	0.0	Go_X	1.0
640.512	1.0	go	0.752	Go_O	1.0
643.036	1.0	go	0.645	Go_X	1.0
645.56	0.65	stopfail	0.662	Go_O	0.0
648.084	1.0	go	0.842	Go_X	1.0
650.609	0.6	stopsuccess	0.0	Go_X	1.0
653.133	1.0	go	0.586	Go_O	1.0
655.657	1.0	go	0.696	Go_O	1.0
658.181	1.0	go	0.619	Go_X	1.0
660.706	0.65	stopsuccess	0.0	Go_O	1.0
663.23	1.0	go	0.861	Go_O	1.0
665.754	1.0	go	0.503	Go_X	1.0
668.278	1.0	go	0.596	Go_X	1.0
670.802	1.0	go	0.991	Go_O	1.0
673.327	0.7	stopfail	0.648	Go_X	0.0
675.851	1.0	go	0.78	Go_O	1.0
678.375	1.0	go	0.687	Go_X	1.0
680.899	0.65	stopfail	0.584	Go_O	0.0
683.424	1.0	go	0.837	Go_X	1.0
685.948	1.0	go	0.946	Go_O	1.0
688.472	1.0	go	0.612	Go_X	1.0
690.996	1.0	go	0.659	Go_O	1.0
693.52	0.6	stopsuccess	0.0	Go_X	1.0
696.045	1.0	go	0.616	Go_O	1.0
698.569	0.65	stopfail	0.717	Go_O	0.0
701.093	1.0	go	0.922	Go_X	1.0
703.617	1.0	go	0.823	Go_X	0.0
706.142	0.6	stopsuccess	0.0	Go_X	1.0
708.666	1.0	go	0.438	Go_O	1.0
711.19	1.0	go	0.595	Go_O	0.0
713.714	1.0	go	0.304	Go_X	0.0
716.239	1.0	go	0.408	Go_O	1.0
718.763	0.65	stopfail	0.656	Go_O	0.0
721.287	1.0	go	0.464	Go_X	1.0
723.811	0.6	stopfail	0.447	Go_X	0.0
726.335	1.0	go	0.661	Go_X	1.0
728.86	1.0	go	0.811	Go_O	1.0
731.384	1.0	go	0.703	Go_X	1.0
733.908	1.0	go	0.663	Go_O	1.0
736.432	1.0	go	0.514	Go_X	1.0
738.957	1.0	go	0.0	Go_O	0.0
741.481	0.55	stopfail	0.485	Go_O	0.0
744.005	1.0	go	0.625	Go_X	1.0
746.529	1.0	go	0.482	Go_O	1.0
749.053	0.5	stopfail	0.503	Go_X	0.0
751.578	1.0	go	0.586	Go_O	1.0
754.102	1.0	go	0.498	Go_X	1.0
756.626	0.45	stopfail	0.497	Go_O	0.0
759.15	1.0	go	0.58	Go_X	1.0
761.675	1.0	go	0.91	Go_O	0.0
764.199	1.0	go	0.312	Go_X	0.0
766.723	1.0	go	0.812	Go_O	0.0
769.247	0.4	stopsuccess	0.0	Go_X	1.0
771.771	1.0	go	0.614	Go_X	1.0
774.296	0.45	stopsuccess	0.0	Go_O	1.0
776.82	1.0	go	0.429	Go_O	1.0
779.344	1.0	go	0.524	Go_X	1.0
781.868	1.0	go	0.66	Go_O	1.0
784.393	1.0	go	0.797	Go_O	1.0
786.917	1.0	go	0.681	Go_X	1.0
789.441	0.5	stopfail	0.586	Go_X	0.0
791.965	1.0	go	0.453	Go_X	1.0
794.489	1.0	go	0.674	Go_O	1.0
797.014	0.45	stopfail	0.527	Go_O	0.0
799.538	0.4	stopsuccess	0.0	Go_X	1.0
802.062	1.0	go	0.492	Go_O	1.0
804.586	1.0	go	0.878	Go_X	1.0
807.111	1.0	go	0.835	Go_X	1.0
809.635	1.0	go	0.356	Go_O	1.0
812.159	0.45	stopfail	0.392	Go_O	0.0
814.683	1.0	go	0.825	Go_O	1.0
