frame	onset	duration	trial_type	event_type	response_type	response_time	stim_file	accuracy
0	37.137		win-reward	ImageDisplay1		0.0		
0	39.377		win-reward	StartDisplay		0.0		
0	40.13		win-reward	ImageDisplay2		0.0		
0	43.122		win-reward	ChoiceDisplay		0.0		
0	44.727		win-reward	ChosenDisplay		0.0		
0	44.793		win-reward	TurnDisplay				
0	44.977		win-reward	OutcomeDisplay				
1	45.73		control-noreward	ImageDisplay1		0.0		
1	47.719		control-noreward	StartDisplay		0.0		
1	48.471		control-noreward	ImageDisplay2		0.0		
1	51.731		control-noreward	ChoiceDisplay		0.0		
1	53.319		control-noreward	ChosenDisplay		0.0		
1	53.386		control-noreward	TurnDisplay				
1	53.57		control-noreward	OutcomeDisplay				
2	54.322		control-noreward	ImageDisplay1		0.0		
2	56.328		control-noreward	StartDisplay		0.0		
2	57.08		control-noreward	ImageDisplay2		0.0		
2	60.323		control-noreward	ChoiceDisplay	3	0.459	3	3
2	60.808		control-noreward	ChosenDisplay		0.0		
2	61.928		control-noreward	TurnDisplay				
2	62.212		control-noreward	OutcomeDisplay				
3	62.931		loss-reward	ImageDisplay1		0.0		
3	65.171		loss-reward	StartDisplay		0.0		
3	65.923		loss-reward	ImageDisplay2		0.0		
3	68.932		loss-reward	ChoiceDisplay	3	0.455	3	3
3	69.4		loss-reward	ChosenDisplay		0.0		
3	70.537		loss-reward	TurnDisplay				
3	70.804		loss-reward	OutcomeDisplay				
4	71.54		loss-noreward	ImageDisplay1		0.0		
4	73.529		loss-noreward	StartDisplay		0.0		
4	74.281		loss-noreward	ImageDisplay2		0.0		
4	77.541		loss-noreward	ChoiceDisplay		0.0		
4	79.129		loss-noreward	ChosenDisplay		0.0		
4	79.146		loss-noreward	TurnDisplay				
4	79.38		loss-noreward	OutcomeDisplay				
5	80.132		win-reward	ImageDisplay1		0.0		
5	82.389		win-reward	StartDisplay		0.0		
5	83.141		win-reward	ImageDisplay2		0.0		
5	86.134		win-reward	ChoiceDisplay	3	0.537	3	3
5	86.685		win-reward	ChosenDisplay		0.0		
5	87.738		win-reward	TurnDisplay				
5	87.989		win-reward	OutcomeDisplay				
6	88.741		control-noreward	ImageDisplay1		0.0		
6	90.731		control-noreward	StartDisplay		0.0		
6	91.483		control-noreward	ImageDisplay2		0.0		
6	94.743		control-noreward	ChoiceDisplay	3	0.373	3	3
6	95.144		control-noreward	ChosenDisplay		0.0		
6	96.347		control-noreward	TurnDisplay				
6	96.598		control-noreward	OutcomeDisplay				
7	97.35		win-reward	ImageDisplay1		0.0		
7	99.59		win-reward	StartDisplay		0.0		
7	100.343		win-reward	ImageDisplay2		0.0		
7	103.352		win-reward	ChoiceDisplay	3	0.378	3	3
7	103.753		win-reward	ChosenDisplay		0.0		
7	104.956		win-reward	TurnDisplay				
7	105.207		win-reward	OutcomeDisplay				
8	105.959		loss-noreward	ImageDisplay1		0.0		
8	107.949		loss-noreward	StartDisplay		0.0		
8	108.701		loss-noreward	ImageDisplay2		0.0		
8	111.961		loss-noreward	ChoiceDisplay	3	0.595	3	3
8	112.579		loss-noreward	ChosenDisplay		0.0		
8	113.565		loss-noreward	TurnDisplay				
8	113.833		loss-noreward	OutcomeDisplay				
9	114.568		win-reward	ImageDisplay1		0.0		
9	116.808		win-reward	StartDisplay		0.0		
9	117.561		win-reward	ImageDisplay2		0.0		
9	120.57		win-reward	ChoiceDisplay	3	0.697	3	3
9	121.288		win-reward	ChosenDisplay		0.0		
9	122.174		win-reward	TurnDisplay				
9	122.425		win-reward	OutcomeDisplay				
10	123.177		control-reward	ImageDisplay1		0.0		
10	125.417		control-reward	StartDisplay		0.0		
10	126.17		control-reward	ImageDisplay2		0.0		
10	129.179		control-reward	ChoiceDisplay	3	0.582	3	3
10	129.781		control-reward	ChosenDisplay		0.0		
10	130.784		control-reward	TurnDisplay				
10	131.034		control-reward	OutcomeDisplay				
11	131.787		loss-reward	ImageDisplay1		0.0		
11	134.027		loss-reward	StartDisplay		0.0		
11	134.779		loss-reward	ImageDisplay2		0.0		
11	137.788		loss-reward	ChoiceDisplay	3	0.537	3	3
11	138.339		loss-reward	ChosenDisplay		0.0		
11	139.393		loss-reward	TurnDisplay				
11	139.643		loss-reward	OutcomeDisplay				
12	140.396		loss-reward	ImageDisplay1		0.0		
12	142.636		loss-reward	StartDisplay		0.0		
12	143.388		loss-reward	ImageDisplay2		0.0		
12	146.397		loss-reward	ChoiceDisplay	3	0.389	3	3
12	146.798		loss-reward	ChosenDisplay		0.0		
12	148.002		loss-reward	TurnDisplay				
12	148.252		loss-reward	OutcomeDisplay				
13	149.005		control-noreward	ImageDisplay1		0.0		
13	150.994		control-noreward	StartDisplay		0.0		
13	151.746		control-noreward	ImageDisplay2		0.0		
13	155.006		control-noreward	ChoiceDisplay	3	0.561	3	3
13	155.591		control-noreward	ChosenDisplay		0.0		
13	156.611		control-noreward	TurnDisplay				
13	156.861		control-noreward	OutcomeDisplay				
14	157.614		loss-reward	ImageDisplay1		0.0		
14	159.854		loss-reward	StartDisplay		0.0		
14	160.606		loss-reward	ImageDisplay2		0.0		
14	163.615		loss-reward	ChoiceDisplay	3	0.383	3	3
14	164.016		loss-reward	ChosenDisplay		0.0		
14	165.22		loss-reward	TurnDisplay				
14	165.47		loss-reward	OutcomeDisplay				
15	166.223		win-noreward	ImageDisplay1		0.0		
15	168.212		win-noreward	StartDisplay		0.0		
15	168.964		win-noreward	ImageDisplay2		0.0		
15	172.224		win-noreward	ChoiceDisplay	3	0.562	3	3
15	172.809		win-noreward	ChosenDisplay		0.0		
15	173.829		win-noreward	TurnDisplay				
15	174.096		win-noreward	OutcomeDisplay				
16	174.832		win-noreward	ImageDisplay1		0.0		
16	176.821		win-noreward	StartDisplay		0.0		
16	177.573		win-noreward	ImageDisplay2		0.0		
16	180.833		win-noreward	ChoiceDisplay	3	0.688	3	3
16	181.535		win-noreward	ChosenDisplay		0.0		
16	182.438		win-noreward	TurnDisplay				
16	182.688		win-noreward	OutcomeDisplay				
17	183.441		win-reward	ImageDisplay1		0.0		
17	185.681		win-reward	StartDisplay		0.0		
17	186.433		win-reward	ImageDisplay2		0.0		
17	189.442		win-reward	ChoiceDisplay	3	0.689	3	3
17	190.144		win-reward	ChosenDisplay		0.0		
17	191.047		win-reward	TurnDisplay				
17	191.298		win-reward	OutcomeDisplay				
18	192.05		control-noreward	ImageDisplay1		0.0		
18	194.039		control-noreward	StartDisplay		0.0		
18	194.791		control-noreward	ImageDisplay2		0.0		
18	198.051		control-noreward	ChoiceDisplay	3	1.125	3	3
18	199.188		control-noreward	ChosenDisplay		0.0		
18	199.656		control-noreward	TurnDisplay				
18	199.907		control-noreward	OutcomeDisplay				
19	200.659		control-reward	ImageDisplay1		0.0		
19	202.899		control-reward	StartDisplay		0.0		
19	203.651		control-reward	ImageDisplay2		0.0		
19	206.66		control-reward	ChoiceDisplay	3	0.435	3	3
19	207.111		control-reward	ChosenDisplay		0.0		
19	208.265		control-reward	TurnDisplay				
19	208.516		control-reward	OutcomeDisplay				
20	209.268		loss-noreward	ImageDisplay1		0.0		
20	211.257		loss-noreward	StartDisplay		0.0		
20	212.009		loss-noreward	ImageDisplay2		0.0		
20	215.269		loss-noreward	ChoiceDisplay	3	0.413	3	3
20	215.704		loss-noreward	ChosenDisplay		0.0		
20	216.874		loss-noreward	TurnDisplay				
20	217.125		loss-noreward	OutcomeDisplay				
21	217.877		control-reward	ImageDisplay1		0.0		
21	220.117		control-reward	StartDisplay		0.0		
21	220.869		control-reward	ImageDisplay2		0.0		
21	223.878		control-reward	ChoiceDisplay	3	0.501	3	3
21	224.396		control-reward	ChosenDisplay		0.0		
21	225.483		control-reward	TurnDisplay				
21	225.734		control-reward	OutcomeDisplay				
22	226.486		control-noreward	ImageDisplay1		0.0		
22	228.475		control-noreward	StartDisplay		0.0		
22	229.227		control-noreward	ImageDisplay2		0.0		
22	232.487		control-noreward	ChoiceDisplay	3	0.413	3	3
22	232.922		control-noreward	ChosenDisplay		0.0		
22	234.092		control-noreward	TurnDisplay				
22	234.343		control-noreward	OutcomeDisplay				
23	235.095		control-reward	ImageDisplay1		0.0		
23	237.335		control-reward	StartDisplay		0.0		
23	238.087		control-reward	ImageDisplay2		0.0		
23	241.096		control-reward	ChoiceDisplay	3	0.702	3	3
23	241.815		control-reward	ChosenDisplay		0.0		
23	242.701		control-reward	TurnDisplay				
23	242.952		control-reward	OutcomeDisplay				
24	243.704		control-noreward	ImageDisplay1		0.0		
24	245.693		control-noreward	StartDisplay		0.0		
24	246.446		control-noreward	ImageDisplay2		0.0		
24	249.705		control-noreward	ChoiceDisplay	3	0.51	3	3
24	250.24		control-noreward	ChosenDisplay		0.0		
24	251.31		control-noreward	TurnDisplay				
24	251.561		control-noreward	OutcomeDisplay				
25	252.313		control-noreward	ImageDisplay1		0.0		
25	254.302		control-noreward	StartDisplay		0.0		
25	255.055		control-noreward	ImageDisplay2		0.0		
25	258.314		control-noreward	ChoiceDisplay	3	0.574	3	3
25	258.899		control-noreward	ChosenDisplay		0.0		
25	259.919		control-noreward	TurnDisplay				
25	260.17		control-noreward	OutcomeDisplay				
26	260.922		loss-reward	ImageDisplay1		0.0		
26	263.162		loss-reward	StartDisplay		0.0		
26	263.914		loss-reward	ImageDisplay2		0.0		
26	266.923		loss-reward	ChoiceDisplay	3	0.412	3	3
26	267.358		loss-reward	ChosenDisplay		0.0		
26	268.528		loss-reward	TurnDisplay				
26	268.779		loss-reward	OutcomeDisplay				
27	269.531		loss-reward	ImageDisplay1		0.0		
27	271.771		loss-reward	StartDisplay		0.0		
27	272.523		loss-reward	ImageDisplay2		0.0		
27	275.532		loss-reward	ChoiceDisplay	3	0.514	3	3
27	276.067		loss-reward	ChosenDisplay		0.0		
27	277.137		loss-reward	TurnDisplay				
27	277.388		loss-reward	OutcomeDisplay				
28	278.14		control-noreward	ImageDisplay1		0.0		
28	280.129		control-noreward	StartDisplay		0.0		
28	280.882		control-noreward	ImageDisplay2		0.0		
28	284.141		control-noreward	ChoiceDisplay	3	0.317	3	3
28	284.476		control-noreward	ChosenDisplay		0.0		
28	285.746		control-noreward	TurnDisplay				
28	285.997		control-noreward	OutcomeDisplay				
29	286.749		win-reward	ImageDisplay1		0.0		
29	288.989		win-reward	StartDisplay		0.0		
29	289.741		win-reward	ImageDisplay2		0.0		
29	292.75		win-reward	ChoiceDisplay	3	0.4	3	3
29	293.168		win-reward	ChosenDisplay		0.0		
29	294.355		win-reward	TurnDisplay				
29	294.606		win-reward	OutcomeDisplay				
30	295.358		loss-reward	ImageDisplay1		0.0		
30	297.598		loss-reward	StartDisplay		0.0		
30	298.35		loss-reward	ImageDisplay2		0.0		
30	301.359		loss-reward	ChoiceDisplay	3	0.446	3	3
30	301.828		loss-reward	ChosenDisplay		0.0		
30	302.964		loss-reward	TurnDisplay				
30	303.215		loss-reward	OutcomeDisplay				
31	303.967		win-reward	ImageDisplay1		0.0		
31	306.207		win-reward	StartDisplay		0.0		
31	306.96		win-reward	ImageDisplay2		0.0		
31	309.968		win-reward	ChoiceDisplay	3	0.566	3	3
31	310.554		win-reward	ChosenDisplay		0.0		
31	311.573		win-reward	TurnDisplay				
31	311.824		win-reward	OutcomeDisplay				
32	312.576		win-noreward	ImageDisplay1		0.0		
32	314.566		win-noreward	StartDisplay		0.0		
32	315.318		win-noreward	ImageDisplay2		0.0		
32	318.578		win-noreward	ChoiceDisplay	3	0.535	3	3
32	319.129		win-noreward	ChosenDisplay		0.0		
32	320.182		win-noreward	TurnDisplay				
32	320.433		win-noreward	OutcomeDisplay				
33	321.185		control-reward	ImageDisplay1		0.0		
33	323.425		control-reward	StartDisplay		0.0		
33	324.178		control-reward	ImageDisplay2		0.0		
33	327.187		control-reward	ChoiceDisplay	3	0.4	3	3
33	327.604		control-reward	ChosenDisplay		0.0		
33	328.791		control-reward	TurnDisplay				
33	329.042		control-reward	OutcomeDisplay				
34	329.794		control-noreward	ImageDisplay1		0.0		
34	331.784		control-noreward	StartDisplay		0.0		
34	332.536		control-noreward	ImageDisplay2		0.0		
34	335.796		control-noreward	ChoiceDisplay	3	0.37	3	3
34	336.18		control-noreward	ChosenDisplay		0.0		
34	337.4		control-noreward	TurnDisplay				
34	337.651		control-noreward	OutcomeDisplay				
35	338.403		loss-reward	ImageDisplay1		0.0		
35	340.643		loss-reward	StartDisplay		0.0		
35	341.396		loss-reward	ImageDisplay2		0.0		
35	344.405		loss-reward	ChoiceDisplay	3	0.491	3	3
35	344.923		loss-reward	ChosenDisplay		0.0		
35	346.009		loss-reward	TurnDisplay				
35	346.26		loss-reward	OutcomeDisplay				
36	347.012		win-reward	ImageDisplay1		0.0		
36	349.252		win-reward	StartDisplay		0.0		
36	350.005		win-reward	ImageDisplay2		0.0		
36	353.014		win-reward	ChoiceDisplay	3	0.471	3	3
36	353.498		win-reward	ChosenDisplay		0.0		
36	354.618		win-reward	TurnDisplay				
36	354.869		win-reward	OutcomeDisplay				
37	355.621		loss-noreward	ImageDisplay1		0.0		
37	357.611		loss-noreward	StartDisplay		0.0		
37	358.363		loss-noreward	ImageDisplay2		0.0		
37	361.623		loss-noreward	ChoiceDisplay	3	0.444	3	3
37	362.091		loss-noreward	ChosenDisplay		0.0		
37	363.228		loss-noreward	TurnDisplay				
37	363.478		loss-noreward	OutcomeDisplay				
38	364.231		control-reward	ImageDisplay1		0.0		
38	366.471		control-reward	StartDisplay		0.0		
38	367.223		control-reward	ImageDisplay2		0.0		
38	370.232		control-reward	ChoiceDisplay	3	0.443	3	3
38	370.7		control-reward	ChosenDisplay		0.0		
38	371.837		control-reward	TurnDisplay				
38	372.087		control-reward	OutcomeDisplay				
39	372.84		loss-noreward	ImageDisplay1		0.0		
39	374.829		loss-noreward	StartDisplay		0.0		
39	375.581		loss-noreward	ImageDisplay2		0.0		
39	378.841		loss-noreward	ChoiceDisplay	3	0.441	3	3
39	379.309		loss-noreward	ChosenDisplay		0.0		
39	380.446		loss-noreward	TurnDisplay				
39	380.696		loss-noreward	OutcomeDisplay				
40	381.449		loss-noreward	ImageDisplay1		0.0		
40	383.438		loss-noreward	StartDisplay		0.0		
40	384.19		loss-noreward	ImageDisplay2		0.0		
40	387.45		loss-noreward	ChoiceDisplay	3	0.367	3	3
40	387.834		loss-noreward	ChosenDisplay		0.0		
40	389.055		loss-noreward	TurnDisplay				
40	389.305		loss-noreward	OutcomeDisplay				
41	390.058		control-reward	ImageDisplay1		0.0		
41	392.298		control-reward	StartDisplay		0.0		
41	393.05		control-reward	ImageDisplay2		0.0		
41	396.059		control-reward	ChoiceDisplay	3	1.221	3	3
41	397.296		control-reward	ChosenDisplay		0.0		
41	397.664		control-reward	TurnDisplay				
41	397.914		control-reward	OutcomeDisplay				
42	398.667		control-reward	ImageDisplay1		0.0		
42	400.907		control-reward	StartDisplay		0.0		
42	401.659		control-reward	ImageDisplay2		0.0		
42	404.668		control-reward	ChoiceDisplay	3	0.676	3	3
42	405.37		control-reward	ChosenDisplay		0.0		
42	406.273		control-reward	TurnDisplay				
42	406.523		control-reward	OutcomeDisplay				
43	407.276		win-reward	ImageDisplay1		0.0		
43	409.516		win-reward	StartDisplay		0.0		
43	410.268		win-reward	ImageDisplay2		0.0		
43	413.277		win-reward	ChoiceDisplay	3	0.374	3	3
43	413.678		win-reward	ChosenDisplay		0.0		
43	414.882		win-reward	TurnDisplay				
43	415.132		win-reward	OutcomeDisplay				
44	415.885		win-reward	ImageDisplay1		0.0		
44	418.125		win-reward	StartDisplay		0.0		
44	418.877		win-reward	ImageDisplay2		0.0		
44	421.886		win-reward	ChoiceDisplay	3	0.427	3	3
44	422.337		win-reward	ChosenDisplay		0.0		
44	423.491		win-reward	TurnDisplay				
44	423.742		win-reward	OutcomeDisplay				
45	424.494		control-noreward	ImageDisplay1		0.0		
45	426.483		control-noreward	StartDisplay		0.0		
45	427.235		control-noreward	ImageDisplay2		0.0		
45	430.495		control-noreward	ChoiceDisplay	3	0.623	3	3
45	431.13		control-noreward	ChosenDisplay		0.0		
45	432.1		control-noreward	TurnDisplay				
45	432.351		control-noreward	OutcomeDisplay				
46	433.103		loss-reward	ImageDisplay1		0.0		
46	435.343		loss-reward	StartDisplay		0.0		
46	436.095		loss-reward	ImageDisplay2		0.0		
46	439.104		loss-reward	ChoiceDisplay	3	0.539	3	3
46	439.656		loss-reward	ChosenDisplay		0.0		
46	440.709		loss-reward	TurnDisplay				
46	440.96		loss-reward	OutcomeDisplay				
47	441.712		win-reward	ImageDisplay1		0.0		
47	443.952		win-reward	StartDisplay		0.0		
47	444.704		win-reward	ImageDisplay2		0.0		
47	447.713		win-reward	ChoiceDisplay	3	0.327	3	3
47	448.064		win-reward	ChosenDisplay		0.0		
47	449.318		win-reward	TurnDisplay				
47	449.569		win-reward	OutcomeDisplay				
48	450.321		loss-reward	ImageDisplay1		0.0		
48	452.561		loss-reward	StartDisplay		0.0		
48	453.313		loss-reward	ImageDisplay2		0.0		
48	456.322		loss-reward	ChoiceDisplay	3	0.863	3	3
48	457.208		loss-reward	ChosenDisplay		0.0		
48	457.927		loss-reward	TurnDisplay				
48	458.178		loss-reward	OutcomeDisplay				
49	458.93		loss-noreward	ImageDisplay1		0.0		
49	460.919		loss-noreward	StartDisplay		0.0		
49	461.671		loss-noreward	ImageDisplay2		0.0		
49	464.931		loss-noreward	ChoiceDisplay	3	0.495	3	3
49	465.449		loss-noreward	ChosenDisplay		0.0		
49	466.536		loss-noreward	TurnDisplay				
49	466.787		loss-noreward	OutcomeDisplay				
50	467.539		loss-reward	ImageDisplay1		0.0		
50	469.779		loss-reward	StartDisplay		0.0		
50	470.531		loss-reward	ImageDisplay2		0.0		
50	473.54		loss-reward	ChoiceDisplay		0.0		
50	475.128		loss-reward	ChosenDisplay		0.0		
50	475.145		loss-reward	TurnDisplay				
50	475.379		loss-reward	OutcomeDisplay				
51	476.131		win-reward	ImageDisplay1		0.0		
51	478.388		win-reward	StartDisplay		0.0		
51	479.14		win-reward	ImageDisplay2		0.0		
51	482.133		win-reward	ChoiceDisplay	3	0.331	3	3
51	482.484		win-reward	ChosenDisplay		0.0		
51	483.737		win-reward	TurnDisplay				
51	483.988		win-reward	OutcomeDisplay				
52	484.74		loss-reward	ImageDisplay1		0.0		
52	486.98		loss-reward	StartDisplay		0.0		
52	487.733		loss-reward	ImageDisplay2		0.0		
52	490.742		loss-reward	ChoiceDisplay	3	0.396	3	3
52	491.159		loss-reward	ChosenDisplay		0.0		
52	492.346		loss-reward	TurnDisplay				
52	492.597		loss-reward	OutcomeDisplay				
53	493.349		control-reward	ImageDisplay1		0.0		
53	495.589		control-reward	StartDisplay		0.0		
53	496.342		control-reward	ImageDisplay2		0.0		
53	499.351		control-reward	ChoiceDisplay	3	0.491	3	3
53	499.869		control-reward	ChosenDisplay		0.0		
53	500.955		control-reward	TurnDisplay				
53	501.206		control-reward	OutcomeDisplay				
54	501.958		win-reward	ImageDisplay1		0.0		
54	504.198		win-reward	StartDisplay		0.0		
54	504.951		win-reward	ImageDisplay2		0.0		
54	507.96		win-reward	ChoiceDisplay	3	1.033	3	3
54	509.013		win-reward	ChosenDisplay		0.0		
54	509.564		win-reward	TurnDisplay				
54	509.815		win-reward	OutcomeDisplay				
55	510.567		control-reward	ImageDisplay1		0.0		
55	512.807		control-reward	StartDisplay		0.0		
55	513.56		control-reward	ImageDisplay2		0.0		
55	516.569		control-reward	ChoiceDisplay	3	0.771	3	3
55	517.354		control-reward	ChosenDisplay		0.0		
55	518.173		control-reward	TurnDisplay				
55	518.424		control-reward	OutcomeDisplay				
56	519.176		control-noreward	ImageDisplay1		0.0		
56	521.166		control-noreward	StartDisplay		0.0		
56	521.918		control-noreward	ImageDisplay2		0.0		
56	525.178		control-noreward	ChoiceDisplay	3	0.473	3	3
56	525.662		control-noreward	ChosenDisplay		0.0		
56	526.782		control-noreward	TurnDisplay				
56	527.033		control-noreward	OutcomeDisplay				
57	527.785		loss-noreward	ImageDisplay1		0.0		
57	529.775		loss-noreward	StartDisplay		0.0		
57	530.527		loss-noreward	ImageDisplay2		0.0		
57	533.787		loss-noreward	ChoiceDisplay	3	0.62	3	3
57	534.422		loss-noreward	ChosenDisplay		0.0		
57	535.392		loss-noreward	TurnDisplay				
57	535.642		loss-noreward	OutcomeDisplay				
58	536.395		loss-noreward	ImageDisplay1		0.0		
58	538.384		loss-noreward	StartDisplay		0.0		
58	539.136		loss-noreward	ImageDisplay2		0.0		
58	542.396		loss-noreward	ChoiceDisplay	3	0.504	3	3
58	542.914		loss-noreward	ChosenDisplay		0.0		
58	544.001		loss-noreward	TurnDisplay				
58	544.251		loss-noreward	OutcomeDisplay				
59	545.004		control-noreward	ImageDisplay1		0.0		
59	546.993		control-noreward	StartDisplay		0.0		
59	547.745		control-noreward	ImageDisplay2		0.0		
59	551.005		control-noreward	ChoiceDisplay	3	1.134	3	3
59	552.158		control-noreward	ChosenDisplay		0.0		
59	552.61		control-noreward	TurnDisplay				
59	552.86		control-noreward	OutcomeDisplay				
60	553.613		win-reward	ImageDisplay1		0.0		
60	555.853		win-reward	StartDisplay		0.0		
60	556.605		win-reward	ImageDisplay2		0.0		
60	559.614		win-reward	ChoiceDisplay	3	0.375	3	3
60	560.015		win-reward	ChosenDisplay		0.0		
60	561.219		win-reward	TurnDisplay				
60	561.469		win-reward	OutcomeDisplay				
61	562.222		loss-reward	ImageDisplay1		0.0		
61	564.462		loss-reward	StartDisplay		0.0		
61	565.214		loss-reward	ImageDisplay2		0.0		
61	568.223		loss-reward	ChoiceDisplay	3	0.333	3	3
61	568.574		loss-reward	ChosenDisplay		0.0		
61	569.828		loss-reward	TurnDisplay				
61	570.078		loss-reward	OutcomeDisplay				
62	570.831		control-reward	ImageDisplay1		0.0		
62	573.071		control-reward	StartDisplay		0.0		
62	573.823		control-reward	ImageDisplay2		0.0		
62	576.832		control-reward	ChoiceDisplay		0.0		
62	578.42		control-reward	ChosenDisplay		0.0		
62	578.437		control-reward	TurnDisplay				
62	578.671		control-reward	OutcomeDisplay				
63	579.423		control-noreward	ImageDisplay1		0.0		
63	581.429		control-noreward	StartDisplay		0.0		
63	582.181		control-noreward	ImageDisplay2		0.0		
63	585.424		control-noreward	ChoiceDisplay	3	0.386	3	3
63	585.825		control-noreward	ChosenDisplay		0.0		
63	587.029		control-noreward	TurnDisplay				
63	587.28		control-noreward	OutcomeDisplay				
64	588.032		win-noreward	ImageDisplay1		0.0		
64	590.021		win-noreward	StartDisplay		0.0		
64	590.774		win-noreward	ImageDisplay2		0.0		
64	594.033		win-noreward	ChoiceDisplay		0.0		
64	595.621		win-noreward	ChosenDisplay		0.0		
64	595.638		win-noreward	TurnDisplay				
64	595.872		win-noreward	OutcomeDisplay				
65	596.624		loss-noreward	ImageDisplay1		0.0		
65	598.63		loss-noreward	StartDisplay		0.0		
65	599.383		loss-noreward	ImageDisplay2		0.0		
65	602.626		loss-noreward	ChoiceDisplay		0.0		
65	604.23		loss-noreward	ChosenDisplay		0.0		
65	604.247		loss-noreward	TurnDisplay				
65	604.481		loss-noreward	OutcomeDisplay				
66	605.233		loss-reward	ImageDisplay1		0.0		
66	607.473		loss-reward	StartDisplay		0.0		
66	608.226		loss-reward	ImageDisplay2		0.0		
66	611.235		loss-reward	ChoiceDisplay		0.0		
66	612.823		loss-reward	ChosenDisplay		0.0		
66	612.839		loss-reward	TurnDisplay				
66	613.073		loss-reward	OutcomeDisplay				
67	613.826		win-noreward	ImageDisplay1		0.0		
67	615.832		win-noreward	StartDisplay		0.0		
67	616.584		win-noreward	ImageDisplay2		0.0		
67	619.827		win-noreward	ChoiceDisplay	3	0.292	3	3
67	620.145		win-noreward	ChosenDisplay		0.0		
67	621.432		win-noreward	TurnDisplay				
67	621.682		win-noreward	OutcomeDisplay				
68	622.435		loss-noreward	ImageDisplay1		0.0		
68	624.424		loss-noreward	StartDisplay		0.0		
68	625.176		loss-noreward	ImageDisplay2		0.0		
68	628.436		loss-noreward	ChoiceDisplay	3	0.311	3	3
68	628.77		loss-noreward	ChosenDisplay		0.0		
68	630.041		loss-noreward	TurnDisplay				
68	630.292		loss-noreward	OutcomeDisplay				
69	631.044		win-noreward	ImageDisplay1		0.0		
69	633.033		win-noreward	StartDisplay		0.0		
69	633.785		win-noreward	ImageDisplay2		0.0		
69	637.045		win-noreward	ChoiceDisplay	3	0.357	3	3
69	637.413		win-noreward	ChosenDisplay		0.0		
69	638.65		win-noreward	TurnDisplay				
69	638.901		win-noreward	OutcomeDisplay				
70	639.653		win-reward	ImageDisplay1		0.0		
70	641.893		win-reward	StartDisplay		0.0		
70	642.645		win-reward	ImageDisplay2		0.0		
70	645.654		win-reward	ChoiceDisplay	3	0.345	3	3
70	646.022		win-reward	ChosenDisplay		0.0		
70	647.259		win-reward	TurnDisplay				
70	647.51		win-reward	OutcomeDisplay				
71	648.262		control-noreward	ImageDisplay1		0.0		
71	650.251		control-noreward	StartDisplay		0.0		
71	651.003		control-noreward	ImageDisplay2		0.0		
71	654.263		control-noreward	ChoiceDisplay	3	0.479	3	3
71	654.765		control-noreward	ChosenDisplay		0.0		
71	655.868		control-noreward	TurnDisplay				
71	656.119		control-noreward	OutcomeDisplay				
72	656.871		win-reward	ImageDisplay1		0.0		
72	659.111		win-reward	StartDisplay		0.0		
72	659.863		win-reward	ImageDisplay2		0.0		
72	662.872		win-reward	ChoiceDisplay	3	0.422	3	3
72	663.307		win-reward	ChosenDisplay		0.0		
72	664.477		win-reward	TurnDisplay				
72	664.728		win-reward	OutcomeDisplay				
73	665.48		win-noreward	ImageDisplay1		0.0		
73	667.469		win-noreward	StartDisplay		0.0		
73	668.221		win-noreward	ImageDisplay2		0.0		
73	671.481		win-noreward	ChoiceDisplay	3	0.359	3	3
73	671.866		win-noreward	ChosenDisplay		0.0		
73	673.086		win-noreward	TurnDisplay				
73	673.337		win-noreward	OutcomeDisplay				
74	674.089		control-reward	ImageDisplay1		0.0		
74	676.329		control-reward	StartDisplay		0.0		
74	677.081		control-reward	ImageDisplay2		0.0		
74	680.09		control-reward	ChoiceDisplay	3	0.589	3	3
74	680.692		control-reward	ChosenDisplay		0.0		
74	681.695		control-reward	TurnDisplay				
74	681.946		control-reward	OutcomeDisplay				
75	682.698		win-noreward	ImageDisplay1		0.0		
75	684.687		win-noreward	StartDisplay		0.0		
75	685.44		win-noreward	ImageDisplay2		0.0		
75	688.699		win-noreward	ChoiceDisplay	3	0.395	3	3
75	689.117		win-noreward	ChosenDisplay		0.0		
75	690.304		win-noreward	TurnDisplay				
75	690.555		win-noreward	OutcomeDisplay				
76	691.307		control-reward	ImageDisplay1		0.0		
76	693.547		control-reward	StartDisplay		0.0		
76	694.299		control-reward	ImageDisplay2		0.0		
76	697.308		control-reward	ChoiceDisplay	3	0.43	3	3
76	697.76		control-reward	ChosenDisplay		0.0		
76	698.913		control-reward	TurnDisplay				
76	699.164		control-reward	OutcomeDisplay				
77	699.916		control-reward	ImageDisplay1		0.0		
77	702.156		control-reward	StartDisplay		0.0		
77	702.908		control-reward	ImageDisplay2		0.0		
77	705.917		control-reward	ChoiceDisplay	3	0.39	3	3
77	706.319		control-reward	ChosenDisplay		0.0		
77	707.522		control-reward	TurnDisplay				
77	707.773		control-reward	OutcomeDisplay				
78	708.525		loss-reward	ImageDisplay1		0.0		
78	710.765		loss-reward	StartDisplay		0.0		
78	711.517		loss-reward	ImageDisplay2		0.0		
78	714.526		loss-reward	ChoiceDisplay	3	0.679	3	3
78	715.228		loss-reward	ChosenDisplay		0.0		
78	716.131		loss-reward	TurnDisplay				
78	716.382		loss-reward	OutcomeDisplay				
79	717.134		win-noreward	ImageDisplay1		0.0		
79	719.123		win-noreward	StartDisplay		0.0		
79	719.876		win-noreward	ImageDisplay2		0.0		
79	723.135		win-noreward	ChoiceDisplay	3	0.404	3	3
79	723.553		win-noreward	ChosenDisplay		0.0		
79	724.74		win-noreward	TurnDisplay				
79	724.991		win-noreward	OutcomeDisplay				
80	725.743		control-noreward	ImageDisplay1		0.0		
80	727.732		control-noreward	StartDisplay		0.0		
80	728.485		control-noreward	ImageDisplay2		0.0		
80	731.744		control-noreward	ChoiceDisplay		0.0		
80	733.333		control-noreward	ChosenDisplay		0.0		
80	733.349		control-noreward	TurnDisplay				
80	733.583		control-noreward	OutcomeDisplay				
81	734.336		win-noreward	ImageDisplay1		0.0		
81	736.341		win-noreward	StartDisplay		0.0		
81	737.094		win-noreward	ImageDisplay2		0.0		
81	740.337		win-noreward	ChoiceDisplay	3	0.378	3	3
81	740.738		win-noreward	ChosenDisplay		0.0		
81	741.942		win-noreward	TurnDisplay				
81	742.192		win-noreward	OutcomeDisplay				
82	742.945		win-noreward	ImageDisplay1		0.0		
82	744.934		win-noreward	StartDisplay		0.0		
82	745.686		win-noreward	ImageDisplay2		0.0		
82	748.946		win-noreward	ChoiceDisplay	3	0.56	3	3
82	749.531		win-noreward	ChosenDisplay		0.0		
82	750.551		win-noreward	TurnDisplay				
82	750.801		win-noreward	OutcomeDisplay				
83	751.554		control-reward	ImageDisplay1		0.0		
83	753.794		control-reward	StartDisplay		0.0		
83	754.546		control-reward	ImageDisplay2		0.0		
83	757.555		control-reward	ChoiceDisplay	3	0.55	3	3
83	758.123		control-reward	ChosenDisplay		0.0		
83	759.16		control-reward	TurnDisplay				
83	759.41		control-reward	OutcomeDisplay				
84	760.163		win-reward	ImageDisplay1		0.0		
84	762.403		win-reward	StartDisplay		0.0		
84	763.155		win-reward	ImageDisplay2		0.0		
84	766.164		win-reward	ChoiceDisplay	3	0.508	3	3
84	766.699		win-reward	ChosenDisplay		0.0		
84	767.769		win-reward	TurnDisplay				
84	768.019		win-reward	OutcomeDisplay				
85	768.772		win-noreward	ImageDisplay1		0.0		
85	770.761		win-noreward	StartDisplay		0.0		
85	771.513		win-noreward	ImageDisplay2		0.0		
85	774.773		win-noreward	ChoiceDisplay	3	0.437	3	3
85	775.224		win-noreward	ChosenDisplay		0.0		
85	776.378		win-noreward	TurnDisplay				
85	776.628		win-noreward	OutcomeDisplay				
86	777.381		loss-reward	ImageDisplay1		0.0		
86	779.621		loss-reward	StartDisplay		0.0		
86	780.373		loss-reward	ImageDisplay2		0.0		
86	783.382		loss-reward	ChoiceDisplay	3	1.183	3	3
86	784.586		loss-reward	ChosenDisplay		0.0		
86	784.987		loss-reward	TurnDisplay				
86	785.237		loss-reward	OutcomeDisplay				
87	785.99		win-noreward	ImageDisplay1		0.0		
87	787.979		win-noreward	StartDisplay		0.0		
87	788.731		win-noreward	ImageDisplay2		0.0		
87	791.991		win-noreward	ChoiceDisplay	3	0.248	3	3
87	792.258		win-noreward	ChosenDisplay		0.0		
87	793.596		win-noreward	TurnDisplay				
87	793.847		win-noreward	OutcomeDisplay				
88	794.599		loss-noreward	ImageDisplay1		0.0		
88	796.588		loss-noreward	StartDisplay		0.0		
88	797.34		loss-noreward	ImageDisplay2		0.0		
88	800.6		loss-noreward	ChoiceDisplay	3	1.305	3	3
88	801.921		loss-noreward	ChosenDisplay		0.0		
88	802.205		loss-noreward	TurnDisplay				
88	802.456		loss-noreward	OutcomeDisplay				
89	803.208		win-reward	ImageDisplay1		0.0		
89	805.448		win-reward	StartDisplay		0.0		
89	806.2		win-reward	ImageDisplay2		0.0		
89	809.209		win-reward	ChoiceDisplay	3	0.36	3	3
89	809.594		win-reward	ChosenDisplay		0.0		
89	810.814		win-reward	TurnDisplay				
89	811.065		win-reward	OutcomeDisplay				
90	811.817		win-noreward	ImageDisplay1		0.0		
90	813.806		win-noreward	StartDisplay		0.0		
90	814.558		win-noreward	ImageDisplay2		0.0		
90	817.818		win-noreward	ChoiceDisplay	3	0.53	3	3
90	818.37		win-noreward	ChosenDisplay		0.0		
90	819.423		win-noreward	TurnDisplay				
90	819.674		win-noreward	OutcomeDisplay				
91	820.426		loss-noreward	ImageDisplay1		0.0		
91	822.415		loss-noreward	StartDisplay		0.0		
91	823.167		loss-noreward	ImageDisplay2		0.0		
91	826.427		loss-noreward	ChoiceDisplay	3	0.437	3	3
91	826.878		loss-noreward	ChosenDisplay		0.0		
91	828.032		loss-noreward	TurnDisplay				
91	828.283		loss-noreward	OutcomeDisplay				
92	829.035		loss-reward	ImageDisplay1		0.0		
92	831.275		loss-reward	StartDisplay		0.0		
92	832.027		loss-reward	ImageDisplay2		0.0		
92	835.036		loss-reward	ChoiceDisplay	3	0.81	3	3
92	835.872		loss-reward	ChosenDisplay		0.0		
92	836.641		loss-reward	TurnDisplay				
92	836.892		loss-reward	OutcomeDisplay				
93	837.644		loss-noreward	ImageDisplay1		0.0		
93	839.633		loss-noreward	StartDisplay		0.0		
93	840.385		loss-noreward	ImageDisplay2		0.0		
93	843.645		loss-noreward	ChoiceDisplay		0.0		
93	845.233		loss-noreward	ChosenDisplay		0.0		
93	845.25		loss-noreward	TurnDisplay				
93	845.484		loss-noreward	OutcomeDisplay				
94	846.236		control-reward	ImageDisplay1		0.0		
94	848.493		control-reward	StartDisplay		0.0		
94	849.245		control-reward	ImageDisplay2		0.0		
94	852.238		control-reward	ChoiceDisplay	3	0.628	3	3
94	852.889		control-reward	ChosenDisplay		0.0		
94	853.842		control-reward	TurnDisplay				
94	854.093		control-reward	OutcomeDisplay				
95	854.845		loss-reward	ImageDisplay1		0.0		
95	857.085		loss-reward	StartDisplay		0.0		
95	857.838		loss-reward	ImageDisplay2		0.0		
95	860.847		loss-reward	ChoiceDisplay		0.0		
95	862.435		loss-reward	ChosenDisplay		0.0		
95	862.451		loss-reward	TurnDisplay				
95	862.685		loss-reward	OutcomeDisplay				
