onset	duration	trial_type	response_time	stim_file	accuracy
307.536	1.0	go	0.825	Go_O	1.0
310.177	1.0	go	0.0	Go_X	0.0
312.701	1.0	go	0.575	Go_O	1.0
315.226	1.0	go	0.379	Go_X	1.0
317.75	1.0	go	0.568	Go_X	1.0
320.274	1.0	go	0.385	Go_O	1.0
322.798	0.25	stop	0.485	Go_O	0.0
325.356	1.0	go	0.424	Go_X	1.0
327.88	0.2	stop	0.0	Go_X	1.0
330.404	1.0	go	0.389	Go_O	1.0
332.928	1.0	go	0.558	Go_X	1.0
335.453	1.0	go	0.561	Go_O	1.0
337.977	0.25	stop	0.0	Go_O	1.0
340.501	1.0	go	0.54	Go_O	1.0
343.025	1.0	go	0.41	Go_X	1.0
345.549	0.3	stop	0.405	Go_X	0.0
348.074	0.25	stop	0.0	Go_O	1.0
350.598	1.0	go	0.503	Go_O	1.0
353.122	1.0	go	0.721	Go_X	1.0
355.646	0.3	stop	0.0	Go_X	1.0
358.17	1.0	go	0.599	Go_X	1.0
360.695	1.0	go	0.59	Go_O	1.0
363.219	0.35	stop	0.0	Go_O	1.0
365.743	1.0	go	0.461	Go_X	1.0
368.267	1.0	go	0.634	Go_O	1.0
370.791	0.4	stop	0.353	Go_X	0.0
373.316	1.0	go	0.675	Go_X	1.0
375.84	1.0	go	0.58	Go_O	1.0
378.364	0.35	stop	0.0	Go_O	1.0
380.905	1.0	go	0.583	Go_O	1.0
383.429	1.0	go	0.652	Go_X	1.0
385.953	1.0	go	0.651	Go_X	1.0
388.478	1.0	go	0.761	Go_O	1.0
391.002	1.0	go	0.483	Go_X	1.0
393.526	0.4	stop	0.0	Go_X	1.0
396.05	1.0	go	0.359	Go_O	1.0
398.574	1.0	go	0.628	Go_X	1.0
401.099	1.0	go	0.528	Go_O	1.0
403.623	1.0	go	0.5	Go_X	1.0
406.147	1.0	go	0.707	Go_O	1.0
408.671	0.45	stop	0.505	Go_O	0.0
411.195	1.0	go	0.619	Go_O	1.0
413.72	1.0	go	0.472	Go_X	1.0
416.244	1.0	go	0.593	Go_X	1.0
418.768	1.0	go	0.588	Go_O	1.0
421.292	1.0	go	0.497	Go_X	1.0
423.816	1.0	go	0.678	Go_O	1.0
426.341	0.4	stop	0.0	Go_X	1.0
428.865	1.0	go	0.495	Go_X	1.0
431.389	1.0	go	0.368	Go_O	1.0
433.913	0.45	stop	0.0	Go_O	1.0
436.437	1.0	go	0.68	Go_O	1.0
438.962	0.5	stop	0.512	Go_X	0.0
441.486	0.45	stop	0.0	Go_O	1.0
444.01	1.0	go	0.506	Go_X	1.0
446.534	1.0	go	0.654	Go_X	1.0
449.058	1.0	go	0.627	Go_O	1.0
451.583	1.0	go	0.733	Go_X	1.0
454.107	0.5	stop	0.647	Go_X	0.0
456.631	1.0	go	0.334	Go_O	1.0
459.155	0.45	stop	0.575	Go_O	0.0
461.679	1.0	go	0.539	Go_O	1.0
464.204	1.0	go	0.4	Go_X	1.0
466.728	1.0	go	0.513	Go_O	1.0
469.252	1.0	go	0.439	Go_X	1.0
471.776	1.0	go	0.666	Go_O	1.0
474.3	1.0	go	0.62	Go_X	1.0
476.825	1.0	go	0.48	Go_O	1.0
479.349	1.0	go	0.372	Go_X	1.0
481.873	1.0	go	0.597	Go_O	1.0
484.397	0.4	stop	0.0	Go_X	1.0
486.921	1.0	go	0.582	Go_X	1.0
489.446	1.0	go	0.624	Go_X	1.0
491.97	1.0	go	0.979	Go_O	1.0
494.494	0.45	stop	0.387	Go_O	0.0
497.018	1.0	go	0.51	Go_O	1.0
499.542	1.0	go	0.559	Go_X	1.0
502.067	1.0	go	0.655	Go_O	1.0
504.591	1.0	go	0.606	Go_X	1.0
507.115	1.0	go	0.516	Go_X	1.0
509.639	1.0	go	0.412	Go_O	1.0
512.164	0.4	stop	0.0	Go_X	1.0
514.688	1.0	go	0.403	Go_O	1.0
517.212	1.0	go	0.35	Go_X	1.0
519.736	0.45	stop	0.428	Go_O	0.0
522.26	1.0	go	0.87	Go_O	1.0
524.785	1.0	go	0.248	Go_X	1.0
527.309	0.4	stop	0.485	Go_X	0.0
529.833	1.0	go	0.586	Go_X	1.0
532.357	0.35	stop	0.0	Go_O	1.0
534.881	1.0	go	0.661	Go_O	1.0
537.406	1.0	go	0.709	Go_X	1.0
539.93	1.0	go	0.57	Go_O	1.0
542.454	1.0	go	0.406	Go_X	1.0
544.978	1.0	go	0.577	Go_O	1.0
547.502	0.4	stop	0.483	Go_X	0.0
550.027	0.35	stop	0.0	Go_O	1.0
552.551	1.0	go	0.616	Go_X	1.0
555.075	1.0	go	0.577	Go_O	1.0
557.599	0.4	stop	0.0	Go_X	1.0
560.123	1.0	go	0.428	Go_O	1.0
562.648	1.0	go	0.633	Go_X	1.0
565.172	1.0	go	0.51	Go_X	1.0
567.696	1.0	go	0.711	Go_O	1.0
570.22	1.0	go	0.633	Go_X	1.0
572.744	1.0	go	0.74	Go_O	1.0
575.269	0.45	stop	0.593	Go_O	0.0
577.793	1.0	go	0.485	Go_X	1.0
580.317	1.0	go	0.561	Go_O	1.0
582.841	1.0	go	0.375	Go_O	1.0
585.365	1.0	go	0.738	Go_X	1.0
587.89	1.0	go	0.47	Go_X	1.0
590.414	0.4	stop	0.465	Go_X	0.0
592.938	1.0	go	0.432	Go_O	1.0
595.462	1.0	go	0.684	Go_X	1.0
597.986	1.0	go	0.738	Go_O	1.0
600.511	1.0	go	0.496	Go_O	1.0
603.035	0.35	stop	0.0	Go_O	1.0
605.559	1.0	go	0.549	Go_X	1.0
608.083	1.0	go	0.497	Go_X	1.0
610.607	0.4	stop	0.0	Go_X	1.0
613.132	1.0	go	0.461	Go_O	1.0
615.656	0.45	stop	0.474	Go_O	0.0
618.18	1.0	go	0.596	Go_O	1.0
620.704	1.0	go	0.803	Go_X	1.0
623.228	1.0	go	0.706	Go_O	1.0
625.753	1.0	go	0.557	Go_X	1.0
628.277	1.0	go	0.433	Go_X	1.0
630.801	1.0	go	0.799	Go_O	1.0
633.325	1.0	go	0.409	Go_O	1.0
635.849	0.4	stop	0.0	Go_X	1.0
638.374	1.0	go	0.476	Go_X	1.0
640.898	1.0	go	0.355	Go_O	1.0
643.422	1.0	go	0.547	Go_X	1.0
645.946	0.45	stop	0.51	Go_O	0.0
648.47	1.0	go	0.493	Go_X	1.0
650.995	1.0	go	0.376	Go_O	1.0
653.519	1.0	go	0.427	Go_O	1.0
656.043	1.0	go	0.342	Go_X	1.0
658.567	0.4	stop	0.504	Go_X	0.0
661.091	1.0	go	0.645	Go_O	1.0
663.616	1.0	go	0.711	Go_X	1.0
666.14	0.35	stop	0.0	Go_O	1.0
668.664	1.0	go	0.458	Go_X	1.0
671.188	1.0	go	0.484	Go_O	1.0
673.713	0.4	stop	0.0	Go_X	1.0
676.237	1.0	go	0.341	Go_O	1.0
678.761	1.0	go	0.475	Go_X	1.0
681.285	0.45	stop	0.295	Go_O	0.0
683.809	1.0	go	0.607	Go_O	1.0
686.334	1.0	go	0.449	Go_X	1.0
688.858	1.0	go	0.399	Go_O	1.0
691.382	1.0	go	0.523	Go_X	1.0
693.906	1.0	go	0.656	Go_X	1.0
696.43	1.0	go	0.81	Go_O	1.0
698.955	0.4	stop	0.0	Go_X	1.0
701.479	1.0	go	0.847	Go_X	1.0
704.003	0.45	stop	0.0	Go_O	1.0
706.527	1.0	go	0.534	Go_O	1.0
709.051	1.0	go	0.778	Go_X	1.0
711.576	1.0	go	0.66	Go_O	1.0
714.1	1.0	go	0.635	Go_O	1.0
716.624	1.0	go	0.677	Go_X	1.0
719.148	0.5	stop	0.0	Go_X	1.0
721.672	1.0	go	0.901	Go_O	1.0
724.197	1.0	go	0.626	Go_X	1.0
726.721	1.0	go	0.469	Go_X	1.0
729.245	0.55	stop	0.558	Go_O	0.0
731.769	0.5	stop	0.634	Go_X	0.0
734.293	0.45	stop	0.0	Go_O	1.0
736.818	1.0	go	0.789	Go_O	1.0
739.342	0.5	stop	0.617	Go_X	0.0
741.866	1.0	go	0.0	Go_X	0.0
744.39	1.0	go	0.351	Go_O	1.0
746.914	1.0	go	0.535	Go_O	1.0
749.439	1.0	go	0.642	Go_X	1.0
751.963	1.0	go	0.731	Go_X	1.0
754.487	1.0	go	0.71	Go_O	1.0
757.011	1.0	go	0.437	Go_O	1.0
759.535	1.0	go	0.584	Go_X	1.0
762.06	0.45	stop	0.571	Go_O	0.0
764.584	1.0	go	0.685	Go_O	1.0
767.108	1.0	go	0.608	Go_X	1.0
769.632	0.4	stop	0.421	Go_X	0.0
772.156	1.0	go	0.734	Go_X	1.0
774.681	1.0	go	0.741	Go_O	1.0
777.205	1.0	go	0.661	Go_O	1.0
779.729	1.0	go	0.553	Go_X	1.0
782.253	1.0	go	0.522	Go_O	1.0
784.777	0.35	stop	0.0	Go_O	1.0
787.302	1.0	go	0.585	Go_X	1.0
789.826	1.0	go	0.881	Go_X	1.0
792.35	1.0	go	0.419	Go_O	1.0
794.874	0.4	stop	0.525	Go_X	0.0
797.398	1.0	go	0.578	Go_X	1.0
799.923	0.35	stop	0.0	Go_O	1.0
802.447	1.0	go	0.504	Go_O	1.0
804.971	1.0	go	0.675	Go_O	1.0
807.495	1.0	go	0.682	Go_X	1.0
810.019	1.0	go	0.937	Go_O	1.0
812.544	1.0	go	0.47	Go_X	1.0
815.068	1.0	go	0.503	Go_X	1.0
817.592	1.0	go	0.526	Go_O	1.0
820.116	0.4	stop	0.425	Go_X	0.0
822.64	1.0	go	0.623	Go_O	1.0
825.165	1.0	go	0.742	Go_X	1.0
827.689	1.0	go	0.439	Go_O	1.0
830.213	1.0	go	0.715	Go_X	1.0
832.737	0.35	stop	0.0	Go_O	1.0
835.261	1.0	go	0.559	Go_O	1.0
837.786	0.4	stop	0.0	Go_X	1.0
840.31	1.0	go	0.637	Go_X	1.0
842.834	1.0	go	0.754	Go_X	1.0
845.358	0.45	stop	0.0	Go_O	1.0
847.883	1.0	go	0.699	Go_O	1.0
850.407	1.0	go	0.485	Go_X	1.0
852.931	1.0	go	0.736	Go_O	1.0
855.455	1.0	go	0.533	Go_O	1.0
857.979	1.0	go	0.453	Go_X	1.0
860.504	1.0	go	0.522	Go_X	1.0
863.028	1.0	go	0.386	Go_O	1.0
865.552	1.0	go	0.554	Go_O	1.0
868.076	1.0	go	0.581	Go_X	1.0
870.6	1.0	go	0.665	Go_X	1.0
873.125	0.5	stop	0.0	Go_X	1.0
875.649	1.0	go	0.595	Go_O	1.0
878.173	1.0	go	0.563	Go_X	1.0
880.697	0.55	stop	0.343	Go_O	0.0
883.221	1.0	go	0.966	Go_O	1.0
885.746	0.5	stop	0.488	Go_X	0.0
888.27	1.0	go	0.752	Go_X	1.0
890.794	1.0	go	0.565	Go_O	1.0
893.318	0.45	stop	0.558	Go_O	0.0
895.842	1.0	go	0.516	Go_O	1.0
898.367	0.4	stop	0.537	Go_X	0.0
900.891	1.0	go	0.551	Go_X	1.0
903.415	1.0	go	0.662	Go_X	1.0
905.939	1.0	go	0.403	Go_O	1.0
908.463	0.35	stop	0.39	Go_O	0.0
910.988	1.0	go	0.409	Go_X	0.0
913.512	1.0	go	0.648	Go_O	1.0
916.036	1.0	go	0.6	Go_X	1.0
918.56	1.0	go	0.779	Go_O	1.0
921.084	0.3	stop	0.0	Go_X	1.0
923.609	1.0	go	0.714	Go_X	1.0
926.133	1.0	go	0.366	Go_O	1.0
928.657	0.35	stop	0.362	Go_O	0.0
931.181	1.0	go	0.99	Go_X	1.0
933.705	1.0	go	0.647	Go_O	1.0
936.23	1.0	go	0.405	Go_X	1.0
938.754	1.0	go	0.764	Go_O	1.0
941.278	0.3	stop	0.432	Go_X	0.0
943.802	1.0	go	0.534	Go_X	1.0
946.326	0.25	stop	0.0	Go_O	1.0
948.851	1.0	go	0.784	Go_O	1.0
951.375	1.0	go	0.727	Go_X	1.0
953.899	0.3	stop	0.0	Go_X	1.0
956.423	1.0	go	0.877	Go_O	1.0
958.947	1.0	go	0.751	Go_X	1.0
961.472	1.0	go	0.534	Go_O	1.0
963.996	1.0	go	0.445	Go_X	1.0
966.52	0.35	stop	0.335	Go_O	0.0
969.044	1.0	go	0.442	Go_O	1.0
971.568	0.3	stop	0.394	Go_X	0.0
974.093	1.0	go	0.622	Go_O	1.0
976.617	1.0	go	0.559	Go_X	1.0
979.141	1.0	go	0.725	Go_X	1.0
981.665	1.0	go	0.541	Go_O	1.0
984.189	1.0	go	0.628	Go_O	1.0
986.714	1.0	go	0.729	Go_X	1.0
989.238	0.25	stop	0.0	Go_O	1.0
991.762	1.0	go	0.757	Go_O	1.0
994.286	1.0	go	0.672	Go_X	1.0
996.81	0.3	stop	0.0	Go_X	1.0
999.335	1.0	go	0.463	Go_X	1.0
1001.859	1.0	go	0.305	Go_O	1.0
1004.383	0.35	stop	0.0	Go_O	1.0
1006.907	1.0	go	0.602	Go_O	1.0
1009.432	1.0	go	0.902	Go_X	1.0
1011.956	1.0	go	0.351	Go_O	1.0
1014.48	1.0	go	0.578	Go_X	1.0
1017.004	0.4	stop	0.529	Go_X	0.0
1019.528	1.0	go	0.698	Go_O	1.0
1022.053	0.35	stop	0.0	Go_O	1.0
1024.577	1.0	go	0.569	Go_X	1.0
1027.101	1.0	go	0.801	Go_X	1.0
1029.625	1.0	go	0.53	Go_O	1.0
1032.149	1.0	go	0.787	Go_O	1.0
1034.674	1.0	go	0.581	Go_X	1.0
1037.198	0.4	stop	0.0	Go_X	1.0
1039.722	1.0	go	0.827	Go_X	1.0
1042.246	1.0	go	0.46	Go_O	1.0
1044.77	0.45	stop	0.589	Go_O	0.0
1047.295	0.4	stop	0.46	Go_X	0.0
1049.819	1.0	go	0.587	Go_O	1.0
1052.343	1.0	go	0.344	Go_X	1.0
1054.867	1.0	go	0.564	Go_X	1.0
1057.391	1.0	go	0.329	Go_O	1.0
1059.916	0.35	stop	0.413	Go_O	0.0
1062.44	1.0	go	0.411	Go_X	1.0
