onset	duration	trial_type	response_time	stim_file	accuracy
73.234	1.0	go	0.925	Go_X	1.0
75.759	1.0	go	0.449	Go_O	1.0
78.299	1.0	go	0.553	Go_X	1.0
80.84	1.0	go	0.619	Go_O	1.0
83.365	1.0	go	0.652	Go_X	1.0
85.889	1.0	go	0.606	Go_O	1.0
88.43	0.25	stopsuccess	0.0	Go_O	1.0
90.971	1.0	go	0.473	Go_X	1.0
93.495	0.3	stopsuccess	0.0	Go_X	1.0
96.036	1.0	go	0.635	Go_O	1.0
98.577	1.0	go	0.579	Go_X	1.0
101.101	1.0	go	0.688	Go_O	1.0
103.625	0.35	stopsuccess	0.0	Go_O	1.0
106.166	1.0	go	0.352	Go_X	1.0
108.707	1.0	go	0.683	Go_O	1.0
111.231	0.4	stopsuccess	0.0	Go_X	1.0
113.772	0.45	stopsuccess	0.0	Go_O	1.0
116.313	1.0	go	0.624	Go_O	1.0
118.854	1.0	go	0.537	Go_X	1.0
121.395	0.5	stopfail	0.79	Go_X	0.0
123.936	1.0	go	0.683	Go_O	1.0
126.46	1.0	go	0.773	Go_X	1.0
128.984	0.45	stopsuccess	0.0	Go_O	1.0
131.508	1.0	go	0.671	Go_O	1.0
134.032	1.0	go	0.631	Go_X	1.0
136.557	0.5	stopsuccess	0.0	Go_X	1.0
139.098	1.0	go	0.703	Go_O	1.0
141.639	1.0	go	0.661	Go_X	1.0
144.163	0.55	stopsuccess	0.0	Go_O	1.0
146.704	1.0	go	0.657	Go_O	1.0
149.228	1.0	go	0.725	Go_X	1.0
151.752	1.0	go	0.63	Go_O	1.0
154.293	1.0	go	0.685	Go_X	1.0
156.817	1.0	go	0.835	Go_X	1.0
159.358	0.6	stopfail	0.72	Go_X	0.0
161.882	1.0	go	0.696	Go_O	1.0
164.406	1.0	go	0.673	Go_O	1.0
166.931	1.0	go	0.907	Go_X	1.0
169.455	1.0	go	0.783	Go_X	1.0
171.979	1.0	go	0.806	Go_O	1.0
174.503	0.55	stopsuccess	0.0	Go_O	1.0
177.044	1.0	go	0.622	Go_X	1.0
179.568	1.0	go	0.0	Go_O	0.0
182.093	1.0	go	0.737	Go_X	1.0
184.617	1.0	go	0.649	Go_O	1.0
187.141	1.0	go	0.798	Go_X	1.0
189.665	1.0	go	0.695	Go_O	1.0
192.189	0.6	stopfail	0.739	Go_X	0.0
194.714	1.0	go	0.732	Go_X	1.0
197.238	1.0	go	0.727	Go_O	1.0
199.762	0.55	stopsuccess	0.0	Go_O	1.0
202.286	1.0	go	0.629	Go_X	1.0
204.811	0.6	stopsuccess	0.0	Go_X	1.0
207.335	0.65	stopfail	0.749	Go_O	0.0
209.876	1.0	go	0.702	Go_O	1.0
212.4	1.0	go	0.64	Go_O	1.0
214.924	1.0	go	0.766	Go_X	1.0
217.448	1.0	go	0.925	Go_O	1.0
219.972	0.6	stopsuccess	0.0	Go_X	1.0
222.497	1.0	go	0.673	Go_X	1.0
225.038	0.65	stopfail	0.753	Go_O	0.0
227.578	1.0	go	0.867	Go_X	1.0
230.103	1.0	go	0.908	Go_O	1.0
232.627	1.0	go	0.848	Go_X	1.0
235.151	1.0	go	0.871	Go_O	1.0
237.675	1.0	go	0.915	Go_O	1.0
240.199	1.0	go	0.844	Go_X	1.0
242.724	1.0	go	0.72	Go_O	1.0
245.265	1.0	go	0.815	Go_X	1.0
247.789	1.0	go	0.548	Go_X	1.0
250.313	0.6	stopsuccess	0.0	Go_X	1.0
252.854	1.0	go	0.674	Go_O	1.0
255.378	1.0	go	0.777	Go_X	1.0
257.919	1.0	go	0.0	Go_O	0.0
260.443	0.65	stopsuccess	0.0	Go_O	1.0
262.967	1.0	go	0.488	Go_O	1.0
265.492	1.0	go	0.744	Go_X	1.0
268.033	1.0	go	0.641	Go_O	1.0
270.557	1.0	go	0.728	Go_X	1.0
273.098	1.0	go	0.794	Go_O	1.0
275.639	1.0	go	0.847	Go_X	1.0
278.163	0.7	stopfail	0.857	Go_X	0.0
280.704	1.0	go	0.679	Go_O	1.0
283.245	1.0	go	0.72	Go_X	1.0
285.769	0.65	stopsuccess	0.0	Go_O	1.0
288.31	1.0	go	0.613	Go_O	1.0
290.834	1.0	go	0.697	Go_X	1.0
293.358	0.7	stopfail	0.768	Go_X	0.0
295.882	1.0	go	0.0	Go_O	0.0
298.423	0.65	stopfail	0.796	Go_O	0.0
300.964	1.0	go	0.689	Go_X	1.0
303.488	1.0	go	0.717	Go_O	1.0
306.013	1.0	go	0.739	Go_X	1.0
308.537	1.0	go	0.955	Go_O	1.0
311.078	1.0	go	0.893	Go_X	1.0
313.602	0.6	stopsuccess	0.0	Go_X	1.0
316.143	0.65	stopfail	0.8	Go_O	0.0
318.684	1.0	go	0.72	Go_X	1.0
321.225	1.0	go	0.622	Go_O	1.0
323.766	0.6	stopfail	0.823	Go_X	0.0
326.307	1.0	go	0.0	Go_X	0.0
328.848	1.0	go	0.787	Go_O	1.0
331.372	1.0	go	0.728	Go_O	1.0
333.913	1.0	go	0.701	Go_X	1.0
336.437	1.0	go	0.0	Go_X	0.0
338.978	1.0	go	0.943	Go_O	1.0
341.519	0.55	stopfail	0.73	Go_O	0.0
344.06	1.0	go	0.848	Go_X	1.0
346.6	1.0	go	0.0	Go_O	0.0
349.125	1.0	go	0.903	Go_O	1.0
351.649	1.0	go	0.764	Go_X	1.0
354.173	1.0	go	0.852	Go_O	1.0
356.697	0.5	stopsuccess	0.0	Go_X	1.0
359.221	1.0	go	0.738	Go_X	1.0
361.762	1.0	go	0.0	Go_X	0.0
364.287	1.0	go	0.0	Go_O	0.0
366.811	1.0	go	0.86	Go_O	1.0
369.335	0.55	stopsuccess	0.0	Go_O	1.0
371.876	1.0	go	0.0	Go_X	0.0
374.4	1.0	go	0.645	Go_O	1.0
376.924	0.6	stopfail	0.655	Go_X	0.0
379.449	1.0	go	0.733	Go_X	1.0
381.973	0.55	stopfail	0.642	Go_O	0.0
384.514	1.0	go	0.731	Go_X	1.0
387.038	1.0	go	0.882	Go_O	1.0
389.562	1.0	go	0.889	Go_O	1.0
392.086	1.0	go	0.904	Go_X	1.0
394.611	1.0	go	0.954	Go_X	1.0
397.135	1.0	go	0.989	Go_O	1.0
399.659	1.0	go	0.919	Go_O	1.0
402.2	0.5	stopsuccess	0.0	Go_X	1.0
404.741	1.0	go	0.726	Go_X	1.0
407.265	1.0	go	0.958	Go_X	1.0
409.789	1.0	go	0.706	Go_O	1.0
412.33	0.55	stopsuccess	0.0	Go_O	1.0
414.854	1.0	go	0.958	Go_X	1.0
417.395	1.0	go	0.686	Go_O	1.0
419.919	1.0	go	0.775	Go_O	1.0
422.444	1.0	go	0.487	Go_X	1.0
424.968	0.6	stopsuccess	0.0	Go_X	1.0
427.509	1.0	go	0.0	Go_O	0.0
430.033	1.0	go	0.929	Go_X	1.0
432.557	0.65	stopsuccess	0.0	Go_O	1.0
435.081	1.0	go	0.879	Go_O	1.0
437.606	1.0	go	0.994	Go_X	1.0
440.13	0.7	stopsuccess	0.0	Go_X	1.0
442.671	1.0	go	0.781	Go_X	1.0
445.195	1.0	go	0.818	Go_O	1.0
447.719	0.75	stopfail	0.937	Go_O	0.0
450.26	1.0	go	0.746	Go_X	1.0
452.784	1.0	go	0.821	Go_O	1.0
455.308	1.0	go	0.0	Go_X	0.0
457.833	1.0	go	0.0	Go_O	0.0
460.373	1.0	go	0.93	Go_X	1.0
462.898	1.0	go	0.998	Go_O	1.0
465.422	0.7	stopsuccess	0.0	Go_X	1.0
467.963	1.0	go	0.839	Go_O	1.0
470.504	0.75	stopfail	0.851	Go_O	0.0
473.045	1.0	go	0.63	Go_X	1.0
475.57	1.0	go	0.779	Go_X	1.0
478.093	1.0	go	0.952	Go_O	1.0
480.617	1.0	go	0.809	Go_O	1.0
483.141	1.0	go	0.648	Go_X	1.0
485.666	0.7	stopsuccess	0.0	Go_X	1.0
488.207	1.0	go	0.766	Go_X	1.0
490.731	1.0	go	0.866	Go_O	1.0
493.272	1.0	go	0.516	Go_O	1.0
495.813	0.75	stopsuccess	0.0	Go_O	1.0
498.354	0.8	stopfail	0.673	Go_X	0.0
500.895	0.75	stopfail	0.759	Go_O	0.0
503.419	1.0	go	0.0	Go_X	0.0
505.943	0.7	stopfail	0.908	Go_X	0.0
508.484	1.0	go	0.867	Go_O	1.0
511.008	1.0	go	0.877	Go_X	1.0
513.532	1.0	go	0.966	Go_X	1.0
516.073	1.0	go	0.0	Go_O	0.0
518.614	1.0	go	0.971	Go_O	1.0
521.138	1.0	go	0.0	Go_X	0.0
523.662	1.0	go	0.92	Go_X	0.0
526.187	1.0	go	0.0	Go_O	0.0
528.711	0.65	stopfail	0.85	Go_O	0.0
531.235	1.0	go	0.695	Go_O	1.0
533.759	1.0	go	0.716	Go_X	1.0
536.284	0.6	stopfail	0.684	Go_X	0.0
538.808	1.0	go	0.879	Go_X	1.0
541.332	1.0	go	0.98	Go_O	1.0
543.856	1.0	go	0.0	Go_X	0.0
546.38	1.0	go	0.628	Go_O	1.0
548.904	1.0	go	0.0	Go_O	0.0
551.429	0.55	stopsuccess	0.0	Go_O	1.0
553.97	1.0	go	0.76	Go_X	1.0
556.494	1.0	go	0.764	Go_O	1.0
559.018	1.0	go	0.805	Go_X	1.0
561.542	0.6	stopsuccess	0.0	Go_X	1.0
564.083	1.0	go	0.823	Go_O	1.0
566.607	0.65	stopsuccess	0.0	Go_O	1.0
569.148	1.0	go	0.892	Go_X	1.0
571.672	1.0	go	0.799	Go_X	1.0
574.213	1.0	go	0.928	Go_O	1.0
576.738	1.0	go	0.0	Go_X	0.0
579.279	1.0	go	0.0	Go_O	0.0
581.803	1.0	go	0.946	Go_O	1.0
584.327	1.0	go	0.819	Go_X	1.0
586.851	0.7	stopsuccess	0.0	Go_X	1.0
589.375	1.0	go	0.778	Go_X	1.0
591.9	1.0	go	0.744	Go_O	1.0
594.44	1.0	go	0.87	Go_O	1.0
596.965	1.0	go	0.0	Go_X	0.0
599.506	0.75	stopsuccess	0.0	Go_O	1.0
602.046	1.0	go	0.898	Go_O	1.0
604.571	0.8	stopfail	0.742	Go_X	0.0
607.112	1.0	go	0.0	Go_X	0.0
609.636	1.0	go	0.99	Go_X	1.0
612.16	0.75	stopfail	0.808	Go_O	0.0
614.701	1.0	go	0.804	Go_O	1.0
617.225	1.0	go	0.852	Go_O	1.0
619.749	1.0	go	0.767	Go_X	1.0
622.274	1.0	go	0.972	Go_O	1.0
624.814	1.0	go	0.62	Go_X	1.0
627.339	1.0	go	0.847	Go_O	1.0
629.863	1.0	go	0.898	Go_X	1.0
632.404	1.0	go	0.843	Go_X	1.0
634.928	1.0	go	0.0	Go_O	0.0
637.469	1.0	go	0.976	Go_O	1.0
639.993	0.7	stopfail	0.787	Go_X	0.0
642.517	1.0	go	0.792	Go_X	1.0
645.042	1.0	go	0.979	Go_O	1.0
647.582	0.65	stopfail	0.794	Go_O	0.0
650.107	1.0	go	0.664	Go_X	1.0
652.631	0.6	stopsuccess	0.0	Go_X	1.0
655.172	1.0	go	0.802	Go_X	1.0
657.696	1.0	go	0.53	Go_O	1.0
660.237	0.65	stopsuccess	0.0	Go_O	1.0
662.778	1.0	go	0.569	Go_O	1.0
665.302	0.7	stopfail	0.565	Go_X	0.0
667.843	1.0	go	0.803	Go_X	1.0
670.367	1.0	go	0.558	Go_X	1.0
672.891	1.0	go	0.0	Go_O	0.0
675.432	0.65	stopsuccess	0.0	Go_O	1.0
677.956	1.0	go	0.806	Go_X	1.0
680.481	1.0	go	0.942	Go_O	1.0
683.005	1.0	go	0.986	Go_X	1.0
685.529	1.0	go	0.866	Go_O	1.0
688.053	0.7	stopsuccess	0.0	Go_X	1.0
690.577	1.0	go	0.0	Go_O	0.0
693.102	1.0	go	0.705	Go_X	1.0
695.626	0.75	stopfail	0.797	Go_O	0.0
698.15	1.0	go	0.681	Go_X	1.0
700.674	1.0	go	0.877	Go_O	1.0
703.199	1.0	go	0.0	Go_O	0.0
705.723	1.0	go	0.847	Go_X	1.0
708.247	0.7	stopsuccess	0.0	Go_X	1.0
710.788	1.0	go	0.825	Go_O	1.0
713.312	0.75	stopsuccess	0.0	Go_O	1.0
715.853	1.0	go	0.87	Go_X	1.0
718.377	1.0	go	0.842	Go_O	1.0
720.901	0.8	stopfail	0.94	Go_X	0.0
723.426	1.0	go	0.911	Go_X	1.0
725.95	1.0	go	0.888	Go_X	1.0
728.474	1.0	go	0.973	Go_O	1.0
730.998	1.0	go	0.0	Go_X	0.0
733.522	0.75	stopsuccess	0.0	Go_O	1.0
736.047	1.0	go	0.0	Go_O	0.0
738.571	0.8	stopfail	0.83	Go_X	0.0
741.112	1.0	go	0.0	Go_X	0.0
743.636	1.0	go	0.939	Go_O	1.0
746.16	1.0	go	0.739	Go_X	1.0
748.684	1.0	go	0.637	Go_O	1.0
751.208	1.0	go	0.604	Go_O	1.0
753.733	1.0	go	0.7	Go_X	1.0
756.257	0.75	stopsuccess	0.0	Go_O	1.0
758.798	1.0	go	0.765	Go_X	1.0
761.339	1.0	go	0.896	Go_O	1.0
763.863	0.8	stopfail	0.826	Go_X	0.0
766.404	1.0	go	0.802	Go_O	1.0
768.928	1.0	go	0.907	Go_X	1.0
771.452	0.75	stopfail	0.831	Go_O	0.0
773.993	1.0	go	0.74	Go_X	1.0
776.534	1.0	go	0.867	Go_O	1.0
779.058	1.0	go	0.788	Go_X	1.0
781.583	1.0	go	0.0	Go_O	0.0
784.107	0.7	stopsuccess	0.0	Go_X	1.0
786.648	1.0	go	0.0	Go_X	0.0
789.172	0.75	stopfail	0.785	Go_O	0.0
791.713	1.0	go	0.811	Go_O	1.0
794.237	1.0	go	0.845	Go_O	1.0
796.761	1.0	go	0.0	Go_X	0.0
799.302	1.0	go	0.0	Go_O	0.0
801.826	1.0	go	0.902	Go_X	1.0
804.367	0.7	stopsuccess	0.0	Go_X	1.0
806.891	1.0	go	0.926	Go_O	1.0
809.416	1.0	go	0.0	Go_X	0.0
811.94	0.75	stopfail	0.883	Go_O	0.0
814.481	0.7	stopfail	0.947	Go_X	0.0
817.022	1.0	go	0.873	Go_X	1.0
819.546	1.0	go	0.972	Go_O	1.0
822.07	1.0	go	0.0	Go_X	0.0
824.594	1.0	go	0.799	Go_O	1.0
827.135	0.65	stopfail	0.812	Go_O	0.0
829.676	1.0	go	0.0	Go_O	0.0
