onset	duration	trial_type	response_time	stim_file	accuracy
74.804	1.0	go	0.719	Go_O	1.0
77.404	1.0	go	0.454	Go_X	1.0
79.938	1.0	go	0.562	Go_O	1.0
82.487	1.0	go	0.683	Go_X	1.0
85.021	1.0	go	0.602	Go_O	1.0
87.554	1.0	go	0.628	Go_X	1.0
90.087	0.25	stopsuccess	0.0	Go_O	1.0
92.621	1.0	go	0.422	Go_X	1.0
95.154	0.3	stopsuccess	0.0	Go_X	1.0
97.687	1.0	go	0.408	Go_O	1.0
100.22	1.0	go	0.477	Go_X	1.0
102.754	1.0	go	0.597	Go_O	1.0
105.287	0.35	stopsuccess	0.0	Go_O	1.0
107.82	1.0	go	0.511	Go_X	1.0
110.353	1.0	go	0.527	Go_O	1.0
112.887	0.4	stopfail	0.511	Go_X	0.0
115.42	0.35	stopsuccess	0.0	Go_O	1.0
117.953	1.0	go	0.537	Go_O	1.0
120.487	1.0	go	0.589	Go_X	1.0
123.02	0.4	stopsuccess	0.0	Go_X	1.0
125.553	1.0	go	0.587	Go_O	1.0
128.086	1.0	go	0.647	Go_X	1.0
130.62	0.45	stopfail	0.575	Go_O	0.0
133.153	1.0	go	0.583	Go_X	1.0
135.686	1.0	go	0.558	Go_O	1.0
138.22	0.4	stopfail	0.578	Go_X	0.0
140.769	1.0	go	0.604	Go_X	1.0
143.303	1.0	go	0.537	Go_O	1.0
145.836	0.35	stopsuccess	0.0	Go_O	1.0
148.369	1.0	go	0.556	Go_O	1.0
150.903	1.0	go	0.604	Go_X	1.0
153.436	1.0	go	0.565	Go_X	1.0
155.969	1.0	go	0.528	Go_O	1.0
158.502	1.0	go	0.63	Go_O	1.0
161.036	0.4	stopsuccess	0.0	Go_X	1.0
163.569	1.0	go	0.584	Go_X	1.0
166.102	1.0	go	0.677	Go_X	1.0
168.635	1.0	go	0.569	Go_O	1.0
171.169	1.0	go	0.771	Go_O	1.0
173.702	1.0	go	0.606	Go_X	1.0
176.235	0.45	stopfail	0.643	Go_O	0.0
178.769	1.0	go	0.575	Go_O	1.0
181.302	1.0	go	0.773	Go_X	1.0
183.835	1.0	go	0.629	Go_X	1.0
186.368	1.0	go	0.626	Go_O	1.0
188.902	1.0	go	0.48	Go_O	1.0
191.435	1.0	go	0.639	Go_X	1.0
193.968	0.4	stopsuccess	0.0	Go_X	1.0
196.501	1.0	go	0.625	Go_X	1.0
199.035	1.0	go	0.614	Go_O	1.0
201.568	0.45	stopfail	0.54	Go_O	0.0
204.101	1.0	go	0.535	Go_X	1.0
206.635	0.4	stopsuccess	0.0	Go_X	1.0
209.168	0.45	stopfail	0.36	Go_O	0.0
211.701	1.0	go	0.535	Go_O	1.0
214.234	1.0	go	0.607	Go_O	1.0
216.768	1.0	go	0.652	Go_X	1.0
219.301	1.0	go	0.642	Go_X	1.0
221.834	0.4	stopsuccess	0.0	Go_X	1.0
224.367	1.0	go	0.752	Go_O	1.0
226.901	0.45	stopsuccess	0.0	Go_O	1.0
229.434	1.0	go	0.609	Go_O	1.0
231.967	1.0	go	0.776	Go_X	1.0
234.501	1.0	go	0.706	Go_O	1.0
237.034	1.0	go	0.807	Go_X	1.0
239.567	1.0	go	0.792	Go_X	1.0
242.1	1.0	go	0.704	Go_O	1.0
244.634	1.0	go	0.84	Go_O	1.0
247.167	1.0	go	0.609	Go_X	1.0
249.7	1.0	go	0.681	Go_O	1.0
252.234	0.5	stopfail	0.585	Go_X	0.0
254.783	1.0	go	0.542	Go_X	1.0
257.317	1.0	go	0.685	Go_X	1.0
259.85	1.0	go	0.642	Go_O	1.0
262.383	0.45	stopsuccess	0.0	Go_O	1.0
264.917	1.0	go	0.557	Go_X	1.0
267.45	1.0	go	0.541	Go_O	1.0
269.983	1.0	go	0.628	Go_O	1.0
272.516	1.0	go	0.591	Go_X	1.0
275.05	1.0	go	0.599	Go_O	1.0
277.583	1.0	go	0.588	Go_X	1.0
280.116	0.5	stopfail	0.578	Go_X	0.0
282.649	1.0	go	0.524	Go_X	1.0
285.183	1.0	go	0.457	Go_O	1.0
287.716	0.45	stopsuccess	0.0	Go_O	1.0
290.249	1.0	go	0.482	Go_X	1.0
292.783	1.0	go	0.542	Go_O	1.0
295.316	0.5	stopsuccess	0.0	Go_X	1.0
297.849	1.0	go	0.477	Go_X	1.0
300.382	0.55	stopfail	0.306	Go_O	0.0
302.916	1.0	go	0.429	Go_O	1.0
305.449	1.0	go	0.498	Go_O	1.0
307.982	1.0	go	0.855	Go_X	1.0
310.515	1.0	go	0.862	Go_X	1.0
313.049	1.0	go	0.669	Go_O	1.0
315.582	0.5	stopsuccess	0.0	Go_X	1.0
318.115	0.55	stopfail	0.455	Go_O	0.0
320.649	1.0	go	0.558	Go_X	1.0
323.182	1.0	go	0.616	Go_O	1.0
325.715	0.5	stopfail	0.517	Go_X	0.0
328.248	1.0	go	0.663	Go_X	1.0
330.782	1.0	go	0.522	Go_O	1.0
333.315	1.0	go	0.782	Go_O	1.0
335.848	1.0	go	0.709	Go_X	1.0
338.381	1.0	go	0.713	Go_X	1.0
340.915	1.0	go	0.793	Go_O	1.0
343.448	0.45	stopsuccess	0.0	Go_O	1.0
345.981	1.0	go	0.591	Go_O	1.0
348.515	1.0	go	0.588	Go_X	1.0
351.048	1.0	go	0.701	Go_X	1.0
353.581	1.0	go	0.599	Go_O	1.0
356.114	1.0	go	0.482	Go_O	1.0
358.648	0.5	stopfail	0.548	Go_X	0.0
361.181	1.0	go	0.498	Go_X	1.0
363.714	1.0	go	0.836	Go_O	1.0
366.248	1.0	go	0.814	Go_X	1.0
368.797	1.0	go	0.77	Go_O	1.0
371.331	0.45	stopsuccess	0.0	Go_O	1.0
373.864	1.0	go	0.447	Go_X	1.0
376.397	1.0	go	0.692	Go_X	1.0
378.931	0.5	stopsuccess	0.0	Go_X	1.0
381.464	1.0	go	0.275	Go_O	1.0
383.997	0.55	stopfail	0.6	Go_O	0.0
386.53	1.0	go	0.543	Go_O	1.0
389.064	1.0	go	0.633	Go_X	1.0
391.597	1.0	go	0.732	Go_O	1.0
394.13	1.0	go	0.63	Go_X	1.0
396.663	1.0	go	0.647	Go_O	1.0
399.197	1.0	go	0.623	Go_X	1.0
401.73	1.0	go	0.714	Go_O	1.0
404.263	0.5	stopsuccess	0.0	Go_X	1.0
406.797	1.0	go	0.502	Go_X	1.0
409.33	1.0	go	0.731	Go_X	1.0
411.863	1.0	go	0.713	Go_O	1.0
414.396	0.55	stopsuccess	0.0	Go_O	1.0
416.93	1.0	go	0.611	Go_X	1.0
419.463	1.0	go	0.707	Go_O	1.0
421.996	1.0	go	0.818	Go_O	1.0
424.53	1.0	go	0.693	Go_X	1.0
427.079	0.6	stopfail	0.692	Go_X	0.0
429.613	1.0	go	0.608	Go_O	1.0
432.146	1.0	go	0.711	Go_X	1.0
434.679	0.55	stopfail	0.713	Go_O	0.0
437.213	1.0	go	0.955	Go_X	1.0
439.746	1.0	go	0.417	Go_O	1.0
442.279	0.5	stopsuccess	0.0	Go_X	1.0
444.812	1.0	go	0.52	Go_O	1.0
447.346	1.0	go	0.742	Go_X	1.0
449.879	0.55	stopsuccess	0.0	Go_O	1.0
452.412	1.0	go	0.452	Go_O	0.0
454.945	1.0	go	0.629	Go_X	1.0
457.479	1.0	go	0.635	Go_O	1.0
460.012	1.0	go	0.746	Go_X	1.0
462.545	1.0	go	0.839	Go_X	1.0
465.079	1.0	go	0.695	Go_O	1.0
467.612	0.6	stopfail	0.781	Go_X	0.0
470.145	1.0	go	0.662	Go_X	1.0
472.678	0.55	stopfail	0.47	Go_O	0.0
475.212	1.0	go	0.75	Go_O	1.0
477.745	1.0	go	0.437	Go_X	1.0
480.278	1.0	go	0.798	Go_O	1.0
482.811	1.0	go	0.811	Go_X	1.0
485.345	1.0	go	0.797	Go_O	1.0
487.878	0.5	stopfail	0.609	Go_X	0.0
490.411	1.0	go	0.574	Go_O	1.0
492.945	1.0	go	0.789	Go_X	1.0
495.478	1.0	go	0.807	Go_X	1.0
498.011	0.45	stopsuccess	0.0	Go_O	1.0
500.544	0.5	stopfail	0.527	Go_X	0.0
503.078	0.45	stopfail	0.421	Go_O	0.0
505.611	1.0	go	0.59	Go_O	1.0
508.144	0.4	stopsuccess	0.0	Go_X	1.0
510.678	1.0	go	0.627	Go_O	1.0
513.227	1.0	go	0.802	Go_X	1.0
515.761	1.0	go	0.79	Go_O	1.0
518.294	1.0	go	0.633	Go_X	1.0
520.827	1.0	go	0.821	Go_X	1.0
523.361	1.0	go	0.905	Go_O	1.0
525.894	1.0	go	0.636	Go_O	1.0
528.427	1.0	go	0.685	Go_X	1.0
530.96	0.45	stopsuccess	0.0	Go_O	1.0
533.494	1.0	go	0.642	Go_X	1.0
536.027	1.0	go	0.638	Go_O	1.0
538.56	0.5	stopsuccess	0.0	Go_X	1.0
541.093	1.0	go	0.617	Go_O	1.0
543.627	1.0	go	0.825	Go_X	1.0
546.16	1.0	go	0.699	Go_X	1.0
548.693	1.0	go	0.811	Go_O	1.0
551.227	1.0	go	0.732	Go_O	1.0
553.76	0.55	stopsuccess	0.0	Go_O	1.0
556.293	1.0	go	0.721	Go_X	1.0
558.826	1.0	go	0.772	Go_X	1.0
561.36	1.0	go	0.779	Go_O	1.0
563.893	0.6	stopfail	0.438	Go_X	0.0
566.426	1.0	go	0.579	Go_X	1.0
568.959	0.55	stopfail	0.541	Go_O	0.0
571.493	1.0	go	0.0	Go_O	0.0
574.026	1.0	go	0.923	Go_O	1.0
576.559	1.0	go	0.606	Go_X	1.0
579.093	1.0	go	0.651	Go_O	1.0
581.626	1.0	go	0.642	Go_X	1.0
584.159	1.0	go	0.784	Go_X	1.0
586.692	1.0	go	0.0	Go_O	0.0
589.226	0.5	stopsuccess	0.0	Go_X	1.0
591.759	1.0	go	0.646	Go_X	0.0
594.292	1.0	go	0.831	Go_O	1.0
596.826	1.0	go	0.557	Go_X	1.0
599.375	1.0	go	0.715	Go_O	1.0
601.909	0.55	stopsuccess	0.0	Go_O	1.0
604.442	1.0	go	0.467	Go_O	1.0
606.975	0.6	stopfail	0.752	Go_X	0.0
609.509	1.0	go	0.0	Go_X	0.0
612.058	1.0	go	0.701	Go_O	1.0
614.592	0.55	stopfail	0.505	Go_O	0.0
617.125	1.0	go	0.687	Go_X	1.0
619.658	1.0	go	0.707	Go_O	1.0
622.192	1.0	go	0.52	Go_X	1.0
624.725	1.0	go	0.67	Go_O	1.0
627.258	1.0	go	0.586	Go_X	1.0
629.791	1.0	go	0.719	Go_X	1.0
632.325	1.0	go	0.748	Go_O	1.0
634.858	1.0	go	0.71	Go_O	1.0
637.391	1.0	go	0.728	Go_X	1.0
639.924	1.0	go	0.697	Go_X	1.0
642.458	0.5	stopsuccess	0.0	Go_X	1.0
644.991	1.0	go	0.671	Go_O	1.0
647.524	1.0	go	0.662	Go_X	1.0
650.058	0.55	stopfail	0.653	Go_O	0.0
652.591	1.0	go	0.763	Go_O	1.0
655.124	0.5	stopsuccess	0.0	Go_X	1.0
657.657	1.0	go	0.723	Go_X	1.0
660.191	1.0	go	0.711	Go_O	1.0
662.724	0.55	stopsuccess	0.0	Go_O	1.0
665.257	1.0	go	0.828	Go_X	1.0
667.791	0.6	stopfail	0.733	Go_X	0.0
670.34	1.0	go	0.543	Go_O	1.0
672.874	1.0	go	0.81	Go_O	1.0
675.407	1.0	go	0.679	Go_X	1.0
677.94	0.55	stopsuccess	0.0	Go_O	1.0
680.474	1.0	go	0.668	Go_O	1.0
683.007	1.0	go	0.835	Go_X	1.0
685.54	1.0	go	0.886	Go_O	1.0
688.073	1.0	go	0.855	Go_X	1.0
690.607	0.6	stopsuccess	0.0	Go_X	1.0
693.14	1.0	go	0.634	Go_O	1.0
695.673	1.0	go	0.681	Go_X	1.0
698.206	0.65	stopsuccess	0.0	Go_O	1.0
700.74	1.0	go	0.536	Go_X	1.0
703.273	1.0	go	0.805	Go_O	1.0
705.806	1.0	go	0.0	Go_O	0.0
708.34	1.0	go	0.729	Go_X	1.0
710.873	0.7	stopfail	0.953	Go_X	0.0
713.406	1.0	go	0.378	Go_O	1.0
715.939	0.65	stopfail	0.374	Go_O	0.0
718.473	1.0	go	0.268	Go_X	1.0
721.006	1.0	go	0.897	Go_X	1.0
723.539	0.6	stopsuccess	0.0	Go_X	1.0
726.072	1.0	go	0.714	Go_O	1.0
728.606	1.0	go	0.567	Go_O	1.0
731.139	1.0	go	0.864	Go_X	1.0
733.672	1.0	go	0.0	Go_X	0.0
736.206	0.65	stopfail	0.772	Go_O	0.0
738.739	1.0	go	0.635	Go_O	1.0
741.272	0.6	stopfail	0.695	Go_X	0.0
743.805	1.0	go	0.564	Go_X	1.0
746.339	1.0	go	0.66	Go_O	1.0
748.872	1.0	go	0.764	Go_X	1.0
751.405	1.0	go	0.81	Go_O	1.0
753.938	1.0	go	0.902	Go_O	1.0
756.472	1.0	go	0.662	Go_X	1.0
759.005	0.55	stopsuccess	0.0	Go_O	1.0
761.538	1.0	go	0.608	Go_O	1.0
764.072	1.0	go	0.876	Go_X	1.0
766.605	0.6	stopsuccess	0.0	Go_X	1.0
769.138	1.0	go	0.855	Go_O	1.0
771.671	1.0	go	0.0	Go_X	0.0
774.205	0.65	stopfail	0.736	Go_O	0.0
776.738	1.0	go	0.722	Go_O	1.0
779.271	1.0	go	0.81	Go_X	1.0
781.805	1.0	go	0.901	Go_X	1.0
784.354	1.0	go	0.791	Go_O	1.0
786.888	0.6	stopfail	0.735	Go_X	0.0
789.421	1.0	go	0.368	Go_X	1.0
791.954	0.55	stopsuccess	0.0	Go_O	1.0
794.488	1.0	go	0.512	Go_O	1.0
797.021	1.0	go	0.717	Go_X	1.0
799.554	1.0	go	0.712	Go_O	1.0
802.087	1.0	go	0.746	Go_O	1.0
804.621	1.0	go	0.678	Go_X	1.0
807.154	0.6	stopsuccess	0.0	Go_X	1.0
809.687	1.0	go	0.416	Go_X	1.0
812.22	1.0	go	0.824	Go_O	1.0
814.754	0.65	stopfail	0.764	Go_O	0.0
817.287	0.6	stopfail	0.623	Go_X	0.0
819.82	1.0	go	0.724	Go_X	1.0
822.354	1.0	go	0.828	Go_O	1.0
824.887	1.0	go	0.598	Go_X	1.0
827.42	1.0	go	0.891	Go_O	1.0
829.953	0.55	stopsuccess	0.0	Go_O	1.0
832.487	1.0	go	0.618	Go_X	1.0
