onset	duration	trial_type	response_time	stim_file	accuracy
63.887	1.0	go	0.932	Go_X	0.0
66.411	1.0	go	0.672	Go_O	1.0
68.936	1.0	go	0.765	Go_O	1.0
71.46	1.0	go	0.979	Go_X	1.0
73.984	1.0	go	0.658	Go_O	1.0
76.508	1.0	go	0.591	Go_X	1.0
79.032	0.25	stop	0.0	Go_O	1.0
81.557	1.0	go	0.639	Go_X	1.0
84.081	0.3	stop	0.0	Go_X	1.0
86.605	1.0	go	0.394	Go_O	1.0
89.129	1.0	go	0.721	Go_O	1.0
91.653	1.0	go	0.607	Go_X	1.0
94.178	0.35	stop	0.395	Go_O	0.0
96.702	1.0	go	0.458	Go_X	1.0
99.226	1.0	go	0.483	Go_O	1.0
101.75	0.3	stop	0.403	Go_X	0.0
104.275	0.25	stop	0.0	Go_O	1.0
106.799	1.0	go	0.372	Go_X	1.0
109.323	1.0	go	0.701	Go_O	1.0
111.847	0.3	stop	0.436	Go_X	0.0
114.371	1.0	go	0.698	Go_X	1.0
116.896	1.0	go	0.494	Go_O	1.0
119.42	0.25	stop	0.0	Go_O	1.0
121.944	1.0	go	0.483	Go_O	1.0
124.468	1.0	go	0.472	Go_X	1.0
126.992	0.3	stop	0.0	Go_X	1.0
129.517	1.0	go	0.409	Go_O	1.0
132.041	1.0	go	0.685	Go_X	1.0
134.565	0.35	stop	0.0	Go_O	1.0
137.089	1.0	go	0.535	Go_O	1.0
139.613	1.0	go	0.579	Go_X	1.0
142.138	1.0	go	0.603	Go_X	1.0
144.662	1.0	go	0.69	Go_O	1.0
147.186	1.0	go	0.614	Go_X	1.0
149.71	0.4	stop	0.608	Go_X	0.0
152.235	1.0	go	0.603	Go_O	1.0
154.759	1.0	go	0.615	Go_X	1.0
157.283	1.0	go	0.588	Go_O	1.0
159.807	1.0	go	0.7	Go_X	1.0
162.331	1.0	go	0.66	Go_O	1.0
164.856	0.35	stop	0.0	Go_O	1.0
167.38	1.0	go	0.644	Go_O	1.0
169.904	1.0	go	0.48	Go_X	1.0
172.428	1.0	go	0.63	Go_O	1.0
174.952	1.0	go	0.684	Go_X	1.0
177.477	1.0	go	0.707	Go_X	1.0
180.001	1.0	go	0.438	Go_O	1.0
182.525	0.4	stop	0.0	Go_X	1.0
185.049	1.0	go	0.352	Go_O	1.0
187.574	1.0	go	0.43	Go_X	1.0
190.098	0.45	stop	0.401	Go_O	0.0
192.622	1.0	go	0.481	Go_X	1.0
195.146	0.4	stop	0.462	Go_X	0.0
197.67	0.35	stop	0.451	Go_O	0.0
200.195	1.0	go	0.477	Go_O	1.0
202.719	1.0	go	0.546	Go_O	1.0
205.243	1.0	go	0.623	Go_X	1.0
207.767	1.0	go	0.674	Go_X	1.0
210.291	0.3	stop	0.0	Go_X	1.0
212.816	1.0	go	0.428	Go_O	1.0
215.34	0.35	stop	0.0	Go_O	1.0
217.864	1.0	go	0.678	Go_O	1.0
220.388	1.0	go	0.784	Go_X	1.0
222.913	1.0	go	0.737	Go_X	1.0
225.437	1.0	go	0.56	Go_O	1.0
227.961	1.0	go	0.535	Go_X	1.0
230.485	1.0	go	0.69	Go_O	1.0
233.009	1.0	go	0.721	Go_X	1.0
235.534	1.0	go	0.646	Go_O	1.0
238.058	1.0	go	0.612	Go_O	1.0
240.582	0.4	stop	0.0	Go_X	1.0
243.106	1.0	go	0.513	Go_X	1.0
245.63	1.0	go	0.521	Go_X	1.0
248.155	1.0	go	0.476	Go_O	1.0
250.679	0.45	stop	0.495	Go_O	0.0
253.203	1.0	go	0.573	Go_O	1.0
255.727	1.0	go	0.514	Go_X	1.0
258.252	1.0	go	0.515	Go_X	1.0
260.776	1.0	go	0.482	Go_O	1.0
263.3	1.0	go	0.5	Go_O	1.0
265.824	1.0	go	0.442	Go_X	1.0
268.348	0.4	stop	0.51	Go_X	0.0
270.873	1.0	go	0.465	Go_O	1.0
273.397	1.0	go	0.482	Go_X	1.0
275.921	0.35	stop	0.367	Go_O	0.0
278.445	1.0	go	0.493	Go_O	1.0
280.969	1.0	go	0.689	Go_X	1.0
283.494	0.3	stop	0.0	Go_X	1.0
286.018	1.0	go	0.39	Go_O	1.0
288.542	0.35	stop	0.507	Go_O	0.0
291.066	1.0	go	0.717	Go_X	1.0
293.591	1.0	go	0.571	Go_X	1.0
296.115	1.0	go	0.676	Go_O	1.0
298.639	1.0	go	0.549	Go_O	1.0
301.163	1.0	go	0.596	Go_X	1.0
303.687	0.3	stop	0.0	Go_X	1.0
306.212	0.35	stop	0.454	Go_O	0.0
308.736	1.0	go	0.5	Go_O	1.0
311.26	1.0	go	0.629	Go_X	1.0
313.784	0.3	stop	0.0	Go_X	1.0
316.308	1.0	go	0.434	Go_O	1.0
318.833	1.0	go	0.701	Go_X	1.0
321.357	1.0	go	0.562	Go_O	1.0
323.881	1.0	go	0.621	Go_X	1.0
326.405	1.0	go	0.588	Go_X	1.0
328.93	1.0	go	0.656	Go_O	1.0
331.454	0.35	stop	0.0	Go_O	1.0
333.978	1.0	go	0.406	Go_X	1.0
336.502	1.0	go	0.503	Go_O	1.0
339.026	1.0	go	0.409	Go_X	1.0
341.551	1.0	go	0.459	Go_O	1.0
344.075	1.0	go	0.546	Go_O	1.0
346.599	0.4	stop	0.0	Go_X	1.0
349.123	1.0	go	0.656	Go_X	1.0
351.647	1.0	go	0.544	Go_X	1.0
354.172	1.0	go	0.718	Go_O	1.0
356.696	1.0	go	0.67	Go_O	1.0
359.22	0.45	stop	0.587	Go_O	0.0
361.744	1.0	go	0.658	Go_X	1.0
364.269	1.0	go	0.496	Go_O	1.0
366.793	0.4	stop	0.0	Go_X	1.0
369.317	1.0	go	0.666	Go_X	1.0
371.841	0.45	stop	0.0	Go_O	1.0
374.365	1.0	go	0.627	Go_O	1.0
376.89	1.0	go	0.587	Go_X	1.0
379.414	1.0	go	0.555	Go_O	1.0
381.938	1.0	go	0.599	Go_X	1.0
384.462	1.0	go	0.487	Go_O	1.0
386.986	1.0	go	0.512	Go_X	1.0
389.511	1.0	go	0.627	Go_O	1.0
392.035	0.5	stop	0.0	Go_X	1.0
394.559	1.0	go	0.576	Go_X	1.0
397.083	1.0	go	0.552	Go_O	1.0
399.608	1.0	go	0.477	Go_X	1.0
402.132	0.55	stop	0.609	Go_O	0.0
404.656	1.0	go	0.4	Go_X	1.0
407.18	1.0	go	0.573	Go_O	1.0
409.704	1.0	go	0.521	Go_O	1.0
412.229	1.0	go	0.566	Go_X	1.0
414.753	0.5	stop	0.0	Go_X	1.0
417.277	1.0	go	0.704	Go_X	1.0
419.801	1.0	go	0.516	Go_O	1.0
422.325	0.55	stop	0.561	Go_O	0.0
424.85	1.0	go	0.605	Go_O	1.0
427.374	1.0	go	0.445	Go_X	1.0
429.898	0.5	stop	0.511	Go_X	0.0
432.422	1.0	go	0.622	Go_X	1.0
434.947	1.0	go	0.608	Go_O	1.0
437.471	0.45	stop	0.576	Go_O	0.0
439.995	1.0	go	0.661	Go_X	1.0
442.519	1.0	go	0.725	Go_O	1.0
445.043	1.0	go	0.681	Go_X	1.0
447.568	1.0	go	0.676	Go_O	1.0
450.092	1.0	go	0.594	Go_X	1.0
452.616	1.0	go	0.435	Go_O	1.0
455.14	0.4	stop	0.0	Go_X	1.0
457.664	1.0	go	0.564	Go_X	1.0
460.189	0.45	stop	0.611	Go_O	0.0
462.713	1.0	go	0.509	Go_O	1.0
465.237	1.0	go	0.765	Go_O	1.0
467.761	1.0	go	0.885	Go_X	1.0
470.286	1.0	go	0.592	Go_O	1.0
472.81	1.0	go	0.732	Go_X	1.0
475.334	0.4	stop	0.0	Go_X	1.0
477.858	1.0	go	0.539	Go_O	1.0
480.382	1.0	go	0.654	Go_X	1.0
482.907	1.0	go	0.507	Go_X	1.0
485.431	0.45	stop	0.594	Go_O	0.0
487.955	0.4	stop	0.55	Go_X	0.0
490.479	0.35	stop	0.487	Go_O	0.0
493.003	1.0	go	0.621	Go_O	1.0
495.528	0.3	stop	0.0	Go_X	1.0
498.052	1.0	go	0.705	Go_O	1.0
500.576	1.0	go	0.729	Go_X	1.0
503.1	1.0	go	0.904	Go_O	1.0
505.624	1.0	go	0.606	Go_X	1.0
508.149	1.0	go	0.687	Go_O	1.0
510.673	1.0	go	0.732	Go_X	1.0
513.197	1.0	go	0.66	Go_X	1.0
515.721	1.0	go	0.562	Go_O	1.0
518.246	0.35	stop	0.0	Go_O	1.0
520.77	1.0	go	0.626	Go_X	1.0
523.294	1.0	go	0.568	Go_O	1.0
525.818	0.4	stop	0.0	Go_X	1.0
528.342	1.0	go	0.539	Go_O	1.0
530.867	1.0	go	0.667	Go_X	1.0
533.391	1.0	go	0.596	Go_O	1.0
535.915	1.0	go	0.65	Go_X	1.0
538.439	1.0	go	0.71	Go_X	0.0
540.964	0.45	stop	0.466	Go_O	0.0
543.488	1.0	go	0.578	Go_O	1.0
546.012	1.0	go	0.767	Go_O	1.0
548.536	1.0	go	0.528	Go_X	1.0
551.06	0.4	stop	0.0	Go_X	1.0
553.585	1.0	go	0.565	Go_O	1.0
556.109	0.45	stop	0.0	Go_O	1.0
558.633	1.0	go	0.665	Go_X	1.0
561.157	1.0	go	0.811	Go_O	1.0
563.681	1.0	go	0.666	Go_X	1.0
566.206	1.0	go	0.654	Go_O	1.0
568.73	1.0	go	0.623	Go_X	1.0
571.254	1.0	go	0.621	Go_O	1.0
573.778	1.0	go	0.684	Go_X	1.0
576.302	0.5	stop	0.496	Go_X	0.0
578.827	1.0	go	0.421	Go_O	1.0
581.351	1.0	go	0.611	Go_X	1.0
583.875	1.0	go	0.597	Go_O	1.0
586.399	1.0	go	0.589	Go_X	1.0
588.924	0.45	stop	0.578	Go_O	0.0
591.448	1.0	go	0.472	Go_X	1.0
593.972	0.4	stop	0.0	Go_X	1.0
596.496	1.0	go	0.0	Go_O	0.0
599.02	1.0	go	0.478	Go_X	1.0
601.545	0.45	stop	0.0	Go_O	1.0
604.069	1.0	go	0.62	Go_O	1.0
606.593	1.0	go	0.759	Go_O	1.0
609.117	1.0	go	0.6	Go_X	1.0
611.641	1.0	go	0.664	Go_X	1.0
614.166	1.0	go	0.569	Go_O	1.0
616.69	1.0	go	0.647	Go_X	1.0
619.214	1.0	go	0.617	Go_O	1.0
621.738	1.0	go	0.579	Go_O	1.0
624.263	1.0	go	0.804	Go_X	1.0
626.787	1.0	go	0.682	Go_O	1.0
629.311	0.5	stop	0.0	Go_X	1.0
631.835	1.0	go	0.604	Go_X	1.0
634.359	1.0	go	0.738	Go_X	1.0
636.884	0.55	stop	0.537	Go_O	0.0
639.408	1.0	go	0.5	Go_O	1.0
641.932	0.5	stop	0.0	Go_X	1.0
644.456	1.0	go	0.517	Go_X	1.0
646.98	1.0	go	0.559	Go_O	1.0
649.505	0.55	stop	0.581	Go_O	0.0
652.029	1.0	go	0.55	Go_X	1.0
654.553	0.5	stop	0.643	Go_X	0.0
657.077	1.0	go	0.475	Go_O	1.0
659.602	1.0	go	0.614	Go_O	1.0
662.126	1.0	go	0.579	Go_X	1.0
664.65	0.45	stop	0.576	Go_O	0.0
667.174	1.0	go	0.644	Go_O	1.0
669.698	1.0	go	0.463	Go_X	1.0
672.223	1.0	go	0.78	Go_X	1.0
674.747	1.0	go	0.542	Go_O	1.0
677.271	0.4	stop	0.0	Go_X	1.0
679.795	1.0	go	0.665	Go_O	1.0
682.319	1.0	go	0.538	Go_X	1.0
684.844	0.45	stop	0.0	Go_O	1.0
687.368	1.0	go	0.643	Go_O	1.0
689.892	1.0	go	0.554	Go_X	1.0
692.416	1.0	go	0.395	Go_O	1.0
694.941	1.0	go	0.678	Go_X	1.0
697.465	0.5	stop	0.539	Go_X	0.0
699.989	1.0	go	0.494	Go_O	1.0
702.513	0.45	stop	0.56	Go_O	0.0
705.037	1.0	go	0.525	Go_X	1.0
707.562	1.0	go	0.674	Go_X	1.0
710.086	0.4	stop	0.0	Go_X	1.0
712.61	1.0	go	0.514	Go_O	1.0
715.134	1.0	go	0.647	Go_X	1.0
717.658	1.0	go	0.388	Go_O	1.0
720.183	1.0	go	0.741	Go_O	1.0
722.707	0.45	stop	0.0	Go_O	1.0
725.231	1.0	go	0.603	Go_X	1.0
727.755	0.5	stop	0.631	Go_X	0.0
730.28	1.0	go	0.577	Go_X	1.0
732.804	1.0	go	0.606	Go_O	1.0
735.328	1.0	go	0.657	Go_X	1.0
737.852	1.0	go	0.694	Go_O	1.0
740.376	1.0	go	0.668	Go_X	1.0
742.901	1.0	go	0.582	Go_O	1.0
745.425	0.45	stop	0.0	Go_O	1.0
747.949	1.0	go	0.608	Go_O	1.0
750.473	1.0	go	0.521	Go_X	1.0
752.997	0.5	stop	0.687	Go_X	0.0
755.522	1.0	go	0.58	Go_X	1.0
758.046	1.0	go	0.518	Go_O	1.0
760.57	0.45	stop	0.519	Go_O	0.0
763.094	1.0	go	0.668	Go_X	1.0
765.619	1.0	go	0.637	Go_O	1.0
768.143	1.0	go	0.685	Go_O	1.0
770.667	1.0	go	0.792	Go_X	1.0
773.191	0.4	stop	0.0	Go_X	1.0
775.715	1.0	go	0.757	Go_X	1.0
778.24	0.45	stop	0.582	Go_O	0.0
780.764	1.0	go	0.505	Go_O	1.0
783.288	1.0	go	0.721	Go_X	1.0
785.812	1.0	go	0.745	Go_O	1.0
788.336	1.0	go	0.635	Go_X	1.0
790.861	1.0	go	0.649	Go_O	1.0
793.385	0.4	stop	0.0	Go_X	1.0
795.909	1.0	go	0.562	Go_O	1.0
798.433	1.0	go	0.628	Go_X	1.0
800.958	0.45	stop	0.45	Go_O	0.0
803.482	0.4	stop	0.0	Go_X	1.0
806.006	1.0	go	0.568	Go_X	1.0
808.53	1.0	go	0.635	Go_O	1.0
811.054	1.0	go	0.576	Go_X	1.0
813.579	1.0	go	0.598	Go_O	1.0
816.103	0.45	stop	0.0	Go_O	1.0
818.627	1.0	go	0.648	Go_O	1.0
