frame	onset	duration	trial_type	event_type	response_type	response_time	stim_file	accuracy
0	69.316		control-noreward	ImageDisplay1		0.0		
0	71.305	0.75	control-noreward	StartDisplay				
0	72.058		control-noreward	ImageDisplay2		0.0		
0	75.301	1.6	control-noreward	ChoiceDisplay	1	0.765	1	1
0	76.086	0.835	control-noreward	ChosenDisplay		0.0		
0	76.905	0.25	control-noreward	TurnDisplay				
0	77.156	0.75	control-noreward	OutcomeDisplay				
1	77.908		control-noreward	ImageDisplay1		0.0		
1	80.148	0.75	control-noreward	StartDisplay				
1	80.901		control-noreward	ImageDisplay2		0.0		
1	83.91	1.6	control-noreward	ChoiceDisplay	1	0.878	1	1
1	84.812	0.722	control-noreward	ChosenDisplay		0.0		
1	85.514	0.25	control-noreward	TurnDisplay				
1	85.765	0.75	control-noreward	OutcomeDisplay				
2	86.517		loss-noreward	ImageDisplay1		0.0		
2	88.757	0.75	loss-noreward	StartDisplay				
2	89.51		loss-noreward	ImageDisplay2		0.0		
2	92.519	1.6	loss-noreward	ChoiceDisplay	1	0.53	1	1
2	93.07	1.07	loss-noreward	ChosenDisplay		0.0		
2	94.123	0.25	loss-noreward	TurnDisplay				
2	94.374	0.75	loss-noreward	OutcomeDisplay				
3	95.126		loss-noreward	ImageDisplay1		0.0		
3	97.366	0.75	loss-noreward	StartDisplay				
3	98.119		loss-noreward	ImageDisplay2		0.0		
3	101.128	1.6	loss-noreward	ChoiceDisplay	1	0.707	1	1
3	101.846	0.893	loss-noreward	ChosenDisplay		0.0		
3	102.732	0.25	loss-noreward	TurnDisplay				
3	102.983	0.75	loss-noreward	OutcomeDisplay				
4	103.735		control-noreward	ImageDisplay1		0.0		
4	105.725	0.75	control-noreward	StartDisplay				
4	106.477		control-noreward	ImageDisplay2		0.0		
4	109.737	1.6	control-noreward	ChoiceDisplay	1	0.59	1	1
4	110.338	1.01	control-noreward	ChosenDisplay		0.0		
4	111.341	0.25	control-noreward	TurnDisplay				
4	111.592	0.75	control-noreward	OutcomeDisplay				
5	112.344		win-noreward	ImageDisplay1		0.0		
5	114.584	0.75	win-noreward	StartDisplay				
5	115.337		win-noreward	ImageDisplay2		0.0		
5	118.346	1.6	win-noreward	ChoiceDisplay	1	0.616	1	1
5	118.981	0.984	win-noreward	ChosenDisplay		0.0		
5	119.95	0.25	win-noreward	TurnDisplay				
5	120.201	0.75	win-noreward	OutcomeDisplay				
6	120.953		loss-noreward	ImageDisplay1		0.0		
6	122.943	0.75	loss-noreward	StartDisplay				
6	123.695		loss-noreward	ImageDisplay2		0.0		
6	126.955	1.6	loss-noreward	ChoiceDisplay	1	0.68	1	1
6	127.657	0.92	loss-noreward	ChosenDisplay		0.0		
6	128.559	0.25	loss-noreward	TurnDisplay				
6	128.81	0.75	loss-noreward	OutcomeDisplay				
7	129.562		loss-noreward	ImageDisplay1		0.0		
7	131.802	0.75	loss-noreward	StartDisplay				
7	132.555		loss-noreward	ImageDisplay2		0.0		
7	135.564	1.6	loss-noreward	ChoiceDisplay	1	0.638	1	1
7	136.216	0.962	loss-noreward	ChosenDisplay		0.0		
7	137.168	0.25	loss-noreward	TurnDisplay				
7	137.419	0.75	loss-noreward	OutcomeDisplay				
8	138.171		loss-noreward	ImageDisplay1		0.0		
8	140.161	0.75	loss-noreward	StartDisplay				
8	140.913		loss-noreward	ImageDisplay2		0.0		
8	144.173	1.6	loss-noreward	ChoiceDisplay		0.0		
8	145.761	0.0	loss-noreward	ChosenDisplay		0.0		
8	145.777	0.25	loss-noreward	TurnDisplay				
8	146.012	0.75	loss-noreward	OutcomeDisplay				
9	146.764		control-reward	ImageDisplay1		0.0		
9	148.77	0.75	control-reward	StartDisplay				
9	149.522		control-reward	ImageDisplay2		0.0		
9	152.765	1.6	control-reward	ChoiceDisplay	1	0.668	1	1
9	153.45	0.932	control-reward	ChosenDisplay		0.0		
9	154.37	0.25	control-reward	TurnDisplay				
9	154.621	0.75	control-reward	OutcomeDisplay				
10	155.373		loss-reward	ImageDisplay1		0.0		
10	157.362	0.75	loss-reward	StartDisplay				
10	158.114		loss-reward	ImageDisplay2		0.0		
10	161.374	1.6	loss-reward	ChoiceDisplay	1	0.923	1	1
10	162.31	0.677	loss-reward	ChosenDisplay		0.0		
10	162.979	0.25	loss-reward	TurnDisplay				
10	163.23	0.75	loss-reward	OutcomeDisplay				
11	163.982		control-reward	ImageDisplay1		0.0		
11	166.222	0.75	control-reward	StartDisplay				
11	166.974		control-reward	ImageDisplay2		0.0		
11	169.983	1.6	control-reward	ChoiceDisplay	1	0.746	1	1
11	170.752	0.854	control-reward	ChosenDisplay		0.0		
11	171.588	0.25	control-reward	TurnDisplay				
11	171.839	0.75	control-reward	OutcomeDisplay				
12	172.591		loss-reward	ImageDisplay1		0.0		
12	174.831	0.75	loss-reward	StartDisplay				
12	175.583		loss-reward	ImageDisplay2		0.0		
12	178.592	1.6	loss-reward	ChoiceDisplay	1	0.765	1	1
12	179.378	0.835	loss-reward	ChosenDisplay		0.0		
12	180.197	0.25	loss-reward	TurnDisplay				
12	180.447	0.75	loss-reward	OutcomeDisplay				
13	181.2		win-noreward	ImageDisplay1		0.0		
13	183.44	0.75	win-noreward	StartDisplay				
13	184.192		win-noreward	ImageDisplay2		0.0		
13	187.201	1.6	win-noreward	ChoiceDisplay	1	0.853	1	1
13	188.07	0.747	win-noreward	ChosenDisplay		0.0		
13	188.806	0.25	win-noreward	TurnDisplay				
13	189.057	0.75	win-noreward	OutcomeDisplay				
14	189.809		control-reward	ImageDisplay1		0.0		
14	192.049	0.75	control-reward	StartDisplay				
14	192.801		control-reward	ImageDisplay2		0.0		
14	195.81	1.6	control-reward	ChoiceDisplay	1	0.651	1	1
14	196.479	0.949	control-reward	ChosenDisplay		0.0		
14	197.415	0.25	control-reward	TurnDisplay				
14	197.666	0.75	control-reward	OutcomeDisplay				
15	198.418		win-reward	ImageDisplay1		0.0		
15	200.658	0.75	win-reward	StartDisplay				
15	201.41		win-reward	ImageDisplay2		0.0		
15	204.419	1.6	win-reward	ChoiceDisplay	1	0.8	1	1
15	205.238	0.8	win-reward	ChosenDisplay		0.0		
15	206.024	0.25	win-reward	TurnDisplay				
15	206.275	0.75	win-reward	OutcomeDisplay				
16	207.027		loss-reward	ImageDisplay1		0.0		
16	209.267	0.75	loss-reward	StartDisplay				
16	210.019		loss-reward	ImageDisplay2		0.0		
16	213.028	1.6	loss-reward	ChoiceDisplay	1	0.856	1	1
16	213.897	0.744	loss-reward	ChosenDisplay		0.0		
16	214.633	0.25	loss-reward	TurnDisplay				
16	214.884	0.75	loss-reward	OutcomeDisplay				
17	215.636		loss-reward	ImageDisplay1		0.0		
17	217.625	0.75	loss-reward	StartDisplay				
17	218.377		loss-reward	ImageDisplay2		0.0		
17	221.637	1.6	loss-reward	ChoiceDisplay	1	0.51	1	1
17	222.172	1.09	loss-reward	ChosenDisplay		0.0		
17	223.242	0.25	loss-reward	TurnDisplay				
17	223.493	0.75	loss-reward	OutcomeDisplay				
18	224.245		control-noreward	ImageDisplay1		0.0		
18	226.485	0.75	control-noreward	StartDisplay				
18	227.237		control-noreward	ImageDisplay2		0.0		
18	230.246	1.6	control-noreward	ChoiceDisplay	1	0.617	1	1
18	230.881	0.983	control-noreward	ChosenDisplay		0.0		
18	231.851	0.25	control-noreward	TurnDisplay				
18	232.102	0.75	control-noreward	OutcomeDisplay				
19	232.854		loss-noreward	ImageDisplay1		0.0		
19	235.094	0.75	loss-noreward	StartDisplay				
19	235.846		loss-noreward	ImageDisplay2		0.0		
19	238.855	1.6	loss-noreward	ChoiceDisplay	1	0.592	1	1
19	239.473	1.008	loss-noreward	ChosenDisplay		0.0		
19	240.46	0.25	loss-noreward	TurnDisplay				
19	240.711	0.75	loss-noreward	OutcomeDisplay				
20	241.463		win-reward	ImageDisplay1		0.0		
20	243.703	0.75	win-reward	StartDisplay				
20	244.455		win-reward	ImageDisplay2		0.0		
20	247.464	1.6	win-reward	ChoiceDisplay	1	0.822	1	1
20	248.3	0.778	win-reward	ChosenDisplay		0.0		
20	249.069	0.25	win-reward	TurnDisplay				
20	249.32	0.75	win-reward	OutcomeDisplay				
21	250.072		win-reward	ImageDisplay1		0.0		
21	252.061	0.75	win-reward	StartDisplay				
21	252.813		win-reward	ImageDisplay2		0.0		
21	256.073	1.6	win-reward	ChoiceDisplay	1	0.811	1	1
21	256.909	0.789	win-reward	ChosenDisplay		0.0		
21	257.678	0.25	win-reward	TurnDisplay				
21	257.929	0.75	win-reward	OutcomeDisplay				
22	258.681		control-noreward	ImageDisplay1		0.0		
22	260.921	0.75	control-noreward	StartDisplay				
22	261.673		control-noreward	ImageDisplay2		0.0		
22	264.682	1.6	control-noreward	ChoiceDisplay	1	0.619	1	1
22	265.317	0.981	control-noreward	ChosenDisplay		0.0		
22	266.287	0.25	control-noreward	TurnDisplay				
22	266.538	0.75	control-noreward	OutcomeDisplay				
23	267.29		control-noreward	ImageDisplay1		0.0		
23	269.279	0.75	control-noreward	StartDisplay				
23	270.031		control-noreward	ImageDisplay2		0.0		
23	273.291	1.6	control-noreward	ChoiceDisplay	1	0.549	1	1
23	273.859	1.051	control-noreward	ChosenDisplay		0.0		
23	274.896	0.25	control-noreward	TurnDisplay				
23	275.147	0.75	control-noreward	OutcomeDisplay				
24	275.899		win-reward	ImageDisplay1		0.0		
24	278.139	0.75	win-reward	StartDisplay				
24	278.891		win-reward	ImageDisplay2		0.0		
24	281.9	1.6	win-reward	ChoiceDisplay	1	0.573	1	1
24	282.485	1.027	win-reward	ChosenDisplay		0.0		
24	283.505	0.25	win-reward	TurnDisplay				
24	283.756	0.75	win-reward	OutcomeDisplay				
25	284.508		win-reward	ImageDisplay1		0.0		
25	286.497	0.75	win-reward	StartDisplay				
25	287.249		win-reward	ImageDisplay2		0.0		
25	290.509	1.6	win-reward	ChoiceDisplay	1	0.706	1	1
25	291.228	0.894	win-reward	ChosenDisplay		0.0		
25	292.114	0.25	win-reward	TurnDisplay				
25	292.365	0.75	win-reward	OutcomeDisplay				
26	293.117		control-reward	ImageDisplay1		0.0		
26	295.357	0.75	control-reward	StartDisplay				
26	296.109		control-reward	ImageDisplay2		0.0		
26	299.118	1.6	control-reward	ChoiceDisplay	1	0.789	1	1
26	299.92	0.811	control-reward	ChosenDisplay		0.0		
26	300.723	0.25	control-reward	TurnDisplay				
26	300.974	0.75	control-reward	OutcomeDisplay				
27	301.726		win-reward	ImageDisplay1		0.0		
27	303.715	0.75	win-reward	StartDisplay				
27	304.467		win-reward	ImageDisplay2		0.0		
27	307.727	1.6	win-reward	ChoiceDisplay	1	0.864	1	1
27	308.613	0.736	win-reward	ChosenDisplay		0.0		
27	309.332	0.25	win-reward	TurnDisplay				
27	309.583	0.75	win-reward	OutcomeDisplay				
28	310.335		control-reward	ImageDisplay1		0.0		
28	312.575	0.75	control-reward	StartDisplay				
28	313.327		control-reward	ImageDisplay2		0.0		
28	316.336	1.6	control-reward	ChoiceDisplay	1	0.624	1	1
28	316.971	0.976	control-reward	ChosenDisplay		0.0		
28	317.941	0.25	control-reward	TurnDisplay				
28	318.192	0.75	control-reward	OutcomeDisplay				
29	318.944		control-reward	ImageDisplay1		0.0		
29	321.184	0.75	control-reward	StartDisplay				
29	321.936		control-reward	ImageDisplay2		0.0		
29	324.945	1.6	control-reward	ChoiceDisplay	1	0.808	1	1
29	325.781	0.792	control-reward	ChosenDisplay		0.0		
29	326.55	0.25	control-reward	TurnDisplay				
29	326.801	0.75	control-reward	OutcomeDisplay				
30	327.553		loss-noreward	ImageDisplay1		0.0		
30	329.793	0.75	loss-noreward	StartDisplay				
30	330.545		loss-noreward	ImageDisplay2		0.0		
30	333.554	1.6	loss-noreward	ChoiceDisplay	1	0.647	1	1
30	334.223	0.953	loss-noreward	ChosenDisplay		0.0		
30	335.159	0.25	loss-noreward	TurnDisplay				
30	335.41	0.75	loss-noreward	OutcomeDisplay				
31	336.162		win-reward	ImageDisplay1		0.0		
31	338.402	0.75	win-reward	StartDisplay				
31	339.154		win-reward	ImageDisplay2		0.0		
31	342.163	1.6	win-reward	ChoiceDisplay	1	0.61	1	1
31	342.798	0.99	win-reward	ChosenDisplay		0.0		
31	343.768	0.25	win-reward	TurnDisplay				
31	344.019	0.75	win-reward	OutcomeDisplay				
32	344.771		control-reward	ImageDisplay1		0.0		
32	346.76	0.75	control-reward	StartDisplay				
32	347.512		control-reward	ImageDisplay2		0.0		
32	350.772	1.6	control-reward	ChoiceDisplay	1	0.693	1	1
32	351.491	0.907	control-reward	ChosenDisplay		0.0		
32	352.377	0.25	control-reward	TurnDisplay				
32	352.628	0.75	control-reward	OutcomeDisplay				
33	353.38		loss-reward	ImageDisplay1		0.0		
33	355.62	0.75	loss-reward	StartDisplay				
33	356.372		loss-reward	ImageDisplay2		0.0		
33	359.381	1.6	loss-reward	ChoiceDisplay	1	1.101	1	1
33	360.501	0.499	loss-reward	ChosenDisplay		0.0		
33	360.986	0.25	loss-reward	TurnDisplay				
33	361.237	0.75	loss-reward	OutcomeDisplay				
34	361.989		loss-reward	ImageDisplay1		0.0		
34	364.229	0.75	loss-reward	StartDisplay				
34	364.981		loss-reward	ImageDisplay2		0.0		
34	367.99	1.6	loss-reward	ChoiceDisplay	1	0.676	1	1
34	368.692	0.924	loss-reward	ChosenDisplay		0.0		
34	369.595	0.25	loss-reward	TurnDisplay				
34	369.846	0.75	loss-reward	OutcomeDisplay				
35	370.598		win-noreward	ImageDisplay1		0.0		
35	372.838	0.75	win-noreward	StartDisplay				
35	373.59		win-noreward	ImageDisplay2		0.0		
35	376.599	1.6	win-noreward	ChoiceDisplay	1	0.655	1	1
35	377.268	0.945	win-noreward	ChosenDisplay		0.0		
35	378.204	0.25	win-noreward	TurnDisplay				
35	378.455	0.75	win-noreward	OutcomeDisplay				
36	379.207		loss-reward	ImageDisplay1		0.0		
36	381.447	0.75	loss-reward	StartDisplay				
36	382.199		loss-reward	ImageDisplay2		0.0		
36	385.208	1.6	loss-reward	ChoiceDisplay	1	0.609	1	1
36	385.843	0.991	loss-reward	ChosenDisplay		0.0		
36	386.813	0.25	loss-reward	TurnDisplay				
36	387.064	0.75	loss-reward	OutcomeDisplay				
37	387.816		win-reward	ImageDisplay1		0.0		
37	390.056	0.75	win-reward	StartDisplay				
37	390.808		win-reward	ImageDisplay2		0.0		
37	393.817	1.6	win-reward	ChoiceDisplay	1	0.758	1	1
37	394.603	0.842	win-reward	ChosenDisplay		0.0		
37	395.422	0.25	win-reward	TurnDisplay				
37	395.673	0.75	win-reward	OutcomeDisplay				
38	396.425		loss-reward	ImageDisplay1		0.0		
38	398.665	0.75	loss-reward	StartDisplay				
38	399.417		loss-reward	ImageDisplay2		0.0		
38	402.426	1.6	loss-reward	ChoiceDisplay	1	0.591	1	1
38	403.044	1.009	loss-reward	ChosenDisplay		0.0		
38	404.031	0.25	loss-reward	TurnDisplay				
38	404.282	0.75	loss-reward	OutcomeDisplay				
39	405.034		win-noreward	ImageDisplay1		0.0		
39	407.274	0.75	win-noreward	StartDisplay				
39	408.026		win-noreward	ImageDisplay2		0.0		
39	411.035	1.6	win-noreward	ChoiceDisplay	1	0.772	1	1
39	411.821	0.828	win-noreward	ChosenDisplay		0.0		
39	412.64	0.25	win-noreward	TurnDisplay				
39	412.891	0.75	win-noreward	OutcomeDisplay				
40	413.643		control-reward	ImageDisplay1		0.0		
40	415.883	0.75	control-reward	StartDisplay				
40	416.635		control-reward	ImageDisplay2		0.0		
40	419.644	1.6	control-reward	ChoiceDisplay	1	0.717	1	1
40	420.38	0.883	control-reward	ChosenDisplay		0.0		
40	421.249	0.25	control-reward	TurnDisplay				
40	421.5	0.75	control-reward	OutcomeDisplay				
41	422.252		control-noreward	ImageDisplay1		0.0		
41	424.241	0.75	control-noreward	StartDisplay				
41	424.993		control-noreward	ImageDisplay2		0.0		
41	428.253	1.6	control-noreward	ChoiceDisplay	1	0.627	1	1
41	428.905	0.973	control-noreward	ChosenDisplay		0.0		
41	429.858	0.25	control-noreward	TurnDisplay				
41	430.109	0.75	control-noreward	OutcomeDisplay				
42	430.861		win-reward	ImageDisplay1		0.0		
42	432.85	0.75	win-reward	StartDisplay				
42	433.602		win-reward	ImageDisplay2		0.0		
42	436.862	1.6	win-reward	ChoiceDisplay	1	0.631	1	1
42	437.514	0.969	win-reward	ChosenDisplay		0.0		
42	438.467	0.25	win-reward	TurnDisplay				
42	438.718	0.75	win-reward	OutcomeDisplay				
43	439.47		control-noreward	ImageDisplay1		0.0		
43	441.459	0.75	control-noreward	StartDisplay				
43	442.211		control-noreward	ImageDisplay2		0.0		
43	445.471	1.6	control-noreward	ChoiceDisplay	1	0.722	1	1
43	446.207	0.878	control-noreward	ChosenDisplay		0.0		
43	447.076	0.25	control-noreward	TurnDisplay				
43	447.327	0.75	control-noreward	OutcomeDisplay				
44	448.079		win-reward	ImageDisplay1		0.0		
44	450.319	0.75	win-reward	StartDisplay				
44	451.071		win-reward	ImageDisplay2		0.0		
44	454.08	1.6	win-reward	ChoiceDisplay	1	0.681	1	1
44	454.782	0.919	win-reward	ChosenDisplay		0.0		
44	455.685	0.25	win-reward	TurnDisplay				
44	455.936	0.75	win-reward	OutcomeDisplay				
45	456.688		loss-noreward	ImageDisplay1		0.0		
45	458.677	0.75	loss-noreward	StartDisplay				
45	459.429		loss-noreward	ImageDisplay2		0.0		
45	462.689	1.6	loss-noreward	ChoiceDisplay	1	0.482	1	1
45	463.19	1.118	loss-noreward	ChosenDisplay		0.0		
45	464.294	0.25	loss-noreward	TurnDisplay				
45	464.545	0.75	loss-noreward	OutcomeDisplay				
46	465.297		control-noreward	ImageDisplay1		0.0		
46	467.286	0.75	control-noreward	StartDisplay				
46	468.038		control-noreward	ImageDisplay2		0.0		
46	471.298	1.6	control-noreward	ChoiceDisplay	1	0.863	1	1
46	472.184	0.737	control-noreward	ChosenDisplay		0.0		
46	472.903	0.25	control-noreward	TurnDisplay				
46	473.154	0.75	control-noreward	OutcomeDisplay				
47	473.906		control-reward	ImageDisplay1		0.0		
47	476.146	0.75	control-reward	StartDisplay				
47	476.898		control-reward	ImageDisplay2		0.0		
47	479.907	1.6	control-reward	ChoiceDisplay	1	1.077	1	1
47	481.01	0.523	control-reward	ChosenDisplay		0.0		
47	481.512	0.25	control-reward	TurnDisplay				
47	481.763	0.75	control-reward	OutcomeDisplay				
48	482.515		win-reward	ImageDisplay1		0.0		
48	484.504	0.75	win-reward	StartDisplay				
48	485.256		win-reward	ImageDisplay2		0.0		
48	488.516	1.6	win-reward	ChoiceDisplay	1	0.672	1	1
48	489.201	0.928	win-reward	ChosenDisplay		0.0		
48	490.121	0.25	win-reward	TurnDisplay				
48	490.372	0.75	win-reward	OutcomeDisplay				
49	491.124		win-noreward	ImageDisplay1		0.0		
49	493.364	0.75	win-noreward	StartDisplay				
49	494.116		win-noreward	ImageDisplay2		0.0		
49	497.125	1.6	win-noreward	ChoiceDisplay	1	0.76	1	1
49	497.911	0.84	win-noreward	ChosenDisplay		0.0		
49	498.73	0.25	win-noreward	TurnDisplay				
49	498.981	0.75	win-noreward	OutcomeDisplay				
50	499.733		win-reward	ImageDisplay1		0.0		
50	501.973	0.75	win-reward	StartDisplay				
50	502.725		win-reward	ImageDisplay2		0.0		
50	505.734	1.6	win-reward	ChoiceDisplay	1	0.96	1	1
50	506.72	0.64	win-reward	ChosenDisplay		0.0		
50	507.339	0.25	win-reward	TurnDisplay				
50	507.59	0.75	win-reward	OutcomeDisplay				
51	508.342		win-noreward	ImageDisplay1		0.0		
51	510.331	0.75	win-noreward	StartDisplay				
51	511.083		win-noreward	ImageDisplay2		0.0		
51	514.343	1.6	win-noreward	ChoiceDisplay	1	0.916	1	1
51	515.279	0.684	win-noreward	ChosenDisplay		0.0		
51	515.948	0.25	win-noreward	TurnDisplay				
51	516.199	0.75	win-noreward	OutcomeDisplay				
52	516.951		win-reward	ImageDisplay1		0.0		
52	518.94	0.75	win-reward	StartDisplay				
52	519.692		win-reward	ImageDisplay2		0.0		
52	522.952	1.6	win-reward	ChoiceDisplay	1	1.103	1	1
52	524.072	0.497	win-reward	ChosenDisplay		0.0		
52	524.557	0.25	win-reward	TurnDisplay				
52	524.808	0.75	win-reward	OutcomeDisplay				
53	525.56		win-noreward	ImageDisplay1		0.0		
53	527.8	0.75	win-noreward	StartDisplay				
53	528.552		win-noreward	ImageDisplay2		0.0		
53	531.561	1.6	win-noreward	ChoiceDisplay	1	0.978	1	1
53	532.564	0.622	win-noreward	ChosenDisplay		0.0		
53	533.166	0.25	win-noreward	TurnDisplay				
53	533.417	0.75	win-noreward	OutcomeDisplay				
54	534.169		loss-noreward	ImageDisplay1		0.0		
54	536.158	0.75	loss-noreward	StartDisplay				
54	536.91		loss-noreward	ImageDisplay2		0.0		
54	540.17	1.6	loss-noreward	ChoiceDisplay		0.0		
54	541.758	0.0	loss-noreward	ChosenDisplay		0.0		
54	541.775	0.25	loss-noreward	TurnDisplay				
54	542.009	0.75	loss-noreward	OutcomeDisplay				
55	542.761		control-noreward	ImageDisplay1		0.0		
55	545.018	0.75	control-noreward	StartDisplay				
55	545.77		control-noreward	ImageDisplay2		0.0		
55	548.762	1.6	control-noreward	ChoiceDisplay	1	0.289	1	1
55	549.063	1.311	control-noreward	ChosenDisplay		0.0		
55	550.367	0.25	control-noreward	TurnDisplay				
55	550.618	0.75	control-noreward	OutcomeDisplay				
56	551.37		loss-reward	ImageDisplay1		0.0		
56	553.359	0.75	loss-reward	StartDisplay				
56	554.112		loss-reward	ImageDisplay2		0.0		
56	557.371	1.6	loss-reward	ChoiceDisplay	1	0.634	1	1
56	558.023	0.966	loss-reward	ChosenDisplay		0.0		
56	558.976	0.25	loss-reward	TurnDisplay				
56	559.227	0.75	loss-reward	OutcomeDisplay				
57	559.979		control-noreward	ImageDisplay1		0.0		
57	562.219	0.75	control-noreward	StartDisplay				
57	562.971		control-noreward	ImageDisplay2		0.0		
57	565.98	1.6	control-noreward	ChoiceDisplay	1	0.461	1	1
57	566.465	1.139	control-noreward	ChosenDisplay		0.0		
57	567.585	0.25	control-noreward	TurnDisplay				
57	567.836	0.75	control-noreward	OutcomeDisplay				
58	568.588		loss-noreward	ImageDisplay1		0.0		
58	570.828	0.75	loss-noreward	StartDisplay				
58	571.58		loss-noreward	ImageDisplay2		0.0		
58	574.589	1.6	loss-noreward	ChoiceDisplay	1	0.562	1	1
58	575.174	1.038	loss-noreward	ChosenDisplay		0.0		
58	576.194	0.25	loss-noreward	TurnDisplay				
58	576.445	0.75	loss-noreward	OutcomeDisplay				
59	577.197		loss-reward	ImageDisplay1		0.0		
59	579.437	0.75	loss-reward	StartDisplay				
59	580.189		loss-reward	ImageDisplay2		0.0		
59	583.198	1.6	loss-reward	ChoiceDisplay	1	0.655	1	1
59	583.867	0.945	loss-reward	ChosenDisplay		0.0		
59	584.803	0.25	loss-reward	TurnDisplay				
59	585.054	0.75	loss-reward	OutcomeDisplay				
60	585.806		loss-noreward	ImageDisplay1		0.0		
60	587.795	0.75	loss-noreward	StartDisplay				
60	588.548		loss-noreward	ImageDisplay2		0.0		
60	591.807	1.6	loss-noreward	ChoiceDisplay	1	0.403	1	1
60	592.225	1.197	loss-noreward	ChosenDisplay		0.0		
60	593.412	0.25	loss-noreward	TurnDisplay				
60	593.663	0.75	loss-noreward	OutcomeDisplay				
61	594.415		win-noreward	ImageDisplay1		0.0		
61	596.404	0.75	win-noreward	StartDisplay				
61	597.157		win-noreward	ImageDisplay2		0.0		
61	600.416	1.6	win-noreward	ChoiceDisplay	1	0.885	1	1
61	601.319	0.715	win-noreward	ChosenDisplay		0.0		
61	602.021	0.25	win-noreward	TurnDisplay				
61	602.272	0.75	win-noreward	OutcomeDisplay				
62	603.024		control-noreward	ImageDisplay1		0.0		
62	605.013	0.75	control-noreward	StartDisplay				
62	605.766		control-noreward	ImageDisplay2		0.0		
62	609.025	1.6	control-noreward	ChoiceDisplay	1	0.93	1	1
62	609.978	0.67	control-noreward	ChosenDisplay		0.0		
62	610.63	0.25	control-noreward	TurnDisplay				
62	610.881	0.75	control-noreward	OutcomeDisplay				
63	611.633		loss-reward	ImageDisplay1		0.0		
63	613.622	0.75	loss-reward	StartDisplay				
63	614.375		loss-reward	ImageDisplay2		0.0		
63	617.634	1.6	loss-reward	ChoiceDisplay	1	0.71	1	1
63	618.37	0.89	loss-reward	ChosenDisplay		0.0		
63	619.239	0.25	loss-reward	TurnDisplay				
63	619.49	0.75	loss-reward	OutcomeDisplay				
64	620.242		control-reward	ImageDisplay1		0.0		
64	622.231	0.75	control-reward	StartDisplay				
64	622.984		control-reward	ImageDisplay2		0.0		
64	626.243	1.6	control-reward	ChoiceDisplay	1	0.714	1	1
64	626.979	0.886	control-reward	ChosenDisplay		0.0		
64	627.848	0.25	control-reward	TurnDisplay				
64	628.099	0.75	control-reward	OutcomeDisplay				
65	628.851		win-noreward	ImageDisplay1		0.0		
65	631.091	0.75	win-noreward	StartDisplay				
65	631.843		win-noreward	ImageDisplay2		0.0		
65	634.852	1.6	win-noreward	ChoiceDisplay	1	0.957	1	1
65	635.822	0.643	win-noreward	ChosenDisplay		0.0		
65	636.457	0.25	win-noreward	TurnDisplay				
65	636.708	0.75	win-noreward	OutcomeDisplay				
66	637.46		win-noreward	ImageDisplay1		0.0		
66	639.449	0.75	win-noreward	StartDisplay				
66	640.202		win-noreward	ImageDisplay2		0.0		
66	643.461	1.6	win-noreward	ChoiceDisplay	1	0.904	1	1
66	644.381	0.696	win-noreward	ChosenDisplay		0.0		
66	645.066	0.25	win-noreward	TurnDisplay				
66	645.317	0.75	win-noreward	OutcomeDisplay				
67	646.069		loss-reward	ImageDisplay1		0.0		
67	648.058	0.75	loss-reward	StartDisplay				
67	648.811		loss-reward	ImageDisplay2		0.0		
67	652.07	1.6	loss-reward	ChoiceDisplay	1	0.443	1	1
67	652.538	1.157	loss-reward	ChosenDisplay		0.0		
67	653.675	0.25	loss-reward	TurnDisplay				
67	653.926	0.75	loss-reward	OutcomeDisplay				
68	654.678		control-reward	ImageDisplay1		0.0		
68	656.667	0.75	control-reward	StartDisplay				
68	657.42		control-reward	ImageDisplay2		0.0		
68	660.679	1.6	control-reward	ChoiceDisplay	1	0.879	1	1
68	661.582	0.721	control-reward	ChosenDisplay		0.0		
68	662.284	0.25	control-reward	TurnDisplay				
68	662.535	0.75	control-reward	OutcomeDisplay				
69	663.287		control-noreward	ImageDisplay1		0.0		
69	665.276	0.75	control-noreward	StartDisplay				
69	666.029		control-noreward	ImageDisplay2		0.0		
69	669.288	1.6	control-noreward	ChoiceDisplay	1	1.114	1	1
69	670.425	0.486	control-noreward	ChosenDisplay		0.0		
69	670.893	0.25	control-noreward	TurnDisplay				
69	671.144	0.75	control-noreward	OutcomeDisplay				
70	671.896		control-reward	ImageDisplay1		0.0		
70	673.885	0.75	control-reward	StartDisplay				
70	674.638		control-reward	ImageDisplay2		0.0		
70	677.897	1.6	control-reward	ChoiceDisplay	1	0.882	1	1
70	678.8	0.718	control-reward	ChosenDisplay		0.0		
70	679.502	0.25	control-reward	TurnDisplay				
70	679.753	0.75	control-reward	OutcomeDisplay				
71	680.505		control-noreward	ImageDisplay1		0.0		
71	682.745	0.75	control-noreward	StartDisplay				
71	683.497		control-noreward	ImageDisplay2		0.0		
71	686.506	1.6	control-noreward	ChoiceDisplay	1	0.877	1	1
71	687.409	0.723	control-noreward	ChosenDisplay		0.0		
71	688.111	0.25	control-noreward	TurnDisplay				
71	688.362	0.75	control-noreward	OutcomeDisplay				
72	689.114		win-noreward	ImageDisplay1		0.0		
72	691.103	0.75	win-noreward	StartDisplay				
72	691.856		win-noreward	ImageDisplay2		0.0		
72	695.115	1.6	win-noreward	ChoiceDisplay	1	0.795	1	1
72	695.934	0.805	win-noreward	ChosenDisplay		0.0		
72	696.72	0.25	win-noreward	TurnDisplay				
72	696.971	0.75	win-noreward	OutcomeDisplay				
73	697.723		win-reward	ImageDisplay1		0.0		
73	699.963	0.75	win-reward	StartDisplay				
73	700.715		win-reward	ImageDisplay2		0.0		
73	703.724	1.6	win-reward	ChoiceDisplay	1	0.743	1	1
73	704.493	0.857	win-reward	ChosenDisplay		0.0		
73	705.329	0.25	win-reward	TurnDisplay				
73	705.58	0.75	win-reward	OutcomeDisplay				
74	706.332		control-noreward	ImageDisplay1		0.0		
74	708.572	0.75	control-noreward	StartDisplay				
74	709.324		control-noreward	ImageDisplay2		0.0		
74	712.333	1.6	control-noreward	ChoiceDisplay	1	0.596	1	1
74	712.952	1.004	control-noreward	ChosenDisplay		0.0		
74	713.938	0.25	control-noreward	TurnDisplay				
74	714.189	0.75	control-noreward	OutcomeDisplay				
75	714.941		loss-reward	ImageDisplay1		0.0		
75	717.181	0.75	loss-reward	StartDisplay				
75	717.933		loss-reward	ImageDisplay2		0.0		
75	720.942	1.6	loss-reward	ChoiceDisplay	1	1.046	1	1
75	722.012	0.554	loss-reward	ChosenDisplay		0.0		
75	722.547	0.25	loss-reward	TurnDisplay				
75	722.798	0.75	loss-reward	OutcomeDisplay				
76	723.55		win-noreward	ImageDisplay1		0.0		
76	725.539	0.75	win-noreward	StartDisplay				
76	726.292		win-noreward	ImageDisplay2		0.0		
76	729.551	1.6	win-noreward	ChoiceDisplay	1	0.632	1	1
76	730.203	0.968	win-noreward	ChosenDisplay		0.0		
76	731.156	0.25	win-noreward	TurnDisplay				
76	731.407	0.75	win-noreward	OutcomeDisplay				
77	732.159		loss-noreward	ImageDisplay1		0.0		
77	734.148	0.75	loss-noreward	StartDisplay				
77	734.901		loss-noreward	ImageDisplay2		0.0		
77	738.16	1.6	loss-noreward	ChoiceDisplay	1	0.875	1	1
77	739.046	0.725	loss-noreward	ChosenDisplay		0.0		
77	739.765	0.25	loss-noreward	TurnDisplay				
77	740.016	0.75	loss-noreward	OutcomeDisplay				
78	740.768		win-noreward	ImageDisplay1		0.0		
78	742.757	0.75	win-noreward	StartDisplay				
78	743.51		win-noreward	ImageDisplay2		0.0		
78	746.769	1.6	win-noreward	ChoiceDisplay	1	1.172	1	1
78	747.956	0.428	win-noreward	ChosenDisplay		0.0		
78	748.374	0.25	win-noreward	TurnDisplay				
78	748.625	0.75	win-noreward	OutcomeDisplay				
79	749.377		loss-reward	ImageDisplay1		0.0		
79	751.617	0.75	loss-reward	StartDisplay				
79	752.369		loss-reward	ImageDisplay2		0.0		
79	755.378	1.6	loss-reward	ChoiceDisplay	1	0.716	1	1
79	756.114	0.884	loss-reward	ChosenDisplay		0.0		
79	756.983	0.25	loss-reward	TurnDisplay				
79	757.234	0.75	loss-reward	OutcomeDisplay				
80	757.986		win-reward	ImageDisplay1		0.0		
80	760.226	0.75	win-reward	StartDisplay				
80	760.978		win-reward	ImageDisplay2		0.0		
80	763.987	1.6	win-reward	ChoiceDisplay	1	0.961	1	1
80	764.974	0.639	win-reward	ChosenDisplay		0.0		
80	765.592	0.25	win-reward	TurnDisplay				
80	765.843	0.75	win-reward	OutcomeDisplay				
81	766.595		control-reward	ImageDisplay1		0.0		
81	768.584	0.75	control-reward	StartDisplay				
81	769.337		control-reward	ImageDisplay2		0.0		
81	772.596	1.6	control-reward	ChoiceDisplay	1	0.769	1	1
81	773.382	0.831	control-reward	ChosenDisplay		0.0		
81	774.201	0.25	control-reward	TurnDisplay				
81	774.452	0.75	control-reward	OutcomeDisplay				
82	775.204		loss-reward	ImageDisplay1		0.0		
82	777.193	0.75	loss-reward	StartDisplay				
82	777.946		loss-reward	ImageDisplay2		0.0		
82	781.205	1.6	loss-reward	ChoiceDisplay	1	0.471	1	1
82	781.69	1.129	loss-reward	ChosenDisplay		0.0		
82	782.81	0.25	loss-reward	TurnDisplay				
82	783.061	0.75	loss-reward	OutcomeDisplay				
83	783.813		win-reward	ImageDisplay1		0.0		
83	785.802	0.75	win-reward	StartDisplay				
83	786.555		win-reward	ImageDisplay2		0.0		
83	789.814	1.6	win-reward	ChoiceDisplay	1	0.662	1	1
83	790.5	0.938	win-reward	ChosenDisplay		0.0		
83	791.419	0.25	win-reward	TurnDisplay				
83	791.67	0.75	win-reward	OutcomeDisplay				
84	792.422		win-noreward	ImageDisplay1		0.0		
84	794.411	0.75	win-noreward	StartDisplay				
84	795.164		win-noreward	ImageDisplay2		0.0		
84	798.423	1.6	win-noreward	ChoiceDisplay	1	0.83	1	1
84	799.276	0.77	win-noreward	ChosenDisplay		0.0		
84	800.028	0.25	win-noreward	TurnDisplay				
84	800.279	0.75	win-noreward	OutcomeDisplay				
85	801.031		loss-noreward	ImageDisplay1		0.0		
85	803.02	0.75	loss-noreward	StartDisplay				
85	803.773		loss-noreward	ImageDisplay2		0.0		
85	807.032	1.6	loss-noreward	ChoiceDisplay	1	0.846	1	1
85	807.902	0.754	loss-noreward	ChosenDisplay		0.0		
85	808.637	0.25	loss-noreward	TurnDisplay				
85	808.888	0.75	loss-noreward	OutcomeDisplay				
86	809.64		win-reward	ImageDisplay1		0.0		
86	811.629	0.75	win-reward	StartDisplay				
86	812.382		win-reward	ImageDisplay2		0.0		
86	815.641	1.6	win-reward	ChoiceDisplay	1	0.921	1	1
86	816.577	0.679	win-reward	ChosenDisplay		0.0		
86	817.246	0.25	win-reward	TurnDisplay				
86	817.497	0.75	win-reward	OutcomeDisplay				
87	818.249		loss-reward	ImageDisplay1		0.0		
87	820.238	0.75	loss-reward	StartDisplay				
87	820.991		loss-reward	ImageDisplay2		0.0		
87	824.25	1.6	loss-reward	ChoiceDisplay	1	0.347	1	1
87	824.618	1.253	loss-reward	ChosenDisplay		0.0		
87	825.855	0.25	loss-reward	TurnDisplay				
87	826.106	0.75	loss-reward	OutcomeDisplay				
88	826.858		control-reward	ImageDisplay1		0.0		
88	828.847	0.75	control-reward	StartDisplay				
88	829.6		control-reward	ImageDisplay2		0.0		
88	832.859	1.6	control-reward	ChoiceDisplay	1	0.946	1	1
88	833.829	0.654	control-reward	ChosenDisplay		0.0		
88	834.464	0.25	control-reward	TurnDisplay				
88	834.715	0.75	control-reward	OutcomeDisplay				
89	835.467		win-reward	ImageDisplay1		0.0		
89	837.456	0.75	win-reward	StartDisplay				
89	838.209		win-reward	ImageDisplay2		0.0		
89	841.468	1.6	win-reward	ChoiceDisplay	1	0.919	1	1
89	842.404	0.681	win-reward	ChosenDisplay		0.0		
89	843.073	0.25	win-reward	TurnDisplay				
89	843.324	0.75	win-reward	OutcomeDisplay				
90	844.076		loss-noreward	ImageDisplay1		0.0		
90	846.316	0.75	loss-noreward	StartDisplay				
90	847.068		loss-noreward	ImageDisplay2		0.0		
90	850.077	1.6	loss-noreward	ChoiceDisplay	1	0.67	1	1
90	850.763	0.93	loss-noreward	ChosenDisplay		0.0		
90	851.682	0.25	loss-noreward	TurnDisplay				
90	851.933	0.75	loss-noreward	OutcomeDisplay				
91	852.685		control-reward	ImageDisplay1		0.0		
91	854.674	0.75	control-reward	StartDisplay				
91	855.427		control-reward	ImageDisplay2		0.0		
91	858.686	1.6	control-reward	ChoiceDisplay	1	0.757	1	1
91	859.455	0.843	control-reward	ChosenDisplay		0.0		
91	860.291	0.25	control-reward	TurnDisplay				
91	860.542	0.75	control-reward	OutcomeDisplay				
92	861.294		control-reward	ImageDisplay1		0.0		
92	863.534	0.75	control-reward	StartDisplay				
92	864.286		control-reward	ImageDisplay2		0.0		
92	867.295	1.6	control-reward	ChoiceDisplay	1	0.693	1	1
92	868.014	0.907	control-reward	ChosenDisplay		0.0		
92	868.9	0.25	control-reward	TurnDisplay				
92	869.151	0.75	control-reward	OutcomeDisplay				
93	869.903		loss-reward	ImageDisplay1		0.0		
93	871.892	0.75	loss-reward	StartDisplay				
93	872.645		loss-reward	ImageDisplay2		0.0		
93	875.904	1.6	loss-reward	ChoiceDisplay	1	0.265	1	1
93	876.188	1.335	loss-reward	ChosenDisplay		0.0		
93	877.509	0.25	loss-reward	TurnDisplay				
93	877.76	0.75	loss-reward	OutcomeDisplay				
94	878.512		loss-reward	ImageDisplay1		0.0		
94	880.501	0.75	loss-reward	StartDisplay				
94	881.254		loss-reward	ImageDisplay2		0.0		
94	884.513	1.6	loss-reward	ChoiceDisplay	1	1.326	1	1
94	885.851	0.274	loss-reward	ChosenDisplay		0.0		
94	886.118	0.25	loss-reward	TurnDisplay				
94	886.369	0.75	loss-reward	OutcomeDisplay				
95	887.121		control-noreward	ImageDisplay1		0.0		
95	889.361	0.75	control-noreward	StartDisplay				
95	890.113		control-noreward	ImageDisplay2		0.0		
95	893.122	1.6	control-noreward	ChoiceDisplay	1	0.959	1	1
95	894.109	0.641	control-noreward	ChosenDisplay		0.0		
95	894.727	0.25	control-noreward	TurnDisplay				
95	894.978	0.75	control-noreward	OutcomeDisplay				
