onset	duration	trial_type	response_time	stim_file	accuracy
77.961	1.0	go	0.66	Go_O	1.0
80.561	1.0	go	0.787	Go_X	0.0
83.094	1.0	go	0.428	Go_X	1.0
85.627	1.0	go	0.497	Go_O	1.0
88.16	1.0	go	0.462	Go_O	1.0
90.694	1.0	go	0.387	Go_X	1.0
93.227	0.25	stopsuccess	0.0	Go_O	1.0
95.76	1.0	go	0.545	Go_O	1.0
98.293	0.3	stopfail	0.52	Go_X	0.0
100.827	1.0	go	0.576	Go_X	1.0
103.36	1.0	go	0.697	Go_X	1.0
105.893	1.0	go	0.603	Go_O	1.0
108.426	0.25	stopsuccess	0.0	Go_O	1.0
110.96	1.0	go	0.369	Go_O	1.0
113.493	1.0	go	0.553	Go_X	1.0
116.026	0.3	stopfail	0.379	Go_X	0.0
118.559	0.25	stopsuccess	0.0	Go_O	1.0
121.093	1.0	go	0.397	Go_O	1.0
123.642	1.0	go	0.642	Go_X	1.0
126.176	0.3	stopsuccess	0.0	Go_X	1.0
128.709	1.0	go	0.66	Go_O	1.0
131.242	1.0	go	0.924	Go_X	1.0
133.775	0.35	stopfail	0.472	Go_O	0.0
136.309	1.0	go	0.88	Go_X	1.0
138.842	1.0	go	0.539	Go_O	1.0
141.375	0.3	stopsuccess	0.0	Go_X	1.0
143.908	1.0	go	0.482	Go_X	1.0
146.441	1.0	go	0.63	Go_O	1.0
148.975	0.35	stopsuccess	0.0	Go_O	1.0
151.508	1.0	go	0.473	Go_X	1.0
154.041	1.0	go	0.583	Go_O	1.0
156.574	1.0	go	0.527	Go_X	1.0
159.108	1.0	go	0.564	Go_O	1.0
161.641	1.0	go	0.639	Go_O	1.0
164.174	0.4	stopsuccess	0.0	Go_X	1.0
166.707	1.0	go	0.459	Go_X	1.0
169.241	1.0	go	0.585	Go_X	1.0
171.774	1.0	go	0.529	Go_O	1.0
174.307	1.0	go	0.582	Go_X	1.0
176.84	1.0	go	0.514	Go_O	1.0
179.374	0.45	stopsuccess	0.0	Go_O	1.0
181.923	1.0	go	0.495	Go_X	1.0
184.457	1.0	go	0.572	Go_O	1.0
186.99	1.0	go	0.629	Go_O	1.0
189.523	1.0	go	0.617	Go_X	1.0
192.056	1.0	go	0.859	Go_X	0.0
194.59	1.0	go	0.454	Go_O	1.0
197.123	0.5	stopfail	0.497	Go_X	0.0
199.656	1.0	go	0.544	Go_X	1.0
202.189	1.0	go	0.584	Go_O	1.0
204.722	0.45	stopfail	0.567	Go_O	0.0
207.256	1.0	go	0.614	Go_O	1.0
209.789	0.4	stopsuccess	0.0	Go_X	1.0
212.322	0.45	stopfail	0.563	Go_O	0.0
214.855	1.0	go	0.596	Go_X	1.0
217.389	1.0	go	0.737	Go_O	1.0
219.922	1.0	go	0.468	Go_X	1.0
222.455	1.0	go	0.749	Go_O	1.0
224.988	0.4	stopfail	0.483	Go_X	0.0
227.522	1.0	go	0.612	Go_X	1.0
230.055	0.35	stopsuccess	0.0	Go_O	1.0
232.588	1.0	go	0.547	Go_O	1.0
235.121	1.0	go	0.784	Go_X	1.0
237.655	1.0	go	0.637	Go_X	1.0
240.204	1.0	go	0.515	Go_O	1.0
242.738	1.0	go	0.588	Go_O	1.0
245.271	1.0	go	0.558	Go_X	1.0
247.804	1.0	go	0.703	Go_O	1.0
250.337	1.0	go	0.516	Go_X	1.0
252.871	1.0	go	0.638	Go_O	1.0
255.404	0.4	stopsuccess	0.0	Go_X	1.0
257.937	1.0	go	0.579	Go_X	1.0
260.47	1.0	go	0.686	Go_X	1.0
263.004	1.0	go	0.642	Go_O	1.0
265.553	0.45	stopsuccess	0.0	Go_O	1.0
268.087	1.0	go	0.493	Go_O	1.0
270.62	1.0	go	0.572	Go_X	1.0
273.153	1.0	go	0.599	Go_O	1.0
275.686	1.0	go	0.671	Go_X	1.0
278.22	1.0	go	0.61	Go_O	1.0
280.753	1.0	go	0.616	Go_X	1.0
283.286	0.5	stopfail	0.582	Go_X	0.0
285.819	1.0	go	0.656	Go_X	1.0
288.353	1.0	go	0.534	Go_O	1.0
290.902	0.45	stopsuccess	0.0	Go_O	1.0
293.436	1.0	go	0.497	Go_O	1.0
295.969	1.0	go	0.426	Go_X	1.0
298.502	0.5	stopsuccess	0.0	Go_X	1.0
301.035	1.0	go	0.493	Go_O	1.0
303.569	0.55	stopsuccess	0.0	Go_O	1.0
306.102	1.0	go	0.578	Go_X	1.0
308.635	1.0	go	0.623	Go_O	1.0
311.168	1.0	go	0.0	Go_X	0.0
313.701	1.0	go	0.713	Go_X	1.0
316.235	1.0	go	0.61	Go_O	1.0
318.768	0.6	stopfail	0.697	Go_X	0.0
321.301	0.55	stopsuccess	0.0	Go_O	1.0
323.834	1.0	go	0.821	Go_X	1.0
326.368	1.0	go	0.538	Go_O	1.0
328.901	0.6	stopfail	0.649	Go_X	0.0
331.434	1.0	go	0.577	Go_X	1.0
333.967	1.0	go	0.547	Go_O	1.0
336.501	1.0	go	0.0	Go_O	0.0
339.034	1.0	go	0.565	Go_X	1.0
341.567	1.0	go	0.759	Go_O	1.0
344.1	1.0	go	0.629	Go_X	1.0
346.634	0.55	stopfail	0.511	Go_O	0.0
349.183	1.0	go	0.606	Go_O	1.0
351.717	1.0	go	0.634	Go_X	1.0
354.25	1.0	go	0.533	Go_X	1.0
356.783	1.0	go	0.504	Go_O	1.0
359.316	1.0	go	0.0	Go_O	0.0
361.85	0.5	stopsuccess	0.0	Go_X	1.0
364.383	1.0	go	0.55	Go_X	1.0
366.916	1.0	go	0.504	Go_X	1.0
369.449	1.0	go	0.576	Go_O	1.0
371.982	1.0	go	0.815	Go_X	1.0
374.516	0.55	stopfail	0.681	Go_O	0.0
377.049	1.0	go	0.0	Go_O	0.0
379.582	1.0	go	0.434	Go_X	1.0
382.115	0.5	stopfail	0.518	Go_X	0.0
384.649	1.0	go	0.484	Go_O	1.0
387.182	0.45	stopsuccess	0.0	Go_O	1.0
389.715	1.0	go	0.505	Go_O	1.0
392.248	1.0	go	0.627	Go_X	1.0
394.782	1.0	go	0.538	Go_O	1.0
397.315	1.0	go	0.805	Go_X	1.0
399.848	1.0	go	0.563	Go_X	1.0
402.382	1.0	go	0.726	Go_O	1.0
404.931	1.0	go	0.776	Go_O	1.0
407.464	0.5	stopfail	0.594	Go_X	0.0
409.998	1.0	go	0.565	Go_X	1.0
412.531	1.0	go	0.4	Go_O	1.0
415.064	1.0	go	0.53	Go_X	1.0
417.597	0.45	stopsuccess	0.0	Go_O	1.0
420.131	1.0	go	0.461	Go_X	1.0
422.664	1.0	go	0.672	Go_O	1.0
425.197	1.0	go	0.519	Go_X	1.0
427.73	1.0	go	0.571	Go_O	1.0
430.264	0.5	stopsuccess	0.0	Go_X	1.0
432.813	1.0	go	0.632	Go_X	1.0
435.347	1.0	go	0.5	Go_O	1.0
437.88	0.55	stopfail	0.592	Go_O	0.0
440.413	1.0	go	0.49	Go_X	1.0
442.946	1.0	go	0.435	Go_O	1.0
445.48	0.5	stopfail	0.501	Go_X	0.0
448.029	1.0	go	0.536	Go_X	1.0
450.563	1.0	go	0.557	Go_O	1.0
453.096	0.45	stopsuccess	0.0	Go_O	1.0
455.629	1.0	go	0.547	Go_O	1.0
458.162	1.0	go	0.469	Go_X	1.0
460.696	1.0	go	0.569	Go_X	1.0
463.229	1.0	go	0.626	Go_O	1.0
465.762	1.0	go	0.579	Go_O	1.0
468.295	1.0	go	0.472	Go_X	1.0
470.829	0.5	stopfail	0.548	Go_X	0.0
473.378	1.0	go	0.599	Go_X	1.0
475.912	0.45	stopsuccess	0.0	Go_O	1.0
478.445	1.0	go	0.581	Go_O	1.0
480.978	1.0	go	0.612	Go_O	1.0
483.511	1.0	go	0.786	Go_X	1.0
486.045	1.0	go	0.546	Go_O	1.0
488.578	1.0	go	0.611	Go_X	1.0
491.111	0.5	stopsuccess	0.0	Go_X	1.0
493.644	1.0	go	0.757	Go_O	1.0
496.178	1.0	go	0.577	Go_X	1.0
498.727	1.0	go	0.607	Go_X	1.0
501.261	0.55	stopsuccess	0.0	Go_O	1.0
503.794	0.6	stopsuccess	0.0	Go_X	1.0
506.327	0.65	stopfail	0.612	Go_O	0.0
508.86	1.0	go	0.763	Go_O	1.0
511.394	0.6	stopfail	0.615	Go_X	0.0
513.927	1.0	go	0.839	Go_X	1.0
516.46	1.0	go	0.0	Go_O	0.0
518.993	1.0	go	0.626	Go_X	1.0
521.526	1.0	go	0.533	Go_O	1.0
524.06	1.0	go	0.641	Go_O	1.0
526.593	1.0	go	0.844	Go_X	1.0
529.126	1.0	go	0.913	Go_X	1.0
531.659	1.0	go	0.668	Go_O	1.0
534.193	0.55	stopfail	0.679	Go_O	0.0
536.726	1.0	go	0.821	Go_X	1.0
539.259	1.0	go	0.677	Go_O	1.0
541.792	0.5	stopfail	0.397	Go_X	0.0
544.326	1.0	go	0.378	Go_X	1.0
546.859	1.0	go	0.574	Go_O	1.0
549.392	1.0	go	0.679	Go_X	1.0
551.925	1.0	go	0.746	Go_O	1.0
554.459	1.0	go	0.653	Go_O	1.0
557.008	0.45	stopsuccess	0.0	Go_O	1.0
559.542	1.0	go	0.828	Go_X	1.0
562.075	1.0	go	0.0	Go_X	0.0
564.608	1.0	go	0.85	Go_O	1.0
567.141	0.5	stopsuccess	0.0	Go_X	1.0
569.675	1.0	go	0.821	Go_X	1.0
572.208	0.55	stopsuccess	0.0	Go_O	1.0
574.741	1.0	go	0.672	Go_O	1.0
577.274	1.0	go	0.0	Go_X	0.0
579.808	1.0	go	0.745	Go_O	1.0
582.357	1.0	go	0.558	Go_O	1.0
584.891	1.0	go	0.722	Go_X	1.0
587.424	1.0	go	0.683	Go_X	1.0
589.957	1.0	go	0.631	Go_O	1.0
592.49	0.6	stopfail	0.751	Go_X	0.0
595.024	1.0	go	0.874	Go_O	1.0
597.557	1.0	go	0.994	Go_X	1.0
600.09	1.0	go	0.466	Go_X	0.0
602.623	1.0	go	0.542	Go_O	1.0
605.157	0.55	stopfail	0.576	Go_O	0.0
607.706	1.0	go	0.479	Go_O	1.0
610.24	0.5	stopfail	0.627	Go_X	0.0
612.773	1.0	go	0.707	Go_X	1.0
615.306	1.0	go	0.685	Go_O	1.0
617.839	0.45	stopsuccess	0.0	Go_O	1.0
620.373	1.0	go	0.758	Go_X	1.0
622.906	1.0	go	0.842	Go_X	1.0
625.439	1.0	go	0.612	Go_O	1.0
627.972	1.0	go	0.615	Go_O	1.0
630.506	1.0	go	0.613	Go_X	1.0
633.055	1.0	go	0.0	Go_O	0.0
635.589	1.0	go	0.608	Go_X	1.0
638.122	1.0	go	0.578	Go_O	1.0
640.655	1.0	go	0.0	Go_X	0.0
643.188	1.0	go	0.861	Go_O	1.0
645.722	0.5	stopsuccess	0.0	Go_X	1.0
648.255	1.0	go	0.595	Go_X	1.0
650.788	1.0	go	0.755	Go_O	1.0
653.321	0.55	stopsuccess	0.0	Go_O	1.0
655.854	1.0	go	0.803	Go_X	1.0
658.388	0.6	stopsuccess	0.0	Go_X	1.0
660.921	1.0	go	0.569	Go_O	1.0
663.454	1.0	go	0.0	Go_X	0.0
665.987	0.65	stopfail	0.636	Go_O	0.0
668.521	1.0	go	0.711	Go_O	1.0
671.054	0.6	stopfail	0.606	Go_X	0.0
673.587	1.0	go	0.756	Go_X	1.0
676.12	1.0	go	0.675	Go_O	1.0
678.654	1.0	go	0.565	Go_X	1.0
681.187	0.55	stopfail	0.682	Go_O	0.0
683.72	1.0	go	0.558	Go_O	1.0
686.253	1.0	go	0.836	Go_X	1.0
688.786	1.0	go	0.813	Go_O	1.0
691.32	1.0	go	0.593	Go_X	1.0
693.853	0.5	stopfail	0.773	Go_X	0.0
696.386	1.0	go	0.884	Go_X	1.0
698.919	1.0	go	0.928	Go_O	1.0
701.453	0.45	stopsuccess	0.0	Go_O	1.0
703.986	1.0	go	0.0	Go_O	0.0
706.519	1.0	go	0.874	Go_X	1.0
709.052	1.0	go	0.672	Go_O	1.0
711.586	1.0	go	0.629	Go_X	1.0
714.119	0.5	stopsuccess	0.0	Go_X	1.0
716.652	1.0	go	0.663	Go_X	1.0
719.185	0.55	stopsuccess	0.0	Go_O	1.0
721.719	1.0	go	0.0	Go_O	0.0
724.268	1.0	go	0.0	Go_X	0.0
726.802	0.6	stopfail	0.638	Go_X	0.0
729.335	1.0	go	0.724	Go_O	1.0
731.868	1.0	go	0.873	Go_X	1.0
734.401	1.0	go	0.715	Go_O	1.0
736.935	1.0	go	0.63	Go_X	1.0
739.468	0.55	stopfail	0.642	Go_O	0.0
742.001	1.0	go	0.483	Go_O	1.0
744.534	0.5	stopsuccess	0.0	Go_X	1.0
747.068	1.0	go	0.649	Go_O	1.0
749.617	1.0	go	0.572	Go_X	1.0
752.151	1.0	go	0.756	Go_X	1.0
754.684	1.0	go	0.609	Go_O	1.0
757.217	1.0	go	0.747	Go_O	1.0
759.75	1.0	go	0.95	Go_X	1.0
762.284	0.55	stopfail	0.634	Go_O	0.0
764.817	1.0	go	0.577	Go_X	1.0
767.35	1.0	go	0.658	Go_O	1.0
769.883	0.5	stopsuccess	0.0	Go_X	1.0
772.416	1.0	go	0.636	Go_X	1.0
774.95	1.0	go	0.632	Go_O	1.0
777.483	0.55	stopfail	0.529	Go_O	0.0
780.016	1.0	go	0.719	Go_O	1.0
782.549	1.0	go	0.555	Go_X	1.0
785.083	1.0	go	0.529	Go_O	1.0
787.616	1.0	go	0.456	Go_X	1.0
790.149	0.5	stopfail	0.433	Go_X	0.0
792.682	1.0	go	0.579	Go_O	1.0
795.216	0.45	stopsuccess	0.0	Go_O	1.0
797.749	1.0	go	0.581	Go_X	1.0
800.282	1.0	go	0.982	Go_X	1.0
802.815	1.0	go	0.597	Go_O	1.0
805.349	1.0	go	0.532	Go_X	1.0
807.898	1.0	go	0.486	Go_O	1.0
810.432	0.5	stopfail	0.42	Go_X	0.0
812.965	1.0	go	0.641	Go_O	1.0
815.498	1.0	go	0.818	Go_X	1.0
818.031	0.45	stopsuccess	0.0	Go_O	1.0
820.565	0.5	stopfail	0.379	Go_X	0.0
823.098	1.0	go	0.821	Go_O	1.0
825.631	1.0	go	0.597	Go_X	1.0
828.164	1.0	go	0.526	Go_X	1.0
830.697	1.0	go	0.55	Go_O	1.0
833.231	0.45	stopsuccess	0.0	Go_O	1.0
835.764	1.0	go	0.645	Go_X	1.0
