onset	duration	trial_type	response_time	stim_file	accuracy
37.06	1.0	go	0.0	Go_X	0.0
39.651	1.0	go	0.41	Go_O	1.0
42.175	1.0	go	0.466	Go_X	1.0
44.7	1.0	go	0.281	Go_O	1.0
47.224	1.0	go	0.363	Go_X	1.0
49.748	1.0	go	0.387	Go_O	1.0
52.272	0.25	stopsuccess	0.0	Go_O	1.0
54.796	1.0	go	0.454	Go_O	1.0
57.321	0.3	stopfail	0.274	Go_X	0.0
59.845	1.0	go	0.296	Go_X	1.0
62.369	1.0	go	0.355	Go_X	1.0
64.893	1.0	go	0.54	Go_O	1.0
67.418	0.25	stopfail	0.352	Go_O	0.0
69.942	1.0	go	0.325	Go_O	1.0
72.466	1.0	go	0.39	Go_X	1.0
74.99	0.2	stopfail	0.29	Go_X	0.0
77.514	0.15	stopsuccess	0.0	Go_O	1.0
80.039	1.0	go	0.502	Go_X	1.0
82.563	1.0	go	0.323	Go_O	1.0
85.087	0.2	stopsuccess	0.0	Go_X	1.0
87.611	1.0	go	0.459	Go_O	1.0
90.136	1.0	go	0.347	Go_X	1.0
92.66	0.25	stopfail	0.41	Go_O	0.0
95.184	1.0	go	0.399	Go_O	1.0
97.708	1.0	go	0.281	Go_X	1.0
100.232	0.2	stopsuccess	0.0	Go_X	1.0
102.757	1.0	go	0.479	Go_O	1.0
105.281	1.0	go	0.444	Go_X	1.0
107.805	0.25	stopsuccess	0.0	Go_O	1.0
110.329	1.0	go	0.407	Go_O	1.0
112.854	1.0	go	0.346	Go_X	1.0
115.378	1.0	go	0.452	Go_O	1.0
117.902	1.0	go	0.39	Go_X	0.0
120.426	1.0	go	0.384	Go_X	1.0
122.95	0.3	stopfail	0.37	Go_X	0.0
125.475	1.0	go	0.373	Go_O	1.0
127.999	1.0	go	0.43	Go_O	1.0
130.523	1.0	go	0.405	Go_X	1.0
133.047	1.0	go	0.425	Go_O	1.0
135.572	1.0	go	0.425	Go_X	1.0
138.096	0.25	stopsuccess	0.0	Go_O	1.0
140.62	1.0	go	0.396	Go_O	1.0
143.144	1.0	go	0.337	Go_X	1.0
145.669	1.0	go	0.422	Go_O	1.0
148.193	1.0	go	0.467	Go_X	1.0
150.717	1.0	go	0.599	Go_X	1.0
153.241	1.0	go	0.446	Go_O	1.0
155.765	0.3	stopsuccess	0.0	Go_X	1.0
158.29	1.0	go	0.42	Go_X	1.0
160.814	1.0	go	0.44	Go_O	1.0
163.338	0.35	stopfail	0.467	Go_O	0.0
165.862	1.0	go	0.567	Go_X	1.0
168.387	0.3	stopfail	0.446	Go_X	0.0
170.911	0.25	stopsuccess	0.0	Go_O	1.0
173.435	1.0	go	0.338	Go_O	1.0
175.959	1.0	go	0.398	Go_X	1.0
178.483	1.0	go	0.512	Go_O	1.0
181.008	1.0	go	0.419	Go_O	1.0
183.532	0.3	stopfail	0.351	Go_X	0.0
186.056	1.0	go	0.363	Go_X	1.0
188.58	0.25	stopfail	0.366	Go_O	0.0
191.105	1.0	go	0.402	Go_X	1.0
193.629	1.0	go	0.537	Go_O	1.0
196.153	1.0	go	0.399	Go_X	1.0
198.677	1.0	go	0.37	Go_O	1.0
201.201	1.0	go	0.362	Go_O	1.0
203.726	1.0	go	0.309	Go_X	1.0
206.25	1.0	go	0.302	Go_X	1.0
208.774	1.0	go	0.502	Go_O	1.0
211.298	1.0	go	0.472	Go_O	1.0
213.823	0.2	stopsuccess	0.0	Go_X	1.0
216.347	1.0	go	0.448	Go_X	1.0
218.871	1.0	go	0.489	Go_O	1.0
221.395	1.0	go	0.42	Go_X	1.0
223.919	0.25	stopsuccess	0.0	Go_O	1.0
226.444	1.0	go	0.383	Go_X	1.0
228.968	1.0	go	0.328	Go_O	1.0
231.492	1.0	go	0.387	Go_X	1.0
234.016	1.0	go	0.399	Go_O	1.0
236.541	1.0	go	0.297	Go_X	1.0
239.065	1.0	go	0.465	Go_O	1.0
241.589	0.3	stopfail	0.461	Go_X	0.0
244.113	1.0	go	0.471	Go_O	1.0
246.637	1.0	go	0.355	Go_X	1.0
249.162	0.25	stopfail	0.467	Go_O	0.0
251.686	1.0	go	0.487	Go_O	1.0
254.21	1.0	go	0.375	Go_X	1.0
256.734	0.2	stopfail	0.355	Go_X	0.0
259.259	1.0	go	0.383	Go_O	1.0
261.783	0.15	stopsuccess	0.0	Go_O	1.0
264.307	1.0	go	0.404	Go_X	1.0
266.831	1.0	go	0.373	Go_X	1.0
269.356	1.0	go	0.421	Go_O	1.0
271.88	1.0	go	0.33	Go_O	1.0
274.404	1.0	go	0.417	Go_X	1.0
276.928	0.2	stopfail	0.413	Go_X	0.0
279.452	0.15	stopfail	0.318	Go_O	0.0
281.977	1.0	go	0.408	Go_O	1.0
284.501	1.0	go	0.509	Go_X	1.0
287.025	0.1	stopsuccess	0.0	Go_X	1.0
289.549	1.0	go	0.465	Go_O	1.0
292.074	1.0	go	0.373	Go_X	1.0
294.598	1.0	go	0.583	Go_O	1.0
297.122	1.0	go	0.65	Go_X	1.0
299.646	1.0	go	0.376	Go_X	1.0
302.17	1.0	go	0.359	Go_O	1.0
304.695	0.15	stopsuccess	0.0	Go_O	1.0
307.219	1.0	go	0.345	Go_X	1.0
309.743	1.0	go	0.516	Go_O	1.0
312.267	1.0	go	0.363	Go_O	1.0
314.792	1.0	go	0.376	Go_X	1.0
317.316	1.0	go	0.316	Go_X	1.0
319.84	0.2	stopfail	0.385	Go_X	0.0
322.364	1.0	go	0.38	Go_O	1.0
324.888	1.0	go	0.395	Go_O	1.0
327.413	1.0	go	0.463	Go_X	1.0
329.937	1.0	go	0.359	Go_X	1.0
332.461	0.15	stopsuccess	0.0	Go_O	1.0
334.985	1.0	go	0.408	Go_O	1.0
337.51	1.0	go	0.391	Go_O	1.0
340.034	0.2	stopfail	0.36	Go_X	0.0
342.558	1.0	go	0.553	Go_X	1.0
345.082	0.15	stopsuccess	0.0	Go_O	1.0
347.606	1.0	go	0.388	Go_X	1.0
350.131	1.0	go	0.819	Go_O	1.0
352.655	1.0	go	0.36	Go_X	1.0
355.179	1.0	go	0.364	Go_O	1.0
357.703	1.0	go	0.387	Go_X	1.0
360.228	1.0	go	0.399	Go_O	1.0
362.752	1.0	go	0.461	Go_O	1.0
365.276	0.2	stopfail	0.37	Go_X	0.0
367.8	1.0	go	0.473	Go_X	1.0
370.324	1.0	go	0.483	Go_O	1.0
372.849	1.0	go	0.448	Go_X	1.0
375.373	0.15	stopsuccess	0.0	Go_O	1.0
377.897	1.0	go	0.362	Go_O	1.0
380.421	1.0	go	0.34	Go_X	1.0
382.946	1.0	go	0.383	Go_X	1.0
385.47	1.0	go	0.422	Go_O	1.0
387.994	0.2	stopfail	0.31	Go_X	0.0
390.518	1.0	go	0.348	Go_X	1.0
393.043	1.0	go	0.474	Go_O	1.0
395.567	0.15	stopsuccess	0.0	Go_O	1.0
398.091	1.0	go	0.336	Go_O	1.0
400.615	1.0	go	0.359	Go_X	1.0
403.139	0.2	stopsuccess	0.0	Go_X	1.0
405.664	1.0	go	0.399	Go_O	1.0
408.188	1.0	go	0.614	Go_X	1.0
410.712	0.25	stopsuccess	0.0	Go_O	1.0
413.236	1.0	go	0.388	Go_O	1.0
415.761	1.0	go	0.361	Go_X	1.0
418.285	1.0	go	0.684	Go_O	1.0
420.809	1.0	go	0.322	Go_X	1.0
423.333	1.0	go	0.382	Go_X	1.0
425.857	1.0	go	0.338	Go_O	1.0
428.382	0.3	stopsuccess	0.0	Go_X	1.0
430.906	1.0	go	0.407	Go_O	1.0
433.43	0.35	stopfail	0.452	Go_O	0.0
435.954	1.0	go	0.402	Go_X	1.0
438.479	1.0	go	0.39	Go_X	1.0
441.003	1.0	go	0.771	Go_O	1.0
443.527	1.0	go	0.335	Go_X	1.0
446.051	1.0	go	0.307	Go_O	1.0
448.575	0.3	stopfail	0.337	Go_X	0.0
451.1	1.0	go	0.338	Go_O	1.0
453.624	1.0	go	0.324	Go_X	1.0
456.148	1.0	go	0.312	Go_X	1.0
458.672	0.25	stopsuccess	0.0	Go_O	1.0
461.197	0.3	stopfail	0.39	Go_X	0.0
463.721	0.25	stopsuccess	0.0	Go_O	1.0
466.245	1.0	go	0.47	Go_O	1.0
468.769	0.3	stopfail	0.378	Go_X	0.0
471.293	1.0	go	0.369	Go_X	1.0
473.818	1.0	go	0.401	Go_O	1.0
476.342	1.0	go	0.39	Go_X	1.0
478.866	1.0	go	0.469	Go_O	1.0
481.39	1.0	go	0.305	Go_O	1.0
483.915	1.0	go	0.416	Go_X	1.0
486.439	1.0	go	0.47	Go_O	1.0
488.963	1.0	go	0.338	Go_X	1.0
491.487	0.25	stopfail	0.333	Go_O	0.0
494.011	1.0	go	0.271	Go_X	1.0
496.536	1.0	go	0.406	Go_O	1.0
499.06	0.2	stopfail	0.316	Go_X	0.0
501.584	1.0	go	0.388	Go_X	1.0
504.108	1.0	go	0.452	Go_O	1.0
506.633	1.0	go	0.494	Go_O	1.0
509.157	1.0	go	0.363	Go_X	1.0
511.681	1.0	go	0.529	Go_X	1.0
514.205	0.15	stopsuccess	0.0	Go_O	1.0
516.73	1.0	go	0.385	Go_O	1.0
519.254	1.0	go	0.359	Go_X	1.0
521.778	1.0	go	0.481	Go_O	1.0
524.302	0.2	stopfail	0.366	Go_X	0.0
526.826	1.0	go	0.618	Go_X	1.0
529.351	0.15	stopsuccess	0.0	Go_O	1.0
531.875	1.0	go	0.413	Go_O	1.0
534.399	1.0	go	0.688	Go_X	1.0
536.923	1.0	go	0.73	Go_O	1.0
539.448	1.0	go	0.447	Go_X	1.0
541.972	1.0	go	0.472	Go_O	1.0
544.496	1.0	go	0.342	Go_X	1.0
547.02	1.0	go	0.386	Go_O	1.0
549.544	0.2	stopfail	0.417	Go_X	0.0
552.069	1.0	go	0.391	Go_X	1.0
554.593	1.0	go	0.362	Go_O	1.0
557.117	1.0	go	0.341	Go_O	1.0
559.641	1.0	go	0.44	Go_X	1.0
562.166	0.15	stopsuccess	0.0	Go_O	1.0
564.69	1.0	go	0.433	Go_X	1.0
567.214	0.2	stopsuccess	0.0	Go_X	1.0
569.738	1.0	go	0.46	Go_O	1.0
572.262	1.0	go	0.476	Go_O	1.0
574.787	0.25	stopsuccess	0.0	Go_O	1.0
577.311	1.0	go	0.347	Go_X	1.0
579.835	1.0	go	0.595	Go_O	1.0
582.359	1.0	go	0.501	Go_X	1.0
584.884	1.0	go	0.356	Go_X	1.0
587.408	1.0	go	0.759	Go_O	1.0
589.932	1.0	go	0.396	Go_X	1.0
592.456	1.0	go	0.479	Go_O	1.0
594.98	1.0	go	0.379	Go_O	1.0
597.505	1.0	go	0.333	Go_X	1.0
600.029	1.0	go	0.682	Go_O	1.0
602.553	0.3	stopfail	0.61	Go_X	0.0
605.077	1.0	go	0.424	Go_X	1.0
607.602	1.0	go	0.461	Go_O	1.0
610.126	0.25	stopsuccess	0.0	Go_O	1.0
612.65	1.0	go	0.417	Go_X	1.0
615.174	0.3	stopsuccess	0.0	Go_X	1.0
617.699	1.0	go	0.613	Go_O	1.0
620.223	1.0	go	0.668	Go_X	1.0
622.747	0.35	stopsuccess	0.0	Go_O	1.0
625.271	1.0	go	0.466	Go_O	1.0
627.795	0.4	stopfail	0.557	Go_X	0.0
630.32	1.0	go	0.348	Go_X	1.0
632.844	1.0	go	0.542	Go_O	1.0
635.368	1.0	go	0.578	Go_X	1.0
637.892	0.35	stopsuccess	0.0	Go_O	1.0
640.417	1.0	go	0.664	Go_X	1.0
642.941	1.0	go	0.474	Go_O	1.0
645.465	1.0	go	0.387	Go_X	1.0
647.989	1.0	go	0.478	Go_O	1.0
650.513	0.4	stopfail	0.572	Go_X	0.0
653.038	1.0	go	0.378	Go_O	1.0
655.562	1.0	go	0.428	Go_X	1.0
658.086	0.35	stopfail	0.399	Go_O	0.0
660.61	1.0	go	0.414	Go_O	1.0
663.135	1.0	go	0.367	Go_X	1.0
665.659	1.0	go	0.51	Go_X	1.0
668.183	1.0	go	0.334	Go_O	1.0
670.707	0.3	stopfail	0.415	Go_X	0.0
673.231	1.0	go	0.406	Go_O	1.0
675.756	0.25	stopfail	0.451	Go_O	0.0
678.28	1.0	go	0.348	Go_X	1.0
680.804	1.0	go	0.421	Go_X	1.0
683.328	0.2	stopfail	0.393	Go_X	0.0
685.853	1.0	go	0.602	Go_O	1.0
688.377	1.0	go	0.461	Go_O	1.0
690.901	1.0	go	0.416	Go_X	1.0
693.425	1.0	go	0.509	Go_O	1.0
695.949	0.15	stopsuccess	0.0	Go_O	1.0
698.474	1.0	go	0.366	Go_X	1.0
700.998	0.2	stopsuccess	0.0	Go_X	1.0
703.522	1.0	go	0.442	Go_O	1.0
706.046	1.0	go	0.606	Go_X	1.0
708.571	1.0	go	0.421	Go_O	1.0
711.095	1.0	go	0.516	Go_X	1.0
713.619	1.0	go	0.395	Go_X	1.0
716.143	1.0	go	0.44	Go_O	1.0
718.668	0.25	stopfail	0.507	Go_O	0.0
721.192	1.0	go	0.51	Go_X	1.0
723.716	1.0	go	0.357	Go_O	1.0
726.24	0.2	stopsuccess	0.0	Go_X	1.0
728.764	1.0	go	0.413	Go_X	1.0
731.289	1.0	go	0.407	Go_O	1.0
733.813	0.25	stopfail	0.424	Go_O	0.0
736.337	1.0	go	0.598	Go_X	1.0
738.861	1.0	go	0.51	Go_O	1.0
741.386	1.0	go	0.605	Go_O	1.0
743.91	1.0	go	0.726	Go_X	1.0
746.434	0.2	stopfail	0.316	Go_X	0.0
748.958	1.0	go	0.336	Go_X	1.0
751.482	0.15	stopsuccess	0.0	Go_O	1.0
754.007	1.0	go	0.441	Go_O	1.0
756.531	1.0	go	0.494	Go_O	1.0
759.055	1.0	go	0.421	Go_X	1.0
761.579	1.0	go	0.49	Go_X	1.0
764.104	1.0	go	0.491	Go_O	1.0
766.628	0.2	stopsuccess	0.0	Go_X	1.0
769.152	1.0	go	0.392	Go_X	1.0
771.676	1.0	go	0.43	Go_O	1.0
774.2	0.25	stopsuccess	0.0	Go_O	1.0
776.725	0.3	stopfail	0.35	Go_X	0.0
779.249	1.0	go	0.0	Go_O	0.0
781.773	1.0	go	0.293	Go_X	1.0
784.297	1.0	go	0.329	Go_O	1.0
786.822	1.0	go	0.329	Go_X	1.0
789.346	0.25	stopfail	0.415	Go_O	0.0
791.87	1.0	go	0.456	Go_O	1.0
