onset	duration	trial_type	response_time	stim_file	accuracy
0.5240000000000009	1.0	go	0.943	Go_X	1.0
3.0479999999999947	1.0	go	0.398	Go_O	1.0
5.571999999999996	1.0	go	0.314	Go_X	1.0
8.095999999999997	1.0	go	0.287	Go_O	1.0
10.619999999999997	1.0	go	0.32	Go_X	1.0
13.145000000000003	1.0	go	0.232	Go_O	1.0
15.669000000000004	0.25	stopfail	0.237	Go_O	0.0
18.19299999999999	1.0	go	0.558	Go_X	1.0
20.71699999999999	0.2	stopfail	0.449	Go_X	0.0
23.240999999999993	1.0	go	0.283	Go_O	1.0
25.769	1.0	go	0.407	Go_X	1.0
28.29	1.0	go	0.392	Go_O	1.0
30.814	0.15	stopsuccess	0.0	Go_O	1.0
33.338	1.0	go	0.273	Go_X	1.0
35.862	1.0	go	0.251	Go_O	1.0
38.38699999999999	0.2	stopfail	0.368	Go_X	0.0
40.910999999999994	0.15	stopfail	0.311	Go_O	0.0
43.45199999999999	1.0	go	0.302	Go_O	1.0
45.993	1.0	go	0.288	Go_X	1.0
48.517	0.1	stopsuccess	0.0	Go_X	1.0
51.058	1.0	go	0.719	Go_O	1.0
53.582	1.0	go	0.266	Go_X	1.0
56.106	0.15	stopfail	0.174	Go_O	0.0
58.63	1.0	go	0.348	Go_O	1.0
61.154	1.0	go	0.228	Go_X	1.0
63.678999999999995	0.1	stopsuccess	0.0	Go_X	1.0
66.22	1.0	go	0.216	Go_O	1.0
68.744	1.0	go	0.423	Go_X	0.0
71.268	0.15	stopfail	0.301	Go_O	0.0
73.792	1.0	go	0.366	Go_O	1.0
76.316	1.0	go	0.264	Go_X	1.0
78.84100000000001	1.0	go	0.623	Go_X	1.0
81.36500000000001	1.0	go	0.478	Go_O	1.0
83.88900000000001	1.0	go	0.34	Go_X	1.0
86.41300000000001	0.1	stopsuccess	0.0	Go_X	1.0
88.95400000000001	1.0	go	0.482	Go_O	1.0
91.47800000000001	1.0	go	0.296	Go_X	1.0
94.00200000000001	1.0	go	0.286	Go_O	1.0
96.52700000000002	1.0	go	0.409	Go_O	0.0
99.05100000000002	1.0	go	0.292	Go_X	1.0
101.59200000000001	0.15	stopfail	0.254	Go_O	0.0
104.13300000000001	1.0	go	0.51	Go_O	1.0
106.674	1.0	go	0.255	Go_X	1.0
109.214	1.0	go	0.386	Go_O	1.0
111.739	1.0	go	0.265	Go_X	1.0
114.263	1.0	go	0.464	Go_O	1.0
116.787	1.0	go	0.407	Go_X	1.0
119.311	0.1	stopsuccess	0.0	Go_X	1.0
121.83500000000001	1.0	go	0.477	Go_O	1.0
124.376	1.0	go	0.313	Go_X	1.0
126.9	0.15	stopsuccess	0.0	Go_O	1.0
129.425	1.0	go	0.415	Go_X	1.0
131.966	0.2	stopsuccess	0.0	Go_X	1.0
134.507	0.25	stopfail	0.315	Go_O	0.0
137.047	1.0	go	0.358	Go_O	0.0
139.572	1.0	go	0.739	Go_O	1.0
142.096	1.0	go	0.29	Go_X	1.0
144.62	1.0	go	0.268	Go_X	0.0
147.144	0.2	stopsuccess	0.0	Go_X	1.0
149.668	1.0	go	0.344	Go_O	1.0
152.193	0.25	stopsuccess	0.0	Go_O	1.0
154.717	1.0	go	0.64	Go_X	1.0
157.241	1.0	go	0.376	Go_O	1.0
159.76500000000001	1.0	go	0.56	Go_X	1.0
162.28900000000002	1.0	go	0.364	Go_O	1.0
164.814	1.0	go	0.325	Go_X	1.0
167.338	1.0	go	0.534	Go_O	1.0
169.862	1.0	go	0.455	Go_O	1.0
172.403	1.0	go	0.421	Go_X	1.0
174.927	1.0	go	0.431	Go_O	1.0
177.451	0.3	stopsuccess	0.0	Go_X	1.0
179.975	1.0	go	0.352	Go_X	1.0
182.5	1.0	go	0.553	Go_X	1.0
185.024	1.0	go	0.276	Go_O	1.0
187.548	0.35	stopfail	0.402	Go_O	0.0
190.072	1.0	go	0.228	Go_X	1.0
192.596	1.0	go	0.384	Go_O	1.0
195.121	1.0	go	0.342	Go_X	1.0
197.645	1.0	go	0.44	Go_O	1.0
200.18599999999998	1.0	go	0.544	Go_X	1.0
202.70999999999998	1.0	go	0.291	Go_O	1.0
205.23399999999998	0.3	stopfail	0.426	Go_X	0.0
207.75799999999998	1.0	go	0.252	Go_O	1.0
210.29899999999998	1.0	go	0.244	Go_X	1.0
212.82299999999998	0.25	stopfail	0.273	Go_O	0.0
215.348	1.0	go	0.271	Go_X	1.0
217.872	1.0	go	0.286	Go_O	1.0
220.413	0.2	stopfail	0.232	Go_X	0.0
222.937	1.0	go	0.614	Go_X	1.0
225.461	0.15	stopsuccess	0.0	Go_O	1.0
227.985	1.0	go	0.529	Go_O	1.0
230.50900000000001	1.0	go	0.479	Go_O	1.0
233.034	1.0	go	0.241	Go_X	1.0
235.558	1.0	go	0.327	Go_O	1.0
238.099	1.0	go	0.306	Go_X	1.0
240.623	0.2	stopfail	0.312	Go_X	0.0
243.147	0.15	stopsuccess	0.0	Go_O	1.0
245.688	1.0	go	0.329	Go_X	1.0
248.212	1.0	go	0.251	Go_O	1.0
250.736	0.2	stopfail	0.527	Go_X	0.0
253.277	1.0	go	0.0	Go_X	0.0
255.80200000000002	1.0	go	0.459	Go_O	1.0
258.326	1.0	go	0.383	Go_O	0.0
260.867	1.0	go	0.689	Go_X	1.0
263.407	1.0	go	0.52	Go_X	1.0
265.932	1.0	go	0.296	Go_O	1.0
268.473	0.15	stopsuccess	0.0	Go_O	1.0
270.997	1.0	go	0.325	Go_X	1.0
273.521	1.0	go	0.276	Go_O	1.0
276.045	1.0	go	0.38	Go_O	1.0
278.569	1.0	go	0.364	Go_X	1.0
281.094	1.0	go	0.313	Go_O	1.0
283.618	0.2	stopsuccess	0.0	Go_X	1.0
286.159	1.0	go	0.29	Go_X	1.0
288.683	1.0	go	0.325	Go_X	1.0
291.224	1.0	go	0.374	Go_O	0.0
293.748	1.0	go	0.423	Go_X	1.0
296.272	0.25	stopsuccess	0.0	Go_O	1.0
298.796	1.0	go	0.516	Go_O	1.0
301.32	1.0	go	0.272	Go_X	1.0
303.845	0.3	stopfail	0.331	Go_X	0.0
306.386	1.0	go	0.481	Go_O	1.0
308.91	0.25	stopsuccess	0.0	Go_O	1.0
311.434	1.0	go	0.422	Go_O	1.0
313.958	1.0	go	0.34	Go_X	1.0
316.482	1.0	go	0.547	Go_O	1.0
319.007	1.0	go	0.356	Go_X	1.0
321.531	1.0	go	0.388	Go_O	1.0
324.055	1.0	go	0.379	Go_X	1.0
326.596	1.0	go	0.514	Go_X	1.0
329.12	0.3	stopfail	0.467	Go_X	0.0
331.644	1.0	go	0.444	Go_O	1.0
334.168	1.0	go	0.475	Go_O	1.0
336.693	1.0	go	0.258	Go_X	1.0
339.217	0.25	stopfail	0.251	Go_O	0.0
341.741	1.0	go	0.305	Go_O	0.0
344.265	1.0	go	0.418	Go_X	1.0
346.789	1.0	go	0.165	Go_O	1.0
349.314	1.0	go	0.498	Go_X	1.0
351.838	0.2	stopsuccess	0.0	Go_X	1.0
354.362	1.0	go	0.358	Go_O	1.0
356.886	1.0	go	0.279	Go_X	1.0
359.41	0.25	stopfail	0.407	Go_O	0.0
361.935	1.0	go	0.472	Go_O	1.0
364.459	1.0	go	0.271	Go_X	1.0
366.983	0.2	stopsuccess	0.0	Go_X	1.0
369.507	1.0	go	0.314	Go_X	1.0
372.048	1.0	go	0.301	Go_O	1.0
374.572	0.25	stopsuccess	0.0	Go_O	1.0
377.113	1.0	go	0.439	Go_X	1.0
379.637	1.0	go	0.328	Go_O	1.0
382.162	1.0	go	0.544	Go_X	0.0
384.686	1.0	go	0.47	Go_O	1.0
387.22700000000003	1.0	go	0.466	Go_O	1.0
389.751	1.0	go	0.374	Go_X	1.0
392.275	0.3	stopfail	0.47	Go_X	0.0
394.81600000000003	1.0	go	0.781	Go_X	1.0
397.34000000000003	0.25	stopsuccess	0.0	Go_O	1.0
399.86400000000003	1.0	go	0.445	Go_O	1.0
402.389	1.0	go	0.699	Go_X	1.0
404.913	1.0	go	0.31	Go_O	1.0
407.437	1.0	go	0.239	Go_O	0.0
409.961	1.0	go	0.291	Go_X	1.0
412.485	0.3	stopsuccess	0.0	Go_X	1.0
415.009	1.0	go	0.337	Go_O	1.0
417.538	1.0	go	0.0	Go_X	0.0
420.075	1.0	go	0.448	Go_X	1.0
422.599	0.35	stopfail	0.35	Go_O	0.0
425.123	0.3	stopfail	0.413	Go_X	0.0
427.664	0.25	stopsuccess	0.0	Go_O	1.0
430.188	1.0	go	0.388	Go_O	1.0
432.712	0.3	stopfail	0.238	Go_X	0.0
435.236	1.0	go	0.233	Go_O	1.0
437.761	1.0	go	0.34	Go_X	1.0
440.285	1.0	go	0.535	Go_X	0.0
442.826	1.0	go	0.463	Go_O	1.0
445.35	1.0	go	0.537	Go_X	1.0
447.874	1.0	go	0.706	Go_O	1.0
450.398	1.0	go	0.524	Go_O	1.0
452.922	1.0	go	0.284	Go_X	1.0
455.447	0.25	stopsuccess	0.0	Go_O	1.0
457.98800000000006	1.0	go	0.387	Go_X	1.0
460.51200000000006	1.0	go	0.457	Go_O	1.0
463.03600000000006	0.3	stopfail	0.374	Go_X	0.0
465.56000000000006	1.0	go	0.0	Go_O	0.0
468.08400000000006	1.0	go	0.41	Go_X	1.0
470.60900000000004	1.0	go	0.389	Go_X	1.0
473.13300000000004	1.0	go	0.377	Go_O	1.0
475.65700000000004	1.0	go	0.395	Go_O	1.0
478.18100000000004	0.25	stopsuccess	0.0	Go_O	1.0
480.70500000000004	1.0	go	0.337	Go_X	1.0
483.22900000000004	1.0	go	0.435	Go_O	1.0
485.754	1.0	go	0.412	Go_X	1.0
488.29499999999996	0.3	stopfail	0.448	Go_X	0.0
490.81899999999996	1.0	go	0.409	Go_O	1.0
493.36	0.25	stopsuccess	0.0	Go_O	1.0
495.884	1.0	go	0.552	Go_X	1.0
498.42499999999995	1.0	go	0.378	Go_O	1.0
500.94899999999996	1.0	go	0.369	Go_X	1.0
503.47299999999996	1.0	go	0.417	Go_O	0.0
505.99699999999996	1.0	go	0.436	Go_X	1.0
508.52200000000005	1.0	go	0.488	Go_X	1.0
511.04600000000005	1.0	go	0.329	Go_O	1.0
513.57	0.3	stopfail	0.41	Go_X	0.0
516.111	1.0	go	0.511	Go_O	1.0
518.635	1.0	go	0.241	Go_X	1.0
521.159	1.0	go	0.408	Go_X	1.0
523.683	1.0	go	0.225	Go_O	1.0
526.208	0.25	stopfail	0.37	Go_O	0.0
528.749	1.0	go	0.252	Go_X	1.0
531.29	0.2	stopfail	0.264	Go_X	0.0
533.814	1.0	go	0.299	Go_O	1.0
536.338	1.0	go	0.336	Go_X	0.0
538.862	0.15	stopsuccess	0.0	Go_O	1.0
541.403	1.0	go	0.434	Go_O	1.0
543.927	1.0	go	0.317	Go_X	1.0
546.451	1.0	go	0.395	Go_O	1.0
548.976	1.0	go	0.347	Go_X	1.0
551.5	1.0	go	0.416	Go_O	1.0
554.024	1.0	go	0.358	Go_X	1.0
556.548	1.0	go	0.291	Go_O	1.0
559.072	1.0	go	0.538	Go_O	1.0
561.597	1.0	go	0.283	Go_X	1.0
564.121	1.0	go	0.644	Go_X	1.0
566.645	0.2	stopsuccess	0.0	Go_X	1.0
569.169	1.0	go	0.414	Go_O	1.0
571.693	1.0	go	0.485	Go_O	1.0
574.234	0.25	stopfail	0.367	Go_O	0.0
576.775	1.0	go	0.336	Go_X	1.0
579.299	0.2	stopsuccess	0.0	Go_X	1.0
581.823	1.0	go	0.377	Go_O	1.0
584.348	1.0	go	0.385	Go_X	1.0
586.872	0.25	stopfail	0.306	Go_O	0.0
589.413	1.0	go	0.392	Go_O	1.0
591.937	0.2	stopsuccess	0.0	Go_X	1.0
594.461	1.0	go	0.562	Go_X	1.0
596.985	1.0	go	0.367	Go_X	1.0
599.51	1.0	go	0.332	Go_O	1.0
602.034	0.25	stopfail	0.347	Go_O	0.0
604.558	1.0	go	0.331	Go_O	1.0
607.099	1.0	go	0.258	Go_X	1.0
609.623	1.0	go	0.775	Go_O	1.0
612.147	1.0	go	0.314	Go_X	1.0
614.671	0.2	stopfail	0.378	Go_X	0.0
617.196	1.0	go	0.0	Go_O	0.0
619.72	1.0	go	0.263	Go_X	1.0
622.261	0.15	stopfail	0.345	Go_O	0.0
624.802	1.0	go	0.345	Go_O	1.0
627.326	1.0	go	0.0	Go_X	0.0
629.85	1.0	go	0.29	Go_O	1.0
632.374	1.0	go	0.33	Go_X	1.0
634.898	0.1	stopsuccess	0.0	Go_X	1.0
637.423	1.0	go	0.459	Go_X	1.0
639.947	0.15	stopsuccess	0.0	Go_O	1.0
642.488	1.0	go	0.418	Go_O	1.0
645.0120000000001	1.0	go	0.415	Go_X	1.0
647.5360000000001	0.2	stopsuccess	0.0	Go_X	1.0
650.077	1.0	go	0.317	Go_O	0.0
652.618	1.0	go	0.666	Go_O	1.0
655.142	1.0	go	0.327	Go_X	1.0
657.666	1.0	go	0.327	Go_X	0.0
660.19	0.25	stopfail	0.397	Go_O	0.0
662.715	1.0	go	0.417	Go_O	1.0
665.256	0.2	stopfail	0.287	Go_X	0.0
667.78	1.0	go	0.462	Go_X	1.0
670.304	1.0	go	0.317	Go_O	1.0
672.845	1.0	go	0.341	Go_X	1.0
675.369	1.0	go	0.283	Go_O	1.0
677.91	1.0	go	0.444	Go_O	1.0
680.434	1.0	go	0.296	Go_X	1.0
682.958	0.15	stopsuccess	0.0	Go_O	1.0
685.4830000000001	1.0	go	0.373	Go_O	1.0
688.007	1.0	go	0.582	Go_X	1.0
690.531	0.2	stopfail	0.47	Go_X	0.0
693.055	1.0	go	0.449	Go_X	1.0
695.579	1.0	go	0.31	Go_O	1.0
698.103	0.15	stopfail	0.296	Go_O	0.0
700.644	1.0	go	0.0	Go_O	0.0
703.169	1.0	go	0.466	Go_X	1.0
705.7090000000001	1.0	go	0.354	Go_O	1.0
708.234	1.0	go	0.302	Go_X	1.0
710.775	0.1	stopsuccess	0.0	Go_X	1.0
713.315	1.0	go	0.297	Go_O	1.0
715.84	0.15	stopsuccess	0.0	Go_O	1.0
718.381	1.0	go	0.358	Go_X	1.0
720.905	1.0	go	0.465	Go_X	1.0
723.429	1.0	go	0.273	Go_O	1.0
725.953	1.0	go	0.66	Go_X	1.0
728.477	1.0	go	0.382	Go_O	1.0
731.002	0.2	stopsuccess	0.0	Go_X	1.0
733.526	1.0	go	0.229	Go_O	1.0
736.05	1.0	go	0.271	Go_X	1.0
738.591	0.25	stopfail	0.351	Go_O	0.0
741.115	0.2	stopsuccess	0.0	Go_X	1.0
743.639	1.0	go	0.347	Go_X	1.0
746.163	1.0	go	0.322	Go_O	1.0
748.688	1.0	go	0.375	Go_O	1.0
751.229	1.0	go	0.696	Go_X	1.0
753.753	0.25	stopfail	0.5	Go_O	0.0
756.294	1.0	go	0.412	Go_O	1.0
