frame	onset	duration	trial_type	event_type	response_type	response_time	stim_file	accuracy
0	104.916		control-noreward	ImageDisplay1		0.0		
0	106.906	0.75	control-noreward	StartDisplay				
0	107.658		control-noreward	ImageDisplay2		0.0		
0	110.901	1.6	control-noreward	ChoiceDisplay	1	0.76	1	1
0	111.687	0.84	control-noreward	ChosenDisplay		0.0		
0	112.506	0.25	control-noreward	TurnDisplay				
0	112.756	0.75	control-noreward	OutcomeDisplay				
1	113.509		loss-reward	ImageDisplay1		0.0		
1	115.749	0.75	loss-reward	StartDisplay				
1	116.501		loss-reward	ImageDisplay2		0.0		
1	119.51	1.6	loss-reward	ChoiceDisplay	1	0.727	1	1
1	120.262	0.873	loss-reward	ChosenDisplay		0.0		
1	121.115	0.25	loss-reward	TurnDisplay				
1	121.366	0.75	loss-reward	OutcomeDisplay				
2	122.118		win-reward	ImageDisplay1		0.0		
2	124.107	0.75	win-reward	StartDisplay				
2	124.859		win-reward	ImageDisplay2		0.0		
2	128.119	1.6	win-reward	ChoiceDisplay	1	0.668	1	1
2	128.804	0.932	win-reward	ChosenDisplay		0.0		
2	129.724	0.25	win-reward	TurnDisplay				
2	129.975	0.75	win-reward	OutcomeDisplay				
3	130.727		control-reward	ImageDisplay1		0.0		
3	132.967	0.75	control-reward	StartDisplay				
3	133.719		control-reward	ImageDisplay2		0.0		
3	136.728	1.6	control-reward	ChoiceDisplay	1	0.378	1	1
3	137.129	1.222	control-reward	ChosenDisplay		0.0		
3	138.333	0.25	control-reward	TurnDisplay				
3	138.584	0.75	control-reward	OutcomeDisplay				
4	139.336		control-noreward	ImageDisplay1		0.0		
4	141.576	0.75	control-noreward	StartDisplay				
4	142.328		control-noreward	ImageDisplay2		0.0		
4	145.337	1.6	control-noreward	ChoiceDisplay	1	0.808	1	1
4	146.156	0.792	control-noreward	ChosenDisplay		0.0		
4	146.942	0.25	control-noreward	TurnDisplay				
4	147.193	0.75	control-noreward	OutcomeDisplay				
5	147.945		win-reward	ImageDisplay1		0.0		
5	149.934	0.75	win-reward	StartDisplay				
5	150.687		win-reward	ImageDisplay2		0.0		
5	153.946	1.6	win-reward	ChoiceDisplay	1	0.664	1	1
5	154.632	0.936	win-reward	ChosenDisplay		0.0		
5	155.551	0.25	win-reward	TurnDisplay				
5	155.802	0.75	win-reward	OutcomeDisplay				
6	156.554		control-noreward	ImageDisplay1		0.0		
6	158.543	0.75	control-noreward	StartDisplay				
6	159.296		control-noreward	ImageDisplay2		0.0		
6	162.555	1.6	control-noreward	ChoiceDisplay	1	0.757	1	1
6	163.324	0.843	control-noreward	ChosenDisplay		0.0		
6	164.16	0.25	control-noreward	TurnDisplay				
6	164.411	0.75	control-noreward	OutcomeDisplay				
7	165.163		win-noreward	ImageDisplay1		0.0		
7	167.403	0.75	win-noreward	StartDisplay				
7	168.155		win-noreward	ImageDisplay2		0.0		
7	171.164	1.6	win-noreward	ChoiceDisplay	1	0.732	1	1
7	171.917	0.868	win-noreward	ChosenDisplay		0.0		
7	172.769	0.25	win-noreward	TurnDisplay				
7	173.02	0.75	win-noreward	OutcomeDisplay				
8	173.772		control-reward	ImageDisplay1		0.0		
8	175.762	0.75	control-reward	StartDisplay				
8	176.514		control-reward	ImageDisplay2		0.0		
8	179.774	1.6	control-reward	ChoiceDisplay	1	0.74	1	1
8	180.526	0.86	control-reward	ChosenDisplay		0.0		
8	181.378	0.25	control-reward	TurnDisplay				
8	181.629	0.75	control-reward	OutcomeDisplay				
9	182.381		win-reward	ImageDisplay1		0.0		
9	184.371	0.75	win-reward	StartDisplay				
9	185.123		win-reward	ImageDisplay2		0.0		
9	188.383	1.6	win-reward	ChoiceDisplay	1	0.607	1	1
9	189.001	0.993	win-reward	ChosenDisplay		0.0		
9	189.987	0.25	win-reward	TurnDisplay				
9	190.238	0.75	win-reward	OutcomeDisplay				
10	190.99		control-reward	ImageDisplay1		0.0		
10	192.98	0.75	control-reward	StartDisplay				
10	193.732		control-reward	ImageDisplay2		0.0		
10	196.992	1.6	control-reward	ChoiceDisplay	1	0.743	1	1
10	197.761	0.857	control-reward	ChosenDisplay		0.0		
10	198.596	0.25	control-reward	TurnDisplay				
10	198.847	0.75	control-reward	OutcomeDisplay				
11	199.599		win-reward	ImageDisplay1		0.0		
11	201.589	0.75	win-reward	StartDisplay				
11	202.341		win-reward	ImageDisplay2		0.0		
11	205.601	1.6	win-reward	ChoiceDisplay	1	0.682	1	1
11	206.303	0.918	win-reward	ChosenDisplay		0.0		
11	207.206	0.25	win-reward	TurnDisplay				
11	207.456	0.75	win-reward	OutcomeDisplay				
12	208.209		loss-noreward	ImageDisplay1		0.0		
12	210.449	0.75	loss-noreward	StartDisplay				
12	211.201		loss-noreward	ImageDisplay2		0.0		
12	214.21	1.6	loss-noreward	ChoiceDisplay	1	0.577	1	1
12	214.812	1.023	loss-noreward	ChosenDisplay		0.0		
12	215.815	0.25	loss-noreward	TurnDisplay				
12	216.065	0.75	loss-noreward	OutcomeDisplay				
13	216.818		win-reward	ImageDisplay1		0.0		
13	218.807	0.75	win-reward	StartDisplay				
13	219.559		win-reward	ImageDisplay2		0.0		
13	222.819	1.6	win-reward	ChoiceDisplay	1	0.698	1	1
13	223.538	0.902	win-reward	ChosenDisplay		0.0		
13	224.424	0.25	win-reward	TurnDisplay				
13	224.674	0.75	win-reward	OutcomeDisplay				
14	225.427		loss-reward	ImageDisplay1		0.0		
14	227.667	0.75	loss-reward	StartDisplay				
14	228.419		loss-reward	ImageDisplay2		0.0		
14	231.428	1.6	loss-reward	ChoiceDisplay	1	0.566	1	1
14	232.013	1.034	loss-reward	ChosenDisplay		0.0		
14	233.033	0.25	loss-reward	TurnDisplay				
14	233.284	0.75	loss-reward	OutcomeDisplay				
15	234.036		control-noreward	ImageDisplay1		0.0		
15	236.276	0.75	control-noreward	StartDisplay				
15	237.028		control-noreward	ImageDisplay2		0.0		
15	240.037	1.6	control-noreward	ChoiceDisplay	1	0.794	1	1
15	240.856	0.806	control-noreward	ChosenDisplay		0.0		
15	241.642	0.25	control-noreward	TurnDisplay				
15	241.893	0.75	control-noreward	OutcomeDisplay				
16	242.645		win-noreward	ImageDisplay1		0.0		
16	244.634	0.75	win-noreward	StartDisplay				
16	245.386		win-noreward	ImageDisplay2		0.0		
16	248.646	1.6	win-noreward	ChoiceDisplay	1	0.783	1	1
16	249.448	0.817	win-noreward	ChosenDisplay		0.0		
16	250.251	0.25	win-noreward	TurnDisplay				
16	250.502	0.75	win-noreward	OutcomeDisplay				
17	251.254		loss-reward	ImageDisplay1		0.0		
17	253.243	0.75	loss-reward	StartDisplay				
17	253.995		loss-reward	ImageDisplay2		0.0		
17	257.255	1.6	loss-reward	ChoiceDisplay	1	0.719	1	1
17	257.991	0.881	loss-reward	ChosenDisplay		0.0		
17	258.86	0.25	loss-reward	TurnDisplay				
17	259.111	0.75	loss-reward	OutcomeDisplay				
18	259.863		loss-reward	ImageDisplay1		0.0		
18	261.852	0.75	loss-reward	StartDisplay				
18	262.604		loss-reward	ImageDisplay2		0.0		
18	265.864	1.6	loss-reward	ChoiceDisplay	1	0.722	1	1
18	266.6	0.878	loss-reward	ChosenDisplay		0.0		
18	267.469	0.25	loss-reward	TurnDisplay				
18	267.72	0.75	loss-reward	OutcomeDisplay				
19	268.472		loss-noreward	ImageDisplay1		0.0		
19	270.461	0.75	loss-noreward	StartDisplay				
19	271.214		loss-noreward	ImageDisplay2		0.0		
19	274.473	1.6	loss-noreward	ChoiceDisplay	1	0.675	1	1
19	275.175	0.925	loss-noreward	ChosenDisplay		0.0		
19	276.078	0.25	loss-noreward	TurnDisplay				
19	276.329	0.75	loss-noreward	OutcomeDisplay				
20	277.081		control-reward	ImageDisplay1		0.0		
20	279.321	0.75	control-reward	StartDisplay				
20	280.073		control-reward	ImageDisplay2		0.0		
20	283.082	1.6	control-reward	ChoiceDisplay	1	0.786	1	1
20	283.885	0.814	control-reward	ChosenDisplay		0.0		
20	284.687	0.25	control-reward	TurnDisplay				
20	284.938	0.75	control-reward	OutcomeDisplay				
21	285.69		win-noreward	ImageDisplay1		0.0		
21	287.93	0.75	win-noreward	StartDisplay				
21	288.682		win-noreward	ImageDisplay2		0.0		
21	291.691	1.6	win-noreward	ChoiceDisplay	1	0.773	1	1
21	292.477	0.827	win-noreward	ChosenDisplay		0.0		
21	293.296	0.25	win-noreward	TurnDisplay				
21	293.547	0.75	win-noreward	OutcomeDisplay				
22	294.299		loss-reward	ImageDisplay1		0.0		
22	296.289	0.75	loss-reward	StartDisplay				
22	297.041		loss-reward	ImageDisplay2		0.0		
22	300.301	1.6	loss-reward	ChoiceDisplay	1	0.668	1	1
22	300.986	0.932	loss-reward	ChosenDisplay		0.0		
22	301.905	0.25	loss-reward	TurnDisplay				
22	302.156	0.75	loss-reward	OutcomeDisplay				
23	302.908		loss-noreward	ImageDisplay1		0.0		
23	304.898	0.75	loss-noreward	StartDisplay				
23	305.65		loss-noreward	ImageDisplay2		0.0		
23	308.91	1.6	loss-noreward	ChoiceDisplay	1	0.666	1	1
23	309.595	0.934	loss-noreward	ChosenDisplay		0.0		
23	310.514	0.25	loss-noreward	TurnDisplay				
23	310.765	0.75	loss-noreward	OutcomeDisplay				
24	311.517		win-reward	ImageDisplay1		0.0		
24	313.507	0.75	win-reward	StartDisplay				
24	314.259		win-reward	ImageDisplay2		0.0		
24	317.519	1.6	win-reward	ChoiceDisplay	1	0.664	1	1
24	318.204	0.936	win-reward	ChosenDisplay		0.0		
24	319.124	0.25	win-reward	TurnDisplay				
24	319.374	0.75	win-reward	OutcomeDisplay				
25	320.126		loss-reward	ImageDisplay1		0.0		
25	322.367	0.75	loss-reward	StartDisplay				
25	323.119		loss-reward	ImageDisplay2		0.0		
25	326.128	1.6	loss-reward	ChoiceDisplay	1	0.764	1	1
25	326.913	0.836	loss-reward	ChosenDisplay		0.0		
25	327.733	0.25	loss-reward	TurnDisplay				
25	327.983	0.75	loss-reward	OutcomeDisplay				
26	328.736		win-reward	ImageDisplay1		0.0		
26	330.976	0.75	win-reward	StartDisplay				
26	331.73		win-reward	ImageDisplay2		0.0		
26	334.737	1.6	win-reward	ChoiceDisplay	1	0.687	1	1
26	335.439	0.913	win-reward	ChosenDisplay		0.0		
26	336.342	0.25	win-reward	TurnDisplay				
26	336.592	0.75	win-reward	OutcomeDisplay				
27	337.345		loss-noreward	ImageDisplay1		0.0		
27	339.334	0.75	loss-noreward	StartDisplay				
27	340.086		loss-noreward	ImageDisplay2		0.0		
27	343.346	1.6	loss-noreward	ChoiceDisplay	1	0.776	1	1
27	344.148	0.824	loss-noreward	ChosenDisplay		0.0		
27	344.951	0.25	loss-noreward	TurnDisplay				
27	345.201	0.75	loss-noreward	OutcomeDisplay				
28	345.954		control-noreward	ImageDisplay1		0.0		
28	347.943	0.75	control-noreward	StartDisplay				
28	348.695		control-noreward	ImageDisplay2		0.0		
28	351.955	1.6	control-noreward	ChoiceDisplay	1	0.728	1	1
28	352.707	0.872	control-noreward	ChosenDisplay		0.0		
28	353.56	0.25	control-noreward	TurnDisplay				
28	353.811	0.75	control-noreward	OutcomeDisplay				
29	354.563		loss-reward	ImageDisplay1		0.0		
29	356.803	0.75	loss-reward	StartDisplay				
29	357.555		loss-reward	ImageDisplay2		0.0		
29	360.564	1.6	loss-reward	ChoiceDisplay	1	0.759	1	1
29	361.35	0.841	loss-reward	ChosenDisplay		0.0		
29	362.169	0.25	loss-reward	TurnDisplay				
29	362.42	0.75	loss-reward	OutcomeDisplay				
30	363.172		win-reward	ImageDisplay1		0.0		
30	365.412	0.75	win-reward	StartDisplay				
30	366.164		win-reward	ImageDisplay2		0.0		
30	369.173	1.6	win-reward	ChoiceDisplay	1	0.707	1	1
30	369.892	0.893	win-reward	ChosenDisplay		0.0		
30	370.778	0.25	win-reward	TurnDisplay				
30	371.029	0.75	win-reward	OutcomeDisplay				
31	371.781		win-noreward	ImageDisplay1		0.0		
31	373.77	0.75	win-noreward	StartDisplay				
31	374.522		win-noreward	ImageDisplay2		0.0		
31	377.782	1.6	win-noreward	ChoiceDisplay	1	0.748	1	1
31	378.551	0.852	win-noreward	ChosenDisplay		0.0		
31	379.387	0.25	win-noreward	TurnDisplay				
31	379.638	0.75	win-noreward	OutcomeDisplay				
32	380.39		control-noreward	ImageDisplay1		0.0		
32	382.379	0.75	control-noreward	StartDisplay				
32	383.132		control-noreward	ImageDisplay2		0.0		
32	386.391	1.6	control-noreward	ChoiceDisplay	1	0.622	1	1
32	387.027	0.978	control-noreward	ChosenDisplay		0.0		
32	387.996	0.25	control-noreward	TurnDisplay				
32	388.247	0.75	control-noreward	OutcomeDisplay				
33	388.999		win-reward	ImageDisplay1		0.0		
33	391.239	0.75	win-reward	StartDisplay				
33	391.991		win-reward	ImageDisplay2		0.0		
33	395.0	1.6	win-reward	ChoiceDisplay	1	0.753	1	1
33	395.769	0.847	win-reward	ChosenDisplay		0.0		
33	396.605	0.25	win-reward	TurnDisplay				
33	396.856	0.75	win-reward	OutcomeDisplay				
34	397.608		win-noreward	ImageDisplay1		0.0		
34	399.848	0.75	win-noreward	StartDisplay				
34	400.6		win-noreward	ImageDisplay2		0.0		
34	403.609	1.6	win-noreward	ChoiceDisplay	1	0.704	1	1
34	404.328	0.896	win-noreward	ChosenDisplay		0.0		
34	405.214	0.25	win-noreward	TurnDisplay				
34	405.465	0.75	win-noreward	OutcomeDisplay				
35	406.217		loss-reward	ImageDisplay1		0.0		
35	408.207	0.75	loss-reward	StartDisplay				
35	408.959		loss-reward	ImageDisplay2		0.0		
35	412.219	1.6	loss-reward	ChoiceDisplay	1	0.722	1	1
35	412.954	0.878	loss-reward	ChosenDisplay		0.0		
35	413.823	0.25	loss-reward	TurnDisplay				
35	414.074	0.75	loss-reward	OutcomeDisplay				
36	414.826		win-noreward	ImageDisplay1		0.0		
36	416.816	0.75	win-noreward	StartDisplay				
36	417.568		win-noreward	ImageDisplay2		0.0		
36	420.828	1.6	win-noreward	ChoiceDisplay	1	0.735	1	1
36	421.58	0.865	win-noreward	ChosenDisplay		0.0		
36	422.432	0.25	win-noreward	TurnDisplay				
36	422.683	0.75	win-noreward	OutcomeDisplay				
37	423.435		win-reward	ImageDisplay1		0.0		
37	425.675	0.75	win-reward	StartDisplay				
37	426.428		win-reward	ImageDisplay2		0.0		
37	429.437	1.6	win-reward	ChoiceDisplay	1	0.6	1	1
37	430.055	1.0	win-reward	ChosenDisplay		0.0		
37	431.041	0.25	win-reward	TurnDisplay				
37	431.292	0.75	win-reward	OutcomeDisplay				
38	432.044		win-reward	ImageDisplay1		0.0		
38	434.284	0.75	win-reward	StartDisplay				
38	435.037		win-reward	ImageDisplay2		0.0		
38	438.046	1.6	win-reward	ChoiceDisplay	1	0.811	1	1
38	438.882	0.789	win-reward	ChosenDisplay		0.0		
38	439.651	0.25	win-reward	TurnDisplay				
38	439.901	0.75	win-reward	OutcomeDisplay				
39	440.654		control-noreward	ImageDisplay1		0.0		
39	442.894	0.75	control-noreward	StartDisplay				
39	443.646		control-noreward	ImageDisplay2		0.0		
39	446.655	1.6	control-noreward	ChoiceDisplay	1	0.886	1	1
39	447.557	0.714	control-noreward	ChosenDisplay		0.0		
39	448.26	0.25	control-noreward	TurnDisplay				
39	448.51	0.75	control-noreward	OutcomeDisplay				
40	449.263		win-noreward	ImageDisplay1		0.0		
40	451.503	0.75	win-noreward	StartDisplay				
40	452.255		win-noreward	ImageDisplay2		0.0		
40	455.264	1.6	win-noreward	ChoiceDisplay	1	0.712	1	1
40	455.999	0.888	win-noreward	ChosenDisplay		0.0		
40	456.869	0.25	win-noreward	TurnDisplay				
40	457.119	0.75	win-noreward	OutcomeDisplay				
41	457.872		control-reward	ImageDisplay1		0.0		
41	459.861	0.75	control-reward	StartDisplay				
41	460.613		control-reward	ImageDisplay2		0.0		
41	463.873	1.6	control-reward	ChoiceDisplay	1	0.847	1	1
41	464.742	0.753	control-reward	ChosenDisplay		0.0		
41	465.478	0.25	control-reward	TurnDisplay				
41	465.728	0.75	control-reward	OutcomeDisplay				
42	466.481		control-noreward	ImageDisplay1		0.0		
42	468.721	0.75	control-noreward	StartDisplay				
42	469.473		control-noreward	ImageDisplay2		0.0		
42	472.482	1.6	control-noreward	ChoiceDisplay	1	0.612	1	1
42	473.117	0.988	control-noreward	ChosenDisplay		0.0		
42	474.087	0.25	control-noreward	TurnDisplay				
42	474.338	0.75	control-noreward	OutcomeDisplay				
43	475.09		win-noreward	ImageDisplay1		0.0		
43	477.079	0.75	win-noreward	StartDisplay				
43	477.831		win-noreward	ImageDisplay2		0.0		
43	481.091	1.6	win-noreward	ChoiceDisplay	1	0.744	1	1
43	481.86	0.856	win-noreward	ChosenDisplay		0.0		
43	482.696	0.25	win-noreward	TurnDisplay				
43	482.947	0.75	win-noreward	OutcomeDisplay				
44	483.699		loss-noreward	ImageDisplay1		0.0		
44	485.939	0.75	loss-noreward	StartDisplay				
44	486.691		loss-noreward	ImageDisplay2		0.0		
44	489.7	1.6	loss-noreward	ChoiceDisplay	1	0.95	1	1
44	490.67	0.65	loss-noreward	ChosenDisplay		0.0		
44	491.305	0.25	loss-noreward	TurnDisplay				
44	491.556	0.75	loss-noreward	OutcomeDisplay				
45	492.308		loss-reward	ImageDisplay1		0.0		
45	494.548	0.75	loss-reward	StartDisplay				
45	495.3		loss-reward	ImageDisplay2		0.0		
45	498.309	1.6	loss-reward	ChoiceDisplay	1	0.746	1	1
45	499.078	0.854	loss-reward	ChosenDisplay		0.0		
45	499.914	0.25	loss-reward	TurnDisplay				
45	500.165	0.75	loss-reward	OutcomeDisplay				
46	500.917		control-noreward	ImageDisplay1		0.0		
46	503.157	0.75	control-noreward	StartDisplay				
46	503.909		control-noreward	ImageDisplay2		0.0		
46	506.918	1.6	control-noreward	ChoiceDisplay	1	0.707	1	1
46	507.637	0.893	control-noreward	ChosenDisplay		0.0		
46	508.523	0.25	control-noreward	TurnDisplay				
46	508.774	0.75	control-noreward	OutcomeDisplay				
47	509.526		win-noreward	ImageDisplay1		0.0		
47	511.766	0.75	win-noreward	StartDisplay				
47	512.518		win-noreward	ImageDisplay2		0.0		
47	515.527	1.6	win-noreward	ChoiceDisplay	1	0.757	1	1
47	516.296	0.843	win-noreward	ChosenDisplay		0.0		
47	517.132	0.25	win-noreward	TurnDisplay				
47	517.383	0.75	win-noreward	OutcomeDisplay				
48	518.135		loss-noreward	ImageDisplay1		0.0		
48	520.375	0.75	loss-noreward	StartDisplay				
48	521.127		loss-noreward	ImageDisplay2		0.0		
48	524.136	1.6	loss-noreward	ChoiceDisplay	1	0.816	1	1
48	524.972	0.784	loss-noreward	ChosenDisplay		0.0		
48	525.741	0.25	loss-noreward	TurnDisplay				
48	525.992	0.75	loss-noreward	OutcomeDisplay				
49	526.744		loss-noreward	ImageDisplay1		0.0		
49	528.984	0.75	loss-noreward	StartDisplay				
49	529.737		loss-noreward	ImageDisplay2		0.0		
49	532.746	1.6	loss-noreward	ChoiceDisplay	1	0.803	1	1
49	533.565	0.797	loss-noreward	ChosenDisplay		0.0		
49	534.35	0.25	loss-noreward	TurnDisplay				
49	534.601	0.75	loss-noreward	OutcomeDisplay				
50	535.353		loss-reward	ImageDisplay1		0.0		
50	537.343	0.75	loss-reward	StartDisplay				
50	538.095		loss-reward	ImageDisplay2		0.0		
50	541.355	1.6	loss-reward	ChoiceDisplay	1	0.92	1	1
50	542.291	0.68	loss-reward	ChosenDisplay		0.0		
50	542.959	0.25	loss-reward	TurnDisplay				
50	543.21	0.75	loss-reward	OutcomeDisplay				
51	543.962		control-noreward	ImageDisplay1		0.0		
51	546.202	0.75	control-noreward	StartDisplay				
51	546.955		control-noreward	ImageDisplay2		0.0		
51	549.964	1.6	control-noreward	ChoiceDisplay	1	0.802	1	1
51	550.783	0.798	control-noreward	ChosenDisplay		0.0		
51	551.568	0.25	control-noreward	TurnDisplay				
51	551.819	0.75	control-noreward	OutcomeDisplay				
52	552.571		win-reward	ImageDisplay1		0.0		
52	554.561	0.75	win-reward	StartDisplay				
52	555.313		win-reward	ImageDisplay2		0.0		
52	558.573	1.6	win-reward	ChoiceDisplay	1	0.788	1	1
52	559.375	0.812	win-reward	ChosenDisplay		0.0		
52	560.178	0.25	win-reward	TurnDisplay				
52	560.428	0.75	win-reward	OutcomeDisplay				
53	561.181		win-noreward	ImageDisplay1		0.0		
53	563.17	0.75	win-noreward	StartDisplay				
53	563.922		win-noreward	ImageDisplay2		0.0		
53	567.182	1.6	win-noreward	ChoiceDisplay	1	1.073	1	1
53	568.268	0.527	win-noreward	ChosenDisplay		0.0		
53	568.787	0.25	win-noreward	TurnDisplay				
53	569.037	0.75	win-noreward	OutcomeDisplay				
54	569.79		win-noreward	ImageDisplay1		0.0		
54	572.03	0.75	win-noreward	StartDisplay				
54	572.782		win-noreward	ImageDisplay2		0.0		
54	575.791	1.6	win-noreward	ChoiceDisplay	1	0.756	1	1
54	576.56	0.844	win-noreward	ChosenDisplay		0.0		
54	577.396	0.25	win-noreward	TurnDisplay				
54	577.646	0.75	win-noreward	OutcomeDisplay				
55	578.399		win-noreward	ImageDisplay1		0.0		
55	580.388	0.75	win-noreward	StartDisplay				
55	581.14		win-noreward	ImageDisplay2		0.0		
55	584.4	1.6	win-noreward	ChoiceDisplay	1	0.724	1	1
55	585.136	0.876	win-noreward	ChosenDisplay		0.0		
55	586.005	0.25	win-noreward	TurnDisplay				
55	586.256	0.75	win-noreward	OutcomeDisplay				
56	587.008		loss-noreward	ImageDisplay1		0.0		
56	588.997	0.75	loss-noreward	StartDisplay				
56	589.749		loss-noreward	ImageDisplay2		0.0		
56	593.009	1.6	loss-noreward	ChoiceDisplay	1	0.78	1	1
56	593.811	0.82	loss-noreward	ChosenDisplay		0.0		
56	594.614	0.25	loss-noreward	TurnDisplay				
56	594.865	0.75	loss-noreward	OutcomeDisplay				
57	595.617		loss-noreward	ImageDisplay1		0.0		
57	597.857	0.75	loss-noreward	StartDisplay				
57	598.609		loss-noreward	ImageDisplay2		0.0		
57	601.618	1.6	loss-noreward	ChoiceDisplay	1	0.886	1	1
57	602.521	0.714	loss-noreward	ChosenDisplay		0.0		
57	603.223	0.25	loss-noreward	TurnDisplay				
57	603.474	0.75	loss-noreward	OutcomeDisplay				
58	604.226		loss-reward	ImageDisplay1		0.0		
58	606.215	0.75	loss-reward	StartDisplay				
58	606.967		loss-reward	ImageDisplay2		0.0		
58	610.227	1.6	loss-reward	ChoiceDisplay	1	0.763	1	1
58	611.013	0.837	loss-reward	ChosenDisplay		0.0		
58	611.832	0.25	loss-reward	TurnDisplay				
58	612.083	0.75	loss-reward	OutcomeDisplay				
59	612.835		loss-reward	ImageDisplay1		0.0		
59	614.824	0.75	loss-reward	StartDisplay				
59	615.577		loss-reward	ImageDisplay2		0.0		
59	618.836	1.6	loss-reward	ChoiceDisplay	1	0.731	1	1
59	619.589	0.869	loss-reward	ChosenDisplay		0.0		
59	620.441	0.25	loss-reward	TurnDisplay				
59	620.692	0.75	loss-reward	OutcomeDisplay				
60	621.444		control-reward	ImageDisplay1		0.0		
60	623.433	0.75	control-reward	StartDisplay				
60	624.186		control-reward	ImageDisplay2		0.0		
60	627.445	1.6	control-reward	ChoiceDisplay	1	0.844	1	1
60	628.315	0.756	control-reward	ChosenDisplay		0.0		
60	629.05	0.25	control-reward	TurnDisplay				
60	629.301	0.75	control-reward	OutcomeDisplay				
61	630.053		loss-reward	ImageDisplay1		0.0		
61	632.293	0.75	loss-reward	StartDisplay				
61	633.045		loss-reward	ImageDisplay2		0.0		
61	636.054	1.6	loss-reward	ChoiceDisplay	1	0.835	1	1
61	636.907	0.765	loss-reward	ChosenDisplay		0.0		
61	637.659	0.25	loss-reward	TurnDisplay				
61	637.91	0.75	loss-reward	OutcomeDisplay				
62	638.662		loss-reward	ImageDisplay1		0.0		
62	640.902	0.75	loss-reward	StartDisplay				
62	641.654		loss-reward	ImageDisplay2		0.0		
62	644.664	1.6	loss-reward	ChoiceDisplay	1	0.961	1	1
62	645.65	0.639	loss-reward	ChosenDisplay		0.0		
62	646.268	0.25	loss-reward	TurnDisplay				
62	646.519	0.75	loss-reward	OutcomeDisplay				
63	647.271		win-noreward	ImageDisplay1		0.0		
63	649.261	0.75	win-noreward	StartDisplay				
63	650.013		win-noreward	ImageDisplay2		0.0		
63	653.273	1.6	win-noreward	ChoiceDisplay	1	0.916	1	1
63	654.209	0.684	win-noreward	ChosenDisplay		0.0		
63	654.877	0.25	win-noreward	TurnDisplay				
63	655.128	0.75	win-noreward	OutcomeDisplay				
64	655.88		win-reward	ImageDisplay1		0.0		
64	658.12	0.75	win-reward	StartDisplay				
64	658.873		win-reward	ImageDisplay2		0.0		
64	661.882	1.6	win-reward	ChoiceDisplay	1	0.823	1	1
64	662.717	0.777	win-reward	ChosenDisplay		0.0		
64	663.486	0.25	win-reward	TurnDisplay				
64	663.737	0.75	win-reward	OutcomeDisplay				
65	664.489		control-reward	ImageDisplay1		0.0		
65	666.479	0.75	control-reward	StartDisplay				
65	667.231		control-reward	ImageDisplay2		0.0		
65	670.491	1.6	control-reward	ChoiceDisplay	1	1.007	1	1
65	671.51	0.593	control-reward	ChosenDisplay		0.0		
65	672.096	0.25	control-reward	TurnDisplay				
65	672.346	0.75	control-reward	OutcomeDisplay				
66	673.099		loss-noreward	ImageDisplay1		0.0		
66	675.339	0.75	loss-noreward	StartDisplay				
66	676.091		loss-noreward	ImageDisplay2		0.0		
66	679.1	1.6	loss-noreward	ChoiceDisplay	1	0.876	1	1
66	680.002	0.724	loss-noreward	ChosenDisplay		0.0		
66	680.705	0.25	loss-noreward	TurnDisplay				
66	680.955	0.75	loss-noreward	OutcomeDisplay				
67	681.708		control-reward	ImageDisplay1		0.0		
67	683.948	0.75	control-reward	StartDisplay				
67	684.7		control-reward	ImageDisplay2		0.0		
67	687.709	1.6	control-reward	ChoiceDisplay	1	0.758	1	1
67	688.495	0.842	control-reward	ChosenDisplay		0.0		
67	689.314	0.25	control-reward	TurnDisplay				
67	689.564	0.75	control-reward	OutcomeDisplay				
68	690.317		loss-noreward	ImageDisplay1		0.0		
68	692.306	0.75	loss-noreward	StartDisplay				
68	693.058		loss-noreward	ImageDisplay2		0.0		
68	696.318	1.6	loss-noreward	ChoiceDisplay	1	0.68	1	1
68	697.02	0.92	loss-noreward	ChosenDisplay		0.0		
68	697.923	0.25	loss-noreward	TurnDisplay				
68	698.173	0.75	loss-noreward	OutcomeDisplay				
69	698.926		control-noreward	ImageDisplay1		0.0		
69	700.915	0.75	control-noreward	StartDisplay				
69	701.667		control-noreward	ImageDisplay2		0.0		
69	704.927	1.6	control-noreward	ChoiceDisplay	1	0.873	1	1
69	705.813	0.727	control-noreward	ChosenDisplay		0.0		
69	706.532	0.25	control-noreward	TurnDisplay				
69	706.783	0.75	control-noreward	OutcomeDisplay				
70	707.535		win-reward	ImageDisplay1		0.0		
70	709.524	0.75	win-reward	StartDisplay				
70	710.276		win-reward	ImageDisplay2		0.0		
70	713.536	1.6	win-reward	ChoiceDisplay	1	0.81	1	1
70	714.372	0.79	win-reward	ChosenDisplay		0.0		
70	715.141	0.25	win-reward	TurnDisplay				
70	715.392	0.75	win-reward	OutcomeDisplay				
71	716.144		control-reward	ImageDisplay1		0.0		
71	718.384	0.75	control-reward	StartDisplay				
71	719.136		control-reward	ImageDisplay2		0.0		
71	722.145	1.6	control-reward	ChoiceDisplay	1	0.789	1	1
71	722.948	0.811	control-reward	ChosenDisplay		0.0		
71	723.75	0.25	control-reward	TurnDisplay				
71	724.001	0.75	control-reward	OutcomeDisplay				
72	724.753		control-noreward	ImageDisplay1		0.0		
72	726.742	0.75	control-noreward	StartDisplay				
72	727.494		control-noreward	ImageDisplay2		0.0		
72	730.754	1.6	control-noreward	ChoiceDisplay	1	0.788	1	1
72	731.557	0.812	control-noreward	ChosenDisplay		0.0		
72	732.359	0.25	control-noreward	TurnDisplay				
72	732.61	0.75	control-noreward	OutcomeDisplay				
73	733.362		loss-reward	ImageDisplay1		0.0		
73	735.351	0.75	loss-reward	StartDisplay				
73	736.104		loss-reward	ImageDisplay2		0.0		
73	739.363	1.6	loss-reward	ChoiceDisplay	1	0.76	1	1
73	740.149	0.84	loss-reward	ChosenDisplay		0.0		
73	740.968	0.25	loss-reward	TurnDisplay				
73	741.219	0.75	loss-reward	OutcomeDisplay				
74	741.971		loss-noreward	ImageDisplay1		0.0		
74	743.96	0.75	loss-noreward	StartDisplay				
74	744.713		loss-noreward	ImageDisplay2		0.0		
74	747.972	1.6	loss-noreward	ChoiceDisplay	1	0.664	1	1
74	748.658	0.936	loss-noreward	ChosenDisplay		0.0		
74	749.577	0.25	loss-noreward	TurnDisplay				
74	749.828	0.75	loss-noreward	OutcomeDisplay				
75	750.58		win-reward	ImageDisplay1		0.0		
75	752.569	0.75	win-reward	StartDisplay				
75	753.322		win-reward	ImageDisplay2		0.0		
75	756.581	1.6	win-reward	ChoiceDisplay	1	0.686	1	1
75	757.284	0.914	win-reward	ChosenDisplay		0.0		
75	758.186	0.25	win-reward	TurnDisplay				
75	758.437	0.75	win-reward	OutcomeDisplay				
76	759.189		control-reward	ImageDisplay1		0.0		
76	761.429	0.75	control-reward	StartDisplay				
76	762.182		control-reward	ImageDisplay2		0.0		
76	765.191	1.6	control-reward	ChoiceDisplay	1	0.809	1	1
76	766.026	0.791	control-reward	ChosenDisplay		0.0		
76	766.795	0.25	control-reward	TurnDisplay				
76	767.046	0.75	control-reward	OutcomeDisplay				
77	767.798		control-noreward	ImageDisplay1		0.0		
77	769.788	0.75	control-noreward	StartDisplay				
77	770.54		control-noreward	ImageDisplay2		0.0		
77	773.8	1.6	control-noreward	ChoiceDisplay	1	0.884	1	1
77	774.702	0.716	control-noreward	ChosenDisplay		0.0		
77	775.404	0.25	control-noreward	TurnDisplay				
77	775.655	0.75	control-noreward	OutcomeDisplay				
78	776.407		win-reward	ImageDisplay1		0.0		
78	778.647	0.75	win-reward	StartDisplay				
78	779.4		win-reward	ImageDisplay2		0.0		
78	782.409	1.6	win-reward	ChoiceDisplay	1	0.793	1	1
78	783.228	0.807	win-reward	ChosenDisplay		0.0		
78	784.013	0.25	win-reward	TurnDisplay				
78	784.264	0.75	win-reward	OutcomeDisplay				
79	785.016		control-noreward	ImageDisplay1		0.0		
79	787.257	0.75	control-noreward	StartDisplay				
79	788.009		control-noreward	ImageDisplay2		0.0		
79	791.018	1.6	control-noreward	ChoiceDisplay	1	0.707	1	1
79	791.737	0.893	control-noreward	ChosenDisplay		0.0		
79	792.623	0.25	control-noreward	TurnDisplay				
79	792.873	0.75	control-noreward	OutcomeDisplay				
80	793.626		loss-reward	ImageDisplay1		0.0		
80	795.866	0.75	loss-reward	StartDisplay				
80	796.618		loss-reward	ImageDisplay2		0.0		
80	799.627	1.6	loss-reward	ChoiceDisplay	1	0.712	1	1
80	800.362	0.888	loss-reward	ChosenDisplay		0.0		
80	801.232	0.25	loss-reward	TurnDisplay				
80	801.482	0.75	loss-reward	OutcomeDisplay				
81	802.235		loss-noreward	ImageDisplay1		0.0		
81	804.224	0.75	loss-noreward	StartDisplay				
81	804.976		loss-noreward	ImageDisplay2		0.0		
81	808.236	1.6	loss-noreward	ChoiceDisplay	1	0.73	1	1
81	808.988	0.87	loss-noreward	ChosenDisplay		0.0		
81	809.841	0.25	loss-noreward	TurnDisplay				
81	810.091	0.75	loss-noreward	OutcomeDisplay				
82	810.844		control-reward	ImageDisplay1		0.0		
82	813.084	0.75	control-reward	StartDisplay				
82	813.836		control-reward	ImageDisplay2		0.0		
82	816.845	1.6	control-reward	ChoiceDisplay	1	0.641	1	1
82	817.514	0.959	control-reward	ChosenDisplay		0.0		
82	818.45	0.25	control-reward	TurnDisplay				
82	818.701	0.75	control-reward	OutcomeDisplay				
83	819.453		control-reward	ImageDisplay1		0.0		
83	821.442	0.75	control-reward	StartDisplay				
83	822.194		control-reward	ImageDisplay2		0.0		
83	825.454	1.6	control-reward	ChoiceDisplay	1	0.897	1	1
83	826.373	0.703	control-reward	ChosenDisplay		0.0		
83	827.059	0.25	control-reward	TurnDisplay				
83	827.31	0.75	control-reward	OutcomeDisplay				
84	828.062		win-noreward	ImageDisplay1		0.0		
84	830.302	0.75	win-noreward	StartDisplay				
84	831.054		win-noreward	ImageDisplay2		0.0		
84	834.063	1.6	win-noreward	ChoiceDisplay	1	0.745	1	1
84	834.832	0.855	win-noreward	ChosenDisplay		0.0		
84	835.668	0.25	win-noreward	TurnDisplay				
84	835.919	0.75	win-noreward	OutcomeDisplay				
85	836.671		loss-reward	ImageDisplay1		0.0		
85	838.911	0.75	loss-reward	StartDisplay				
85	839.663		loss-reward	ImageDisplay2		0.0		
85	842.672	1.6	loss-reward	ChoiceDisplay	1	0.925	1	1
85	843.608	0.675	loss-reward	ChosenDisplay		0.0		
85	844.277	0.25	loss-reward	TurnDisplay				
85	844.528	0.75	loss-reward	OutcomeDisplay				
86	845.28		control-reward	ImageDisplay1		0.0		
86	847.269	0.75	control-reward	StartDisplay				
86	848.022		control-reward	ImageDisplay2		0.0		
86	851.281	1.6	control-reward	ChoiceDisplay	1	1.013	1	1
86	852.318	0.587	control-reward	ChosenDisplay		0.0		
86	852.886	0.25	control-reward	TurnDisplay				
86	853.137	0.75	control-reward	OutcomeDisplay				
87	853.889		control-noreward	ImageDisplay1		0.0		
87	856.129	0.75	control-noreward	StartDisplay				
87	856.881		control-noreward	ImageDisplay2		0.0		
87	859.89	1.6	control-noreward	ChoiceDisplay	1	0.674	1	1
87	860.576	0.926	control-noreward	ChosenDisplay		0.0		
87	861.495	0.25	control-noreward	TurnDisplay				
87	861.746	0.75	control-noreward	OutcomeDisplay				
88	862.498		loss-noreward	ImageDisplay1		0.0		
88	864.738	0.75	loss-noreward	StartDisplay				
88	865.49		loss-noreward	ImageDisplay2		0.0		
88	868.499	1.6	loss-noreward	ChoiceDisplay	1	0.764	1	1
88	869.285	0.836	loss-noreward	ChosenDisplay		0.0		
88	870.104	0.25	loss-noreward	TurnDisplay				
88	870.355	0.75	loss-noreward	OutcomeDisplay				
89	871.107		control-reward	ImageDisplay1		0.0		
89	873.347	0.75	control-reward	StartDisplay				
89	874.099		control-reward	ImageDisplay2		0.0		
89	877.108	1.6	control-reward	ChoiceDisplay	1	0.272	1	1
89	877.393	1.328	control-reward	ChosenDisplay		0.0		
89	878.713	0.25	control-reward	TurnDisplay				
89	878.964	0.75	control-reward	OutcomeDisplay				
90	879.716		control-reward	ImageDisplay1		0.0		
90	881.706	0.75	control-reward	StartDisplay				
90	882.458		control-reward	ImageDisplay2		0.0		
90	885.718	1.6	control-reward	ChoiceDisplay	1	0.803	1	1
90	886.537	0.797	control-reward	ChosenDisplay		0.0		
90	887.322	0.25	control-reward	TurnDisplay				
90	887.573	0.75	control-reward	OutcomeDisplay				
91	888.325		control-reward	ImageDisplay1		0.0		
91	890.565	0.75	control-reward	StartDisplay				
91	891.318		control-reward	ImageDisplay2		0.0		
91	894.327	1.6	control-reward	ChoiceDisplay	1	0.692	1	1
91	895.045	0.908	control-reward	ChosenDisplay		0.0		
91	895.931	0.25	control-reward	TurnDisplay				
91	896.182	0.75	control-reward	OutcomeDisplay				
92	896.934		control-noreward	ImageDisplay1		0.0		
92	898.924	0.75	control-noreward	StartDisplay				
92	899.676		control-noreward	ImageDisplay2		0.0		
92	902.936	1.6	control-noreward	ChoiceDisplay	1	0.796	1	1
92	903.755	0.804	control-noreward	ChosenDisplay		0.0		
92	904.54	0.25	control-noreward	TurnDisplay				
92	904.791	0.75	control-noreward	OutcomeDisplay				
93	905.544		win-reward	ImageDisplay1		0.0		
93	907.784	0.75	win-reward	StartDisplay				
93	908.536		win-reward	ImageDisplay2		0.0		
93	911.545	1.6	win-reward	ChoiceDisplay	1	0.676	1	1
93	912.247	0.924	win-reward	ChosenDisplay		0.0		
93	913.15	0.25	win-reward	TurnDisplay				
93	913.4	0.75	win-reward	OutcomeDisplay				
94	914.153		loss-reward	ImageDisplay1		0.0		
94	916.142	0.75	loss-reward	StartDisplay				
94	916.894		loss-reward	ImageDisplay2		0.0		
94	920.154	1.6	loss-reward	ChoiceDisplay	1	0.788	1	1
94	920.956	0.812	loss-reward	ChosenDisplay		0.0		
94	921.759	0.25	loss-reward	TurnDisplay				
94	922.009	0.75	loss-reward	OutcomeDisplay				
95	922.762		win-reward	ImageDisplay1		0.0		
95	925.002	0.75	win-reward	StartDisplay				
95	925.754		win-reward	ImageDisplay2		0.0		
95	928.763	1.6	win-reward	ChoiceDisplay	1	0.508	1	1
95	929.298	1.092	win-reward	ChosenDisplay		0.0		
95	930.368	0.25	win-reward	TurnDisplay				
95	930.618	0.75	win-reward	OutcomeDisplay				
