onset	duration	trial_type	response_time	stim_file	accuracy
0.5210000000000008	1.0	go	0.998	Go_X	1.0
3.054000000000002	1.0	go	0.446	Go_O	1.0
5.587000000000003	1.0	go	0.384	Go_X	1.0
8.121000000000002	1.0	go	0.309	Go_O	1.0
10.653999999999996	1.0	go	0.454	Go_O	1.0
13.186999999999998	1.0	go	0.316	Go_X	1.0
15.721000000000004	0.25	stopfail	0.439	Go_O	0.0
18.254000000000005	1.0	go	0.357	Go_X	1.0
20.787000000000006	0.2	stopsuccess	0.0	Go_X	1.0
23.319999999999993	1.0	go	0.265	Go_O	1.0
25.854	1.0	go	0.397	Go_O	1.0
28.387	1.0	go	0.365	Go_X	1.0
30.92	0.25	stopfail	0.298	Go_O	0.0
33.45399999999999	1.0	go	0.257	Go_X	1.0
35.986999999999995	1.0	go	0.3	Go_O	1.0
38.519999999999996	0.2	stopfail	0.282	Go_X	0.0
41.053	0.15	stopfail	0.411	Go_O	0.0
43.587	1.0	go	0.345	Go_X	1.0
46.120000000000005	1.0	go	0.3	Go_O	1.0
48.653000000000006	0.1	stopfail	0.398	Go_X	0.0
51.187	1.0	go	0.238	Go_O	1.0
53.72	1.0	go	0.405	Go_X	1.0
56.253	0.05	stopfail	0.235	Go_O	0.0
58.786	1.0	go	0.293	Go_O	0.0
61.31999999999999	1.0	go	0.295	Go_X	1.0
63.852999999999994	0.0	stopsuccess	0.0	Go_X	1.0
66.403	1.0	go	0.299	Go_O	1.0
68.936	1.0	go	0.344	Go_X	1.0
71.47	0.05	stopfail	0.326	Go_O	0.0
74.003	1.0	go	0.328	Go_X	1.0
76.53599999999999	1.0	go	0.376	Go_O	1.0
79.069	1.0	go	0.313	Go_X	1.0
81.603	1.0	go	0.447	Go_O	1.0
84.13600000000001	1.0	go	0.358	Go_O	0.0
86.669	0.0	stopsuccess	0.0	Go_X	1.0
89.21900000000001	1.0	go	0.501	Go_X	1.0
91.753	1.0	go	0.364	Go_O	1.0
94.302	1.0	go	0.391	Go_X	1.0
96.836	1.0	go	0.354	Go_X	1.0
99.36900000000001	1.0	go	0.307	Go_O	1.0
101.902	0.05	stopsuccess	0.0	Go_O	1.0
104.43599999999999	1.0	go	0.321	Go_O	0.0
106.96900000000001	1.0	go	0.424	Go_X	1.0
109.502	1.0	go	0.301	Go_O	1.0
112.03500000000001	1.0	go	0.48	Go_X	1.0
114.569	1.0	go	0.395	Go_X	1.0
117.10199999999999	1.0	go	0.334	Go_O	1.0
119.635	0.1	stopsuccess	0.0	Go_X	1.0
122.169	1.0	go	0.323	Go_O	1.0
124.70200000000001	1.0	go	0.269	Go_X	1.0
127.235	0.15	stopfail	0.301	Go_O	0.0
129.76799999999997	1.0	go	0.492	Go_O	1.0
132.30200000000002	0.1	stopfail	0.396	Go_X	0.0
134.83499999999998	0.05	stopsuccess	0.0	Go_O	1.0
137.368	1.0	go	0.4	Go_X	1.0
139.902	1.0	go	0.326	Go_O	1.0
142.435	1.0	go	0.443	Go_X	1.0
144.96800000000002	1.0	go	0.402	Go_X	1.0
147.50099999999998	0.1	stopsuccess	0.0	Go_X	1.0
150.03500000000003	1.0	go	0.319	Go_O	1.0
152.56799999999998	0.15	stopfail	0.425	Go_O	0.0
155.101	1.0	go	0.329	Go_X	1.0
157.635	1.0	go	0.24	Go_O	1.0
160.168	1.0	go	0.291	Go_X	1.0
162.70100000000002	1.0	go	0.445	Go_O	1.0
165.23399999999998	1.0	go	0.401	Go_X	1.0
167.76799999999997	1.0	go	0.298	Go_O	1.0
170.301	1.0	go	0.387	Go_O	1.0
172.834	1.0	go	0.342	Go_X	1.0
175.368	1.0	go	0.451	Go_X	1.0
177.901	0.1	stopsuccess	0.0	Go_X	1.0
180.43400000000003	1.0	go	0.283	Go_O	1.0
182.96699999999998	1.0	go	0.372	Go_O	1.0
185.50099999999998	1.0	go	0.398	Go_X	1.0
188.034	0.15	stopfail	0.307	Go_O	0.0
190.567	1.0	go	0.348	Go_X	1.0
193.101	1.0	go	0.426	Go_O	1.0
195.63400000000001	1.0	go	0.469	Go_O	1.0
198.16699999999997	1.0	go	0.329	Go_X	1.0
200.7	1.0	go	0.369	Go_X	1.0
203.23399999999998	1.0	go	0.271	Go_O	1.0
205.767	0.1	stopfail	0.278	Go_X	0.0
208.3	1.0	go	0.297	Go_O	1.0
210.834	1.0	go	0.293	Go_X	1.0
213.36699999999996	0.05	stopfail	0.281	Go_O	0.0
215.89999999999998	1.0	go	0.299	Go_O	0.0
218.433	1.0	go	0.368	Go_X	1.0
220.96699999999998	0.0	stopsuccess	0.0	Go_X	1.0
223.517	1.0	go	0.409	Go_X	1.0
226.05	0.05	stopsuccess	0.0	Go_O	1.0
228.58299999999997	1.0	go	0.307	Go_O	1.0
231.11699999999996	1.0	go	0.348	Go_X	1.0
233.64999999999998	1.0	go	0.501	Go_O	1.0
236.183	1.0	go	0.41	Go_X	1.0
238.716	1.0	go	0.469	Go_O	1.0
241.25	0.1	stopfail	0.396	Go_X	0.0
243.78299999999996	0.05	stopsuccess	0.0	Go_O	1.0
246.31599999999997	1.0	go	0.482	Go_X	1.0
248.84999999999997	1.0	go	0.482	Go_O	1.0
251.38299999999998	0.1	stopsuccess	0.0	Go_X	1.0
253.916	1.0	go	0.428	Go_O	0.0
256.449	1.0	go	0.44	Go_X	0.0
258.983	1.0	go	0.499	Go_O	1.0
261.51599999999996	1.0	go	0.41	Go_X	1.0
264.049	1.0	go	0.599	Go_X	1.0
266.58299999999997	1.0	go	0.387	Go_O	1.0
269.132	0.15	stopsuccess	0.0	Go_O	1.0
271.666	1.0	go	0.433	Go_X	1.0
274.199	1.0	go	0.38	Go_O	1.0
276.73199999999997	1.0	go	0.48	Go_O	1.0
279.26599999999996	1.0	go	0.419	Go_X	1.0
281.799	1.0	go	0.455	Go_X	1.0
284.332	0.2	stopfail	0.479	Go_X	0.0
286.865	1.0	go	0.253	Go_O	1.0
289.399	1.0	go	0.352	Go_X	1.0
291.93199999999996	1.0	go	0.299	Go_O	1.0
294.465	1.0	go	0.445	Go_O	1.0
296.99899999999997	0.15	stopsuccess	0.0	Go_O	1.0
299.532	1.0	go	0.341	Go_X	1.0
302.065	1.0	go	0.352	Go_X	0.0
304.598	0.2	stopfail	0.464	Go_X	0.0
307.132	1.0	go	0.426	Go_O	1.0
309.66499999999996	0.15	stopsuccess	0.0	Go_O	1.0
312.198	1.0	go	0.295	Go_X	1.0
314.73199999999997	1.0	go	0.359	Go_O	1.0
317.265	1.0	go	0.52	Go_O	1.0
319.798	1.0	go	0.514	Go_X	1.0
322.33099999999996	1.0	go	0.457	Go_X	1.0
324.865	1.0	go	0.565	Go_O	1.0
327.39799999999997	1.0	go	0.363	Go_X	1.0
329.931	0.2	stopsuccess	0.0	Go_X	1.0
332.465	1.0	go	0.427	Go_O	1.0
334.998	1.0	go	0.227	Go_X	1.0
337.531	1.0	go	0.306	Go_O	1.0
340.06399999999996	0.25	stopfail	0.444	Go_O	0.0
342.598	1.0	go	0.449	Go_X	1.0
345.131	1.0	go	0.456	Go_O	1.0
347.664	1.0	go	0.435	Go_X	1.0
350.198	1.0	go	0.49	Go_O	1.0
352.731	0.2	stopsuccess	0.0	Go_X	1.0
355.264	1.0	go	0.233	Go_O	1.0
357.79699999999997	1.0	go	0.325	Go_X	1.0
360.33099999999996	0.25	stopsuccess	0.0	Go_O	1.0
362.864	1.0	go	0.74	Go_O	1.0
365.397	1.0	go	0.502	Go_X	1.0
367.931	0.3	stopsuccess	0.0	Go_X	1.0
370.464	1.0	go	0.0	Go_X	0.0
372.997	1.0	go	0.431	Go_O	1.0
375.53	0.35	stopfail	0.45	Go_O	0.0
378.06399999999996	1.0	go	0.513	Go_O	1.0
380.597	1.0	go	0.37	Go_X	1.0
383.13	1.0	go	0.634	Go_O	1.0
385.664	1.0	go	0.235	Go_X	1.0
388.197	1.0	go	0.307	Go_X	0.0
390.72999999999996	1.0	go	0.605	Go_O	1.0
393.263	0.3	stopsuccess	0.0	Go_X	1.0
395.79699999999997	1.0	go	0.525	Go_O	1.0
398.33	0.35	stopfail	0.374	Go_O	0.0
400.863	1.0	go	0.389	Go_X	1.0
403.397	1.0	go	0.456	Go_X	1.0
405.93	1.0	go	0.37	Go_O	1.0
408.46299999999997	1.0	go	0.475	Go_O	1.0
410.996	1.0	go	0.322	Go_X	1.0
413.53	0.3	stopfail	0.36	Go_X	0.0
416.063	1.0	go	0.41	Go_X	1.0
418.596	1.0	go	0.334	Go_O	1.0
421.13	1.0	go	0.359	Go_X	1.0
423.663	0.25	stopfail	0.351	Go_O	0.0
426.19599999999997	0.2	stopfail	0.264	Go_X	0.0
428.729	0.15	stopfail	0.327	Go_O	0.0
431.263	1.0	go	0.432	Go_O	1.0
433.796	0.1	stopsuccess	0.0	Go_X	1.0
436.329	1.0	go	0.663	Go_X	1.0
438.863	1.0	go	0.378	Go_O	1.0
441.39599999999996	1.0	go	0.397	Go_O	1.0
443.929	1.0	go	0.432	Go_X	1.0
446.462	1.0	go	0.701	Go_O	0.0
448.996	1.0	go	0.435	Go_X	1.0
451.529	1.0	go	0.477	Go_X	1.0
454.062	1.0	go	0.436	Go_O	1.0
456.59599999999995	0.15	stopfail	0.478	Go_O	0.0
459.12899999999996	1.0	go	0.478	Go_O	1.0
461.662	1.0	go	0.53	Go_X	1.0
464.195	0.1	stopsuccess	0.0	Go_X	1.0
466.729	1.0	go	0.495	Go_X	1.0
469.262	1.0	go	0.429	Go_O	1.0
471.795	1.0	go	0.595	Go_X	1.0
474.329	1.0	go	0.447	Go_O	1.0
476.862	1.0	go	0.309	Go_X	1.0
479.39500000000004	0.15	stopfail	0.3	Go_O	0.0
481.92799999999994	1.0	go	0.644	Go_O	1.0
484.46199999999993	1.0	go	0.389	Go_X	1.0
486.99499999999995	1.0	go	0.633	Go_O	1.0
489.52799999999996	0.1	stopsuccess	0.0	Go_X	1.0
492.06199999999995	1.0	go	0.611	Go_O	1.0
494.59499999999997	0.15	stopsuccess	0.0	Go_O	1.0
497.128	1.0	go	0.601	Go_X	1.0
499.661	1.0	go	0.327	Go_X	1.0
502.195	1.0	go	0.327	Go_O	1.0
504.728	1.0	go	0.548	Go_X	1.0
507.261	1.0	go	0.384	Go_O	1.0
509.795	1.0	go	0.47	Go_O	1.0
512.3280000000001	1.0	go	0.437	Go_X	1.0
514.861	0.2	stopfail	0.377	Go_X	0.0
517.394	1.0	go	0.326	Go_O	1.0
519.928	1.0	go	0.441	Go_X	1.0
522.461	1.0	go	0.541	Go_X	1.0
524.994	1.0	go	0.497	Go_O	1.0
527.528	0.15	stopsuccess	0.0	Go_O	1.0
530.061	1.0	go	0.569	Go_X	1.0
532.594	0.2	stopsuccess	0.0	Go_X	1.0
535.1270000000001	1.0	go	0.648	Go_O	1.0
537.6610000000001	1.0	go	0.494	Go_O	1.0
540.1940000000001	0.25	stopfail	0.496	Go_O	0.0
542.7270000000001	1.0	go	0.235	Go_X	1.0
545.2610000000001	1.0	go	0.449	Go_X	1.0
547.7940000000001	1.0	go	0.282	Go_O	1.0
550.327	1.0	go	0.393	Go_X	1.0
552.86	1.0	go	0.229	Go_O	1.0
555.394	1.0	go	0.184	Go_X	1.0
557.927	1.0	go	0.219	Go_O	1.0
560.46	1.0	go	0.529	Go_O	1.0
562.994	1.0	go	0.234	Go_X	1.0
565.527	1.0	go	0.179	Go_X	0.0
568.0600000000001	0.2	stopfail	0.41	Go_X	0.0
570.5930000000001	1.0	go	0.445	Go_O	1.0
573.1270000000001	1.0	go	0.414	Go_O	1.0
575.6600000000001	0.15	stopfail	0.394	Go_O	0.0
578.1930000000001	1.0	go	0.453	Go_X	1.0
580.7270000000001	0.1	stopsuccess	0.0	Go_X	1.0
583.26	1.0	go	0.301	Go_O	1.0
585.793	1.0	go	0.468	Go_X	1.0
588.326	0.15	stopsuccess	0.0	Go_O	1.0
590.86	1.0	go	0.562	Go_O	1.0
593.393	0.2	stopsuccess	0.0	Go_X	1.0
595.926	1.0	go	0.572	Go_X	1.0
598.46	1.0	go	0.343	Go_O	1.0
600.993	1.0	go	0.395	Go_X	1.0
603.5260000000001	0.25	stopfail	0.313	Go_O	0.0
606.0590000000001	1.0	go	0.328	Go_X	1.0
608.5930000000001	1.0	go	0.214	Go_O	1.0
611.1260000000001	1.0	go	0.27	Go_X	1.0
613.659	1.0	go	0.209	Go_O	1.0
616.1930000000001	0.2	stopfail	0.203	Go_X	0.0
618.726	1.0	go	0.521	Go_X	1.0
621.259	1.0	go	0.47	Go_O	1.0
623.792	0.15	stopfail	0.477	Go_O	0.0
626.326	1.0	go	0.395	Go_X	1.0
628.859	1.0	go	0.371	Go_O	1.0
631.392	1.0	go	0.513	Go_O	1.0
633.926	1.0	go	0.591	Go_X	1.0
636.4590000000001	0.1	stopsuccess	0.0	Go_X	1.0
638.9920000000001	1.0	go	0.317	Go_O	1.0
641.5250000000001	0.15	stopfail	0.338	Go_O	0.0
644.0590000000001	1.0	go	0.397	Go_X	1.0
646.5920000000001	1.0	go	0.424	Go_X	1.0
649.125	0.1	stopsuccess	0.0	Go_X	1.0
651.659	1.0	go	0.445	Go_O	1.0
654.192	1.0	go	0.565	Go_O	1.0
656.725	1.0	go	0.456	Go_X	1.0
659.258	1.0	go	0.503	Go_X	1.0
661.792	0.15	stopfail	0.466	Go_O	0.0
664.325	1.0	go	0.689	Go_O	1.0
666.8580000000001	0.1	stopfail	0.445	Go_X	0.0
669.392	1.0	go	0.43	Go_X	1.0
671.9250000000001	1.0	go	0.578	Go_O	1.0
674.4580000000001	1.0	go	0.744	Go_O	1.0
676.9910000000001	1.0	go	0.495	Go_X	1.0
679.5250000000001	1.0	go	0.417	Go_X	1.0
682.058	1.0	go	0.279	Go_O	1.0
684.591	0.05	stopsuccess	0.0	Go_O	1.0
687.125	1.0	go	0.431	Go_X	1.0
689.658	1.0	go	0.282	Go_O	1.0
692.191	0.1	stopsuccess	0.0	Go_X	1.0
694.724	1.0	go	0.433	Go_O	1.0
697.258	1.0	go	0.347	Go_X	1.0
699.791	0.15	stopsuccess	0.0	Go_O	1.0
702.3240000000001	1.0	go	0.431	Go_O	1.0
704.8580000000001	1.0	go	0.301	Go_X	1.0
707.407	1.0	go	0.296	Go_O	1.0
709.941	1.0	go	0.379	Go_X	1.0
712.474	0.2	stopsuccess	0.0	Go_X	1.0
715.0070000000001	1.0	go	0.164	Go_O	1.0
717.541	0.25	stopfail	0.432	Go_O	0.0
720.0740000000001	1.0	go	0.406	Go_X	0.0
722.6070000000001	1.0	go	0.268	Go_X	1.0
725.14	1.0	go	0.449	Go_O	1.0
727.6740000000001	1.0	go	0.231	Go_X	1.0
730.207	1.0	go	0.552	Go_O	1.0
732.74	0.2	stopfail	0.37	Go_X	0.0
735.274	1.0	go	0.331	Go_O	1.0
737.807	1.0	go	0.362	Go_X	1.0
740.34	0.15	stopfail	0.257	Go_O	0.0
742.873	0.1	stopsuccess	0.0	Go_X	1.0
745.407	1.0	go	0.522	Go_X	1.0
747.94	1.0	go	0.333	Go_O	1.0
750.4730000000001	1.0	go	0.518	Go_X	1.0
753.0070000000001	1.0	go	0.396	Go_O	0.0
755.5400000000001	0.15	stopsuccess	0.0	Go_O	1.0
758.0730000000001	1.0	go	0.512	Go_O	0.0
