frame	onset	duration	trial_type	event_type	response_type	response_time	stim_file	accuracy
0	77.703		loss-reward	ImageDisplay1		0.0		
0	79.936	0.75	loss-reward	StartDisplay				
0	80.686		loss-reward	ImageDisplay2		0.0		
0	83.686	1.6	loss-reward	ChoiceDisplay	1	0.915	1	1
0	84.62	0.685	loss-reward	ChosenDisplay		0.0		
0	85.286	0.25	loss-reward	TurnDisplay				
0	85.536	0.75	loss-reward	OutcomeDisplay				
1	86.286		control-reward	ImageDisplay1		0.0		
1	88.536	0.75	control-reward	StartDisplay				
1	89.286		control-reward	ImageDisplay2		0.0		
1	92.286	1.6	control-reward	ChoiceDisplay	1	0.827	1	1
1	93.136	0.773	control-reward	ChosenDisplay		0.0		
1	93.886	0.25	control-reward	TurnDisplay				
1	94.136	0.75	control-reward	OutcomeDisplay				
2	94.886		control-reward	ImageDisplay1		0.0		
2	96.886	0.75	control-reward	StartDisplay				
2	97.636		control-reward	ImageDisplay2		0.0		
2	100.886	1.6	control-reward	ChoiceDisplay	1	0.691	1	1
2	101.603	0.909	control-reward	ChosenDisplay		0.0		
2	102.486	0.25	control-reward	TurnDisplay				
2	102.736	0.75	control-reward	OutcomeDisplay				
3	103.486		loss-noreward	ImageDisplay1		0.0		
3	105.486	0.75	loss-noreward	StartDisplay				
3	106.236		loss-noreward	ImageDisplay2		0.0		
3	109.486	1.6	loss-noreward	ChoiceDisplay	1	0.866	1	1
3	110.369	0.734	loss-noreward	ChosenDisplay		0.0		
3	111.086	0.25	loss-noreward	TurnDisplay				
3	111.336	0.75	loss-noreward	OutcomeDisplay				
4	112.086		loss-reward	ImageDisplay1		0.0		
4	114.086	0.75	loss-reward	StartDisplay				
4	114.836		loss-reward	ImageDisplay2		0.0		
4	118.086	1.6	loss-reward	ChoiceDisplay	1	1.021	1	1
4	119.119	0.579	loss-reward	ChosenDisplay		0.0		
4	119.686	0.25	loss-reward	TurnDisplay				
4	119.936	0.75	loss-reward	OutcomeDisplay				
5	120.686		loss-noreward	ImageDisplay1		0.0		
5	122.686	0.75	loss-noreward	StartDisplay				
5	123.436		loss-noreward	ImageDisplay2		0.0		
5	126.686	1.6	loss-noreward	ChoiceDisplay	1	1.011	1	1
5	127.719	0.589	loss-noreward	ChosenDisplay		0.0		
5	128.286	0.25	loss-noreward	TurnDisplay				
5	128.536	0.75	loss-noreward	OutcomeDisplay				
6	129.286		loss-reward	ImageDisplay1		0.0		
6	131.285	0.75	loss-reward	StartDisplay				
6	132.035		loss-reward	ImageDisplay2		0.0		
6	135.285	1.6	loss-reward	ChoiceDisplay	1	1.015	1	1
6	136.319	0.585	loss-reward	ChosenDisplay		0.0		
6	136.885	0.25	loss-reward	TurnDisplay				
6	137.135	0.75	loss-reward	OutcomeDisplay				
7	137.885		loss-reward	ImageDisplay1		0.0		
7	140.135	0.75	loss-reward	StartDisplay				
7	140.885		loss-reward	ImageDisplay2		0.0		
7	143.885	1.6	loss-reward	ChoiceDisplay	1	1.305	1	1
7	145.202	0.295	loss-reward	ChosenDisplay		0.0		
7	145.485	0.25	loss-reward	TurnDisplay				
7	145.735	0.75	loss-reward	OutcomeDisplay				
8	146.485		win-reward	ImageDisplay1		0.0		
8	148.485	0.75	win-reward	StartDisplay				
8	149.235		win-reward	ImageDisplay2		0.0		
8	152.485	1.6	win-reward	ChoiceDisplay	1	0.983	1	1
8	153.485	0.617	win-reward	ChosenDisplay		0.0		
8	154.085	0.25	win-reward	TurnDisplay				
8	154.335	0.75	win-reward	OutcomeDisplay				
9	155.085		loss-reward	ImageDisplay1		0.0		
9	157.085	0.75	loss-reward	StartDisplay				
9	157.835		loss-reward	ImageDisplay2		0.0		
9	161.085	1.6	loss-reward	ChoiceDisplay	1	0.872	1	1
9	161.985	0.728	loss-reward	ChosenDisplay		0.0		
9	162.685	0.25	loss-reward	TurnDisplay				
9	162.935	0.75	loss-reward	OutcomeDisplay				
10	163.685		control-noreward	ImageDisplay1		0.0		
10	165.935	0.75	control-noreward	StartDisplay				
10	166.685		control-noreward	ImageDisplay2		0.0		
10	169.685	1.6	control-noreward	ChoiceDisplay	1	0.248	1	1
10	169.951	1.352	control-noreward	ChosenDisplay		0.0		
10	171.285	0.25	control-noreward	TurnDisplay				
10	171.535	0.75	control-noreward	OutcomeDisplay				
11	172.285		control-reward	ImageDisplay1		0.0		
11	174.535	0.75	control-reward	StartDisplay				
11	175.285		control-reward	ImageDisplay2		0.0		
11	178.285	1.6	control-reward	ChoiceDisplay	1	1.17	1	1
11	179.468	0.43	control-reward	ChosenDisplay		0.0		
11	179.885	0.25	control-reward	TurnDisplay				
11	180.135	0.75	control-reward	OutcomeDisplay				
12	180.885		control-noreward	ImageDisplay1		0.0		
12	183.135	0.75	control-noreward	StartDisplay				
12	183.884		control-noreward	ImageDisplay2		0.0		
12	186.884	1.6	control-noreward	ChoiceDisplay	1	0.605	1	1
12	187.501	0.995	control-noreward	ChosenDisplay		0.0		
12	188.484	0.25	control-noreward	TurnDisplay				
12	188.734	0.75	control-noreward	OutcomeDisplay				
13	189.484		loss-reward	ImageDisplay1		0.0		
13	191.484	0.75	loss-reward	StartDisplay				
13	192.234		loss-reward	ImageDisplay2		0.0		
13	195.484	1.6	loss-reward	ChoiceDisplay	1	1.102	1	1
13	196.601	0.498	loss-reward	ChosenDisplay		0.0		
13	197.084	0.25	loss-reward	TurnDisplay				
13	197.334	0.75	loss-reward	OutcomeDisplay				
14	198.084		win-noreward	ImageDisplay1		0.0		
14	200.084	0.75	win-noreward	StartDisplay				
14	200.834		win-noreward	ImageDisplay2		0.0		
14	204.084	1.6	win-noreward	ChoiceDisplay	1	1.007	1	1
14	205.117	0.593	win-noreward	ChosenDisplay		0.0		
14	205.684	0.25	win-noreward	TurnDisplay				
14	205.934	0.75	win-noreward	OutcomeDisplay				
15	206.684		control-noreward	ImageDisplay1		0.0		
15	208.934	0.75	control-noreward	StartDisplay				
15	209.684		control-noreward	ImageDisplay2		0.0		
15	212.684	1.6	control-noreward	ChoiceDisplay	1	0.525	1	1
15	213.234	1.075	control-noreward	ChosenDisplay		0.0		
15	214.284	0.25	control-noreward	TurnDisplay				
15	214.534	0.75	control-noreward	OutcomeDisplay				
16	215.284		loss-noreward	ImageDisplay1		0.0		
16	217.534	0.75	loss-noreward	StartDisplay				
16	218.284		loss-noreward	ImageDisplay2		0.0		
16	221.284	1.6	loss-noreward	ChoiceDisplay	1	0.884	1	1
16	222.184	0.716	loss-noreward	ChosenDisplay		0.0		
16	222.884	0.25	loss-noreward	TurnDisplay				
16	223.134	0.75	loss-noreward	OutcomeDisplay				
17	223.884		loss-noreward	ImageDisplay1		0.0		
17	226.134	0.75	loss-noreward	StartDisplay				
17	226.884		loss-noreward	ImageDisplay2		0.0		
17	229.884	1.6	loss-noreward	ChoiceDisplay	1	1.229	1	1
17	231.134	0.371	loss-noreward	ChosenDisplay		0.0		
17	231.484	0.25	loss-noreward	TurnDisplay				
17	231.734	0.75	loss-noreward	OutcomeDisplay				
18	232.484		control-reward	ImageDisplay1		0.0		
18	234.484	0.75	control-reward	StartDisplay				
18	235.233		control-reward	ImageDisplay2		0.0		
18	238.483	1.6	control-reward	ChoiceDisplay	1	0.301	1	1
18	238.8	1.299	control-reward	ChosenDisplay		0.0		
18	240.083	0.25	control-reward	TurnDisplay				
18	240.333	0.75	control-reward	OutcomeDisplay				
19	241.083		win-noreward	ImageDisplay1		0.0		
19	243.333	0.75	win-noreward	StartDisplay				
19	244.083		win-noreward	ImageDisplay2		0.0		
19	247.083	1.6	win-noreward	ChoiceDisplay	1	1.088	1	1
19	248.183	0.512	win-noreward	ChosenDisplay		0.0		
19	248.683	0.25	win-noreward	TurnDisplay				
19	248.933	0.75	win-noreward	OutcomeDisplay				
20	249.683		win-reward	ImageDisplay1		0.0		
20	251.933	0.75	win-reward	StartDisplay				
20	252.683		win-reward	ImageDisplay2		0.0		
20	255.683	1.6	win-reward	ChoiceDisplay	1	1.321	1	1
20	257.016	0.279	win-reward	ChosenDisplay		0.0		
20	257.283	0.25	win-reward	TurnDisplay				
20	257.533	0.75	win-reward	OutcomeDisplay				
21	258.283		loss-reward	ImageDisplay1		0.0		
21	260.533	0.75	loss-reward	StartDisplay				
21	261.283		loss-reward	ImageDisplay2		0.0		
21	264.283	1.6	loss-reward	ChoiceDisplay	1	0.882	1	1
21	265.183	0.718	loss-reward	ChosenDisplay		0.0		
21	265.883	0.25	loss-reward	TurnDisplay				
21	266.133	0.75	loss-reward	OutcomeDisplay				
22	266.883		control-noreward	ImageDisplay1		0.0		
22	269.133	0.75	control-noreward	StartDisplay				
22	269.883		control-noreward	ImageDisplay2		0.0		
22	272.883	1.6	control-noreward	ChoiceDisplay	1	0.922	1	1
22	273.816	0.678	control-noreward	ChosenDisplay		0.0		
22	274.483	0.25	control-noreward	TurnDisplay				
22	274.733	0.75	control-noreward	OutcomeDisplay				
23	275.483		win-reward	ImageDisplay1		0.0		
23	277.733	0.75	win-reward	StartDisplay				
23	278.483		win-reward	ImageDisplay2		0.0		
23	281.483	1.6	win-reward	ChoiceDisplay	1	0.966	1	1
23	282.466	0.634	win-reward	ChosenDisplay		0.0		
23	283.083	0.25	win-reward	TurnDisplay				
23	283.333	0.75	win-reward	OutcomeDisplay				
24	284.083		control-noreward	ImageDisplay1		0.0		
24	286.083	0.75	control-noreward	StartDisplay				
24	286.833		control-noreward	ImageDisplay2		0.0		
24	290.082	1.6	control-noreward	ChoiceDisplay		0.0		
24	291.682	0.0	control-noreward	ChosenDisplay		0.0		
24	291.699	0.25	control-noreward	TurnDisplay				
24	291.932	0.75	control-noreward	OutcomeDisplay				
25	292.682		loss-noreward	ImageDisplay1		0.0		
25	294.682	0.75	loss-noreward	StartDisplay				
25	295.432		loss-noreward	ImageDisplay2		0.0		
25	298.682	1.6	loss-noreward	ChoiceDisplay	1	1.134	1	1
25	299.832	0.466	loss-noreward	ChosenDisplay		0.0		
25	300.282	0.25	loss-noreward	TurnDisplay				
25	300.532	0.75	loss-noreward	OutcomeDisplay				
26	301.282		win-reward	ImageDisplay1		0.0		
26	303.532	0.75	win-reward	StartDisplay				
26	304.282		win-reward	ImageDisplay2		0.0		
26	307.282	1.6	win-reward	ChoiceDisplay	1	0.829	1	1
26	308.132	0.771	win-reward	ChosenDisplay		0.0		
26	308.882	0.25	win-reward	TurnDisplay				
26	309.132	0.75	win-reward	OutcomeDisplay				
27	309.882		control-noreward	ImageDisplay1		0.0		
27	311.882	0.75	control-noreward	StartDisplay				
27	312.632		control-noreward	ImageDisplay2		0.0		
27	315.882	1.6	control-noreward	ChoiceDisplay	1	0.913	1	1
27	316.815	0.687	control-noreward	ChosenDisplay		0.0		
27	317.482	0.25	control-noreward	TurnDisplay				
27	317.732	0.75	control-noreward	OutcomeDisplay				
28	318.482		win-reward	ImageDisplay1		0.0		
28	320.732	0.75	win-reward	StartDisplay				
28	321.482		win-reward	ImageDisplay2		0.0		
28	324.482	1.6	win-reward	ChoiceDisplay	1	1.263	1	1
28	325.765	0.337	win-reward	ChosenDisplay		0.0		
28	326.082	0.25	win-reward	TurnDisplay				
28	326.332	0.75	win-reward	OutcomeDisplay				
29	327.082		control-reward	ImageDisplay1		0.0		
29	329.082	0.75	control-reward	StartDisplay				
29	329.832		control-reward	ImageDisplay2		0.0		
29	333.082	1.6	control-reward	ChoiceDisplay	1	1.303	1	1
29	334.398	0.297	control-reward	ChosenDisplay		0.0		
29	334.682	0.25	control-reward	TurnDisplay				
29	334.932	0.75	control-reward	OutcomeDisplay				
30	335.682		loss-reward	ImageDisplay1		0.0		
30	337.682	0.75	loss-reward	StartDisplay				
30	338.432		loss-reward	ImageDisplay2		0.0		
30	341.681	1.6	loss-reward	ChoiceDisplay	1	0.897	1	1
30	342.598	0.703	loss-reward	ChosenDisplay		0.0		
30	343.281	0.25	loss-reward	TurnDisplay				
30	343.531	0.75	loss-reward	OutcomeDisplay				
31	344.281		loss-reward	ImageDisplay1		0.0		
31	346.281	0.75	loss-reward	StartDisplay				
31	347.031		loss-reward	ImageDisplay2		0.0		
31	350.281	1.6	loss-reward	ChoiceDisplay	1	1.032	1	1
31	351.331	0.568	loss-reward	ChosenDisplay		0.0		
31	351.881	0.25	loss-reward	TurnDisplay				
31	352.131	0.75	loss-reward	OutcomeDisplay				
32	352.881		control-reward	ImageDisplay1		0.0		
32	354.881	0.75	control-reward	StartDisplay				
32	355.631		control-reward	ImageDisplay2		0.0		
32	358.881	1.6	control-reward	ChoiceDisplay	1	1.045	1	1
32	359.948	0.555	control-reward	ChosenDisplay		0.0		
32	360.481	0.25	control-reward	TurnDisplay				
32	360.731	0.75	control-reward	OutcomeDisplay				
33	361.481		win-reward	ImageDisplay1		0.0		
33	363.731	0.75	win-reward	StartDisplay				
33	364.481		win-reward	ImageDisplay2		0.0		
33	367.481	1.6	win-reward	ChoiceDisplay	1	1.009	1	1
33	368.514	0.591	win-reward	ChosenDisplay		0.0		
33	369.081	0.25	win-reward	TurnDisplay				
33	369.331	0.75	win-reward	OutcomeDisplay				
34	370.081		loss-noreward	ImageDisplay1		0.0		
34	372.081	0.75	loss-noreward	StartDisplay				
34	372.831		loss-noreward	ImageDisplay2		0.0		
34	376.081	1.6	loss-noreward	ChoiceDisplay	1	0.846	1	1
34	376.947	0.754	loss-noreward	ChosenDisplay		0.0		
34	377.681	0.25	loss-noreward	TurnDisplay				
34	377.931	0.75	loss-noreward	OutcomeDisplay				
35	378.681		loss-noreward	ImageDisplay1		0.0		
35	380.931	0.75	loss-noreward	StartDisplay				
35	381.681		loss-noreward	ImageDisplay2		0.0		
35	384.681	1.6	loss-noreward	ChoiceDisplay	1	0.676	1	1
35	385.381	0.924	loss-noreward	ChosenDisplay		0.0		
35	386.281	0.25	loss-noreward	TurnDisplay				
35	386.531	0.75	loss-noreward	OutcomeDisplay				
36	387.281		loss-noreward	ImageDisplay1		0.0		
36	389.531	0.75	loss-noreward	StartDisplay				
36	390.281		loss-noreward	ImageDisplay2		0.0		
36	393.281	1.6	loss-noreward	ChoiceDisplay	1	1.08	1	1
36	394.38	0.52	loss-noreward	ChosenDisplay		0.0		
36	394.88	0.25	loss-noreward	TurnDisplay				
36	395.13	0.75	loss-noreward	OutcomeDisplay				
37	395.88		win-noreward	ImageDisplay1		0.0		
37	398.13	0.75	win-noreward	StartDisplay				
37	398.88		win-noreward	ImageDisplay2		0.0		
37	401.88	1.6	win-noreward	ChoiceDisplay	1	1.28	1	1
37	403.18	0.32	win-noreward	ChosenDisplay		0.0		
37	403.48	0.25	win-noreward	TurnDisplay				
37	403.73	0.75	win-noreward	OutcomeDisplay				
38	404.48		win-noreward	ImageDisplay1		0.0		
38	406.73	0.75	win-noreward	StartDisplay				
38	407.48		win-noreward	ImageDisplay2		0.0		
38	410.48	1.6	win-noreward	ChoiceDisplay	1	0.847	1	1
38	411.347	0.753	win-noreward	ChosenDisplay		0.0		
38	412.08	0.25	win-noreward	TurnDisplay				
38	412.33	0.75	win-noreward	OutcomeDisplay				
39	413.08		control-noreward	ImageDisplay1		0.0		
39	415.08	0.75	control-noreward	StartDisplay				
39	415.83		control-noreward	ImageDisplay2		0.0		
39	419.08	1.6	control-noreward	ChoiceDisplay	1	1.43	1	1
39	420.53	0.17	control-noreward	ChosenDisplay		0.0		
39	420.68	0.25	control-noreward	TurnDisplay				
39	420.93	0.75	control-noreward	OutcomeDisplay				
40	421.68		win-reward	ImageDisplay1		0.0		
40	423.68	0.75	win-reward	StartDisplay				
40	424.43		win-reward	ImageDisplay2		0.0		
40	427.68	1.6	win-reward	ChoiceDisplay	1	1.251	1	1
40	428.947	0.349	win-reward	ChosenDisplay		0.0		
40	429.28	0.25	win-reward	TurnDisplay				
40	429.53	0.75	win-reward	OutcomeDisplay				
41	430.28		win-reward	ImageDisplay1		0.0		
41	432.53	0.75	win-reward	StartDisplay				
41	433.28		win-reward	ImageDisplay2		0.0		
41	436.28	1.6	win-reward	ChoiceDisplay	1	1.109	1	1
41	437.413	0.491	win-reward	ChosenDisplay		0.0		
41	437.88	0.25	win-reward	TurnDisplay				
41	438.13	0.75	win-reward	OutcomeDisplay				
42	438.88		loss-reward	ImageDisplay1		0.0		
42	441.13	0.75	loss-reward	StartDisplay				
42	441.88		loss-reward	ImageDisplay2		0.0		
42	444.88	1.6	loss-reward	ChoiceDisplay	1	1.254	1	1
42	446.146	0.346	loss-reward	ChosenDisplay		0.0		
42	446.479	0.25	loss-reward	TurnDisplay				
42	446.729	0.75	loss-reward	OutcomeDisplay				
43	447.479		loss-reward	ImageDisplay1		0.0		
43	449.729	0.75	loss-reward	StartDisplay				
43	450.479		loss-reward	ImageDisplay2		0.0		
43	453.479	1.6	loss-reward	ChoiceDisplay	1	1.249	1	1
43	454.746	0.351	loss-reward	ChosenDisplay		0.0		
43	455.079	0.25	loss-reward	TurnDisplay				
43	455.329	0.75	loss-reward	OutcomeDisplay				
44	456.079		control-reward	ImageDisplay1		0.0		
44	458.079	0.75	control-reward	StartDisplay				
44	458.829		control-reward	ImageDisplay2		0.0		
44	462.079	1.6	control-reward	ChoiceDisplay	1	0.46	1	1
44	462.563	1.14	control-reward	ChosenDisplay		0.0		
44	463.679	0.25	control-reward	TurnDisplay				
44	463.929	0.75	control-reward	OutcomeDisplay				
45	464.679		control-reward	ImageDisplay1		0.0		
45	466.929	0.75	control-reward	StartDisplay				
45	467.679		control-reward	ImageDisplay2		0.0		
45	470.679	1.6	control-reward	ChoiceDisplay	1	1.103	1	1
45	471.796	0.497	control-reward	ChosenDisplay		0.0		
45	472.279	0.25	control-reward	TurnDisplay				
45	472.529	0.75	control-reward	OutcomeDisplay				
46	473.279		win-reward	ImageDisplay1		0.0		
46	475.529	0.75	win-reward	StartDisplay				
46	476.279		win-reward	ImageDisplay2		0.0		
46	479.279	1.6	win-reward	ChoiceDisplay	1	1.31	1	1
46	480.612	0.29	win-reward	ChosenDisplay		0.0		
46	480.879	0.25	win-reward	TurnDisplay				
46	481.129	0.75	win-reward	OutcomeDisplay				
47	481.879		control-noreward	ImageDisplay1		0.0		
47	483.879	0.75	control-noreward	StartDisplay				
47	484.629		control-noreward	ImageDisplay2		0.0		
47	487.879	1.6	control-noreward	ChoiceDisplay	1	1.335	1	1
47	489.229	0.265	control-noreward	ChosenDisplay		0.0		
47	489.479	0.25	control-noreward	TurnDisplay				
47	489.729	0.75	control-noreward	OutcomeDisplay				
48	490.479		win-reward	ImageDisplay1		0.0		
48	492.479	0.75	win-reward	StartDisplay				
48	493.229		win-reward	ImageDisplay2		0.0		
48	496.479	1.6	win-reward	ChoiceDisplay	1	1.283	1	1
48	497.779	0.317	win-reward	ChosenDisplay		0.0		
48	498.079	0.25	win-reward	TurnDisplay				
48	498.329	0.75	win-reward	OutcomeDisplay				
49	499.078		win-noreward	ImageDisplay1		0.0		
49	501.328	0.75	win-noreward	StartDisplay				
49	502.078		win-noreward	ImageDisplay2		0.0		
49	505.078	1.6	win-noreward	ChoiceDisplay	1	1.467	1	1
49	506.562	0.133	win-noreward	ChosenDisplay		0.0		
49	506.678	0.25	win-noreward	TurnDisplay				
49	506.928	0.75	win-noreward	OutcomeDisplay				
50	507.678		loss-noreward	ImageDisplay1		0.0		
50	509.928	0.75	loss-noreward	StartDisplay				
50	510.678		loss-noreward	ImageDisplay2		0.0		
50	513.678	1.6	loss-noreward	ChoiceDisplay	1	0.968	1	1
50	514.662	0.632	loss-noreward	ChosenDisplay		0.0		
50	515.278	0.25	loss-noreward	TurnDisplay				
50	515.528	0.75	loss-noreward	OutcomeDisplay				
51	516.278		loss-noreward	ImageDisplay1		0.0		
51	518.278	0.75	loss-noreward	StartDisplay				
51	519.028		loss-noreward	ImageDisplay2		0.0		
51	522.278	1.6	loss-noreward	ChoiceDisplay	1	1.516	1	1
51	523.811	0.0	loss-noreward	ChosenDisplay		0.0		
51	523.895	0.25	loss-noreward	TurnDisplay				
51	524.045	0.75	loss-noreward	OutcomeDisplay				
52	524.795		win-reward	ImageDisplay1		0.0		
52	526.795	0.75	win-reward	StartDisplay				
52	527.545		win-reward	ImageDisplay2		0.0		
52	530.795	1.6	win-reward	ChoiceDisplay	1	1.141	1	1
52	531.961	0.459	win-reward	ChosenDisplay		0.0		
52	532.395	0.25	win-reward	TurnDisplay				
52	532.645	0.75	win-reward	OutcomeDisplay				
53	533.395		control-reward	ImageDisplay1		0.0		
53	535.644	0.75	control-reward	StartDisplay				
53	536.394		control-reward	ImageDisplay2		0.0		
53	539.394	1.6	control-reward	ChoiceDisplay	1	0.96	1	1
53	540.378	0.64	control-reward	ChosenDisplay		0.0		
53	540.994	0.25	control-reward	TurnDisplay				
53	541.244	0.75	control-reward	OutcomeDisplay				
54	541.994		loss-noreward	ImageDisplay1		0.0		
54	544.244	0.75	loss-noreward	StartDisplay				
54	544.994		loss-noreward	ImageDisplay2		0.0		
54	547.994	1.6	loss-noreward	ChoiceDisplay	1	1.251	1	1
54	549.261	0.349	loss-noreward	ChosenDisplay		0.0		
54	549.594	0.25	loss-noreward	TurnDisplay				
54	549.844	0.75	loss-noreward	OutcomeDisplay				
55	550.594		win-noreward	ImageDisplay1		0.0		
55	552.594	0.75	win-noreward	StartDisplay				
55	553.344		win-noreward	ImageDisplay2		0.0		
55	556.594	1.6	win-noreward	ChoiceDisplay	1	1.107	1	1
55	557.727	0.493	win-noreward	ChosenDisplay		0.0		
55	558.194	0.25	win-noreward	TurnDisplay				
55	558.444	0.75	win-noreward	OutcomeDisplay				
56	559.194		control-reward	ImageDisplay1		0.0		
56	561.194	0.75	control-reward	StartDisplay				
56	561.944		control-reward	ImageDisplay2		0.0		
56	565.194	1.6	control-reward	ChoiceDisplay	1	0.412	1	1
56	565.627	1.188	control-reward	ChosenDisplay		0.0		
56	566.794	0.25	control-reward	TurnDisplay				
56	567.044	0.75	control-reward	OutcomeDisplay				
57	567.794		loss-noreward	ImageDisplay1		0.0		
57	570.044	0.75	loss-noreward	StartDisplay				
57	570.794		loss-noreward	ImageDisplay2		0.0		
57	573.794	1.6	loss-noreward	ChoiceDisplay	1	0.895	1	1
57	574.71	0.705	loss-noreward	ChosenDisplay		0.0		
57	575.394	0.25	loss-noreward	TurnDisplay				
57	575.644	0.75	loss-noreward	OutcomeDisplay				
58	576.394		control-noreward	ImageDisplay1		0.0		
58	578.644	0.75	control-noreward	StartDisplay				
58	579.394		control-noreward	ImageDisplay2		0.0		
58	582.394	1.6	control-noreward	ChoiceDisplay	1	0.947	1	1
58	583.36	0.653	control-noreward	ChosenDisplay		0.0		
58	583.994	0.25	control-noreward	TurnDisplay				
58	584.244	0.75	control-noreward	OutcomeDisplay				
59	584.994		win-noreward	ImageDisplay1		0.0		
59	586.993	0.75	win-noreward	StartDisplay				
59	587.743		win-noreward	ImageDisplay2		0.0		
59	590.993	1.6	win-noreward	ChoiceDisplay	1	1.271	1	1
59	592.277	0.329	win-noreward	ChosenDisplay		0.0		
59	592.593	0.25	win-noreward	TurnDisplay				
59	592.843	0.75	win-noreward	OutcomeDisplay				
60	593.593		loss-reward	ImageDisplay1		0.0		
60	595.843	0.75	loss-reward	StartDisplay				
60	596.593		loss-reward	ImageDisplay2		0.0		
60	599.593	1.6	loss-reward	ChoiceDisplay	1	0.967	1	1
60	600.577	0.633	loss-reward	ChosenDisplay		0.0		
60	601.193	0.25	loss-reward	TurnDisplay				
60	601.443	0.75	loss-reward	OutcomeDisplay				
61	602.193		control-reward	ImageDisplay1		0.0		
61	604.443	0.75	control-reward	StartDisplay				
61	605.193		control-reward	ImageDisplay2		0.0		
61	608.193	1.6	control-reward	ChoiceDisplay	1	0.998	1	1
61	609.21	0.602	control-reward	ChosenDisplay		0.0		
61	609.793	0.25	control-reward	TurnDisplay				
61	610.043	0.75	control-reward	OutcomeDisplay				
62	610.793		control-noreward	ImageDisplay1		0.0		
62	613.043	0.75	control-noreward	StartDisplay				
62	613.793		control-noreward	ImageDisplay2		0.0		
62	616.793	1.6	control-noreward	ChoiceDisplay	1	1.086	1	1
62	617.893	0.514	control-noreward	ChosenDisplay		0.0		
62	618.393	0.25	control-noreward	TurnDisplay				
62	618.643	0.75	control-noreward	OutcomeDisplay				
63	619.393		control-reward	ImageDisplay1		0.0		
63	621.643	0.75	control-reward	StartDisplay				
63	622.393		control-reward	ImageDisplay2		0.0		
63	625.393	1.6	control-reward	ChoiceDisplay	1	0.655	1	1
63	626.076	0.945	control-reward	ChosenDisplay		0.0		
63	626.993	0.25	control-reward	TurnDisplay				
63	627.243	0.75	control-reward	OutcomeDisplay				
64	627.993		loss-noreward	ImageDisplay1		0.0		
64	629.993	0.75	loss-noreward	StartDisplay				
64	630.743		loss-noreward	ImageDisplay2		0.0		
64	633.993	1.6	loss-noreward	ChoiceDisplay	1	1.028	1	1
64	635.043	0.572	loss-noreward	ChosenDisplay		0.0		
64	635.593	0.25	loss-noreward	TurnDisplay				
64	635.843	0.75	loss-noreward	OutcomeDisplay				
65	636.593		control-noreward	ImageDisplay1		0.0		
65	638.842	0.75	control-noreward	StartDisplay				
65	639.592		control-noreward	ImageDisplay2		0.0		
65	642.592	1.6	control-noreward	ChoiceDisplay	1	1.295	1	1
65	643.909	0.305	control-noreward	ChosenDisplay		0.0		
65	644.192	0.25	control-noreward	TurnDisplay				
65	644.442	0.75	control-noreward	OutcomeDisplay				
66	645.192		control-reward	ImageDisplay1		0.0		
66	647.192	0.75	control-reward	StartDisplay				
66	647.942		control-reward	ImageDisplay2		0.0		
66	651.192	1.6	control-reward	ChoiceDisplay	1	1.302	1	1
66	652.509	0.298	control-reward	ChosenDisplay		0.0		
66	652.792	0.25	control-reward	TurnDisplay				
66	653.042	0.75	control-reward	OutcomeDisplay				
67	653.792		win-reward	ImageDisplay1		0.0		
67	656.042	0.75	win-reward	StartDisplay				
67	656.792		win-reward	ImageDisplay2		0.0		
67	659.792	1.6	win-reward	ChoiceDisplay	1	1.214	1	1
67	661.025	0.386	win-reward	ChosenDisplay		0.0		
67	661.392	0.25	win-reward	TurnDisplay				
67	661.642	0.75	win-reward	OutcomeDisplay				
68	662.392		win-reward	ImageDisplay1		0.0		
68	664.392	0.75	win-reward	StartDisplay				
68	665.142		win-reward	ImageDisplay2		0.0		
68	668.392	1.6	win-reward	ChoiceDisplay	1	1.039	1	1
68	669.442	0.561	win-reward	ChosenDisplay		0.0		
68	669.992	0.25	win-reward	TurnDisplay				
68	670.242	0.75	win-reward	OutcomeDisplay				
69	670.992		loss-reward	ImageDisplay1		0.0		
69	673.242	0.75	loss-reward	StartDisplay				
69	673.992		loss-reward	ImageDisplay2		0.0		
69	676.992	1.6	loss-reward	ChoiceDisplay	1	0.897	1	1
69	677.908	0.703	loss-reward	ChosenDisplay		0.0		
69	678.592	0.25	loss-reward	TurnDisplay				
69	678.842	0.75	loss-reward	OutcomeDisplay				
70	679.592		win-noreward	ImageDisplay1		0.0		
70	681.842	0.75	win-noreward	StartDisplay				
70	682.592		win-noreward	ImageDisplay2		0.0		
70	685.592	1.6	win-noreward	ChoiceDisplay	1	0.942	1	1
70	686.558	0.658	win-noreward	ChosenDisplay		0.0		
70	687.192	0.25	win-noreward	TurnDisplay				
70	687.442	0.75	win-noreward	OutcomeDisplay				
71	688.192		loss-reward	ImageDisplay1		0.0		
71	690.192	0.75	loss-reward	StartDisplay				
71	690.942		loss-reward	ImageDisplay2		0.0		
71	694.191	1.6	loss-reward	ChoiceDisplay	1	1.187	1	1
71	695.391	0.413	loss-reward	ChosenDisplay		0.0		
71	695.791	0.25	loss-reward	TurnDisplay				
71	696.041	0.75	loss-reward	OutcomeDisplay				
72	696.791		win-noreward	ImageDisplay1		0.0		
72	698.791	0.75	win-noreward	StartDisplay				
72	699.541		win-noreward	ImageDisplay2		0.0		
72	702.791	1.6	win-noreward	ChoiceDisplay	1	1.159	1	1
72	703.975	0.441	win-noreward	ChosenDisplay		0.0		
72	704.391	0.25	win-noreward	TurnDisplay				
72	704.641	0.75	win-noreward	OutcomeDisplay				
73	705.391		win-noreward	ImageDisplay1		0.0		
73	707.641	0.75	win-noreward	StartDisplay				
73	708.391		win-noreward	ImageDisplay2		0.0		
73	711.391	1.6	win-noreward	ChoiceDisplay	1	1.203	1	1
73	712.608	0.397	win-noreward	ChosenDisplay		0.0		
73	712.991	0.25	win-noreward	TurnDisplay				
73	713.241	0.75	win-noreward	OutcomeDisplay				
74	713.991		control-reward	ImageDisplay1		0.0		
74	716.241	0.75	control-reward	StartDisplay				
74	716.991		control-reward	ImageDisplay2		0.0		
74	719.991	1.6	control-reward	ChoiceDisplay	1	0.316	1	1
74	720.324	1.284	control-reward	ChosenDisplay		0.0		
74	721.591	0.25	control-reward	TurnDisplay				
74	721.841	0.75	control-reward	OutcomeDisplay				
75	722.591		loss-reward	ImageDisplay1		0.0		
75	724.841	0.75	loss-reward	StartDisplay				
75	725.591		loss-reward	ImageDisplay2		0.0		
75	728.591	1.6	loss-reward	ChoiceDisplay	1	0.244	1	1
75	728.857	1.356	loss-reward	ChosenDisplay		0.0		
75	730.191	0.25	loss-reward	TurnDisplay				
75	730.441	0.75	loss-reward	OutcomeDisplay				
76	731.191		win-reward	ImageDisplay1		0.0		
76	733.191	0.75	win-reward	StartDisplay				
76	733.941		win-reward	ImageDisplay2		0.0		
76	737.191	1.6	win-reward	ChoiceDisplay	1	0.882	1	1
76	738.091	0.718	win-reward	ChosenDisplay		0.0		
76	738.791	0.25	win-reward	TurnDisplay				
76	739.041	0.75	win-reward	OutcomeDisplay				
77	739.791		win-noreward	ImageDisplay1		0.0		
77	741.791	0.75	win-noreward	StartDisplay				
77	742.541		win-noreward	ImageDisplay2		0.0		
77	745.79	1.6	win-noreward	ChoiceDisplay	1	0.999	1	1
77	746.807	0.601	win-noreward	ChosenDisplay		0.0		
77	747.39	0.25	win-noreward	TurnDisplay				
77	747.64	0.75	win-noreward	OutcomeDisplay				
78	748.39		loss-reward	ImageDisplay1		0.0		
78	750.39	0.75	loss-reward	StartDisplay				
78	751.14		loss-reward	ImageDisplay2		0.0		
78	754.39	1.6	loss-reward	ChoiceDisplay	1	0.186	1	1
78	754.59	1.414	loss-reward	ChosenDisplay		0.0		
78	755.99	0.25	loss-reward	TurnDisplay				
78	756.24	0.75	loss-reward	OutcomeDisplay				
79	756.99		win-noreward	ImageDisplay1		0.0		
79	758.99	0.75	win-noreward	StartDisplay				
79	759.74		win-noreward	ImageDisplay2		0.0		
79	762.99	1.6	win-noreward	ChoiceDisplay	1	0.463	1	1
79	763.473	1.137	win-noreward	ChosenDisplay		0.0		
79	764.59	0.25	win-noreward	TurnDisplay				
79	764.84	0.75	win-noreward	OutcomeDisplay				
80	765.59		control-noreward	ImageDisplay1		0.0		
80	767.84	0.75	control-noreward	StartDisplay				
80	768.59		control-noreward	ImageDisplay2		0.0		
80	771.59	1.6	control-noreward	ChoiceDisplay	1	0.279	1	1
80	771.89	1.321	control-noreward	ChosenDisplay		0.0		
80	773.19	0.25	control-noreward	TurnDisplay				
80	773.44	0.75	control-noreward	OutcomeDisplay				
81	774.19		control-reward	ImageDisplay1		0.0		
81	776.44	0.75	control-reward	StartDisplay				
81	777.19		control-reward	ImageDisplay2		0.0		
81	780.19	1.6	control-reward	ChoiceDisplay	1	0.244	1	1
81	780.457	1.356	control-reward	ChosenDisplay		0.0		
81	781.79	0.25	control-reward	TurnDisplay				
81	782.04	0.75	control-reward	OutcomeDisplay				
82	782.79		win-reward	ImageDisplay1		0.0		
82	785.04	0.75	win-reward	StartDisplay				
82	785.79		win-reward	ImageDisplay2		0.0		
82	788.79	1.6	win-reward	ChoiceDisplay	1	0.546	1	1
82	789.356	1.054	win-reward	ChosenDisplay		0.0		
82	790.39	0.25	win-reward	TurnDisplay				
82	790.64	0.75	win-reward	OutcomeDisplay				
83	791.39		control-noreward	ImageDisplay1		0.0		
83	793.39	0.75	control-noreward	StartDisplay				
83	794.14		control-noreward	ImageDisplay2		0.0		
83	797.39	1.6	control-noreward	ChoiceDisplay	1	0.924	1	1
83	798.339	0.676	control-noreward	ChosenDisplay		0.0		
83	798.989	0.25	control-noreward	TurnDisplay				
83	799.239	0.75	control-noreward	OutcomeDisplay				
84	799.989		control-noreward	ImageDisplay1		0.0		
84	801.989	0.75	control-noreward	StartDisplay				
84	802.739		control-noreward	ImageDisplay2		0.0		
84	805.989	1.6	control-noreward	ChoiceDisplay	1	0.761	1	1
84	806.773	0.839	control-noreward	ChosenDisplay		0.0		
84	807.589	0.25	control-noreward	TurnDisplay				
84	807.839	0.75	control-noreward	OutcomeDisplay				
85	808.589		control-reward	ImageDisplay1		0.0		
85	810.589	0.75	control-reward	StartDisplay				
85	811.339		control-reward	ImageDisplay2		0.0		
85	814.589	1.6	control-reward	ChoiceDisplay	1	0.688	1	1
85	815.289	0.912	control-reward	ChosenDisplay		0.0		
85	816.189	0.25	control-reward	TurnDisplay				
85	816.439	0.75	control-reward	OutcomeDisplay				
86	817.189		win-reward	ImageDisplay1		0.0		
86	819.189	0.75	win-reward	StartDisplay				
86	819.939		win-reward	ImageDisplay2		0.0		
86	823.189	1.6	win-reward	ChoiceDisplay	1	0.584	1	1
86	823.789	1.016	win-reward	ChosenDisplay		0.0		
86	824.789	0.25	win-reward	TurnDisplay				
86	825.039	0.75	win-reward	OutcomeDisplay				
87	825.789		control-noreward	ImageDisplay1		0.0		
87	827.789	0.75	control-noreward	StartDisplay				
87	828.539		control-noreward	ImageDisplay2		0.0		
87	831.789	1.6	control-noreward	ChoiceDisplay	1	0.754	1	1
87	832.555	0.846	control-noreward	ChosenDisplay		0.0		
87	833.389	0.25	control-noreward	TurnDisplay				
87	833.639	0.75	control-noreward	OutcomeDisplay				
88	834.389		loss-reward	ImageDisplay1		0.0		
88	836.639	0.75	loss-reward	StartDisplay				
88	837.389		loss-reward	ImageDisplay2		0.0		
88	840.389	1.6	loss-reward	ChoiceDisplay	1	0.643	1	1
88	841.055	0.957	loss-reward	ChosenDisplay		0.0		
88	841.989	0.25	loss-reward	TurnDisplay				
88	842.239	0.75	loss-reward	OutcomeDisplay				
89	842.989		loss-noreward	ImageDisplay1		0.0		
89	844.989	0.75	loss-noreward	StartDisplay				
89	845.739		loss-noreward	ImageDisplay2		0.0		
89	848.989	1.6	loss-noreward	ChoiceDisplay	1	0.562	1	1
89	849.572	1.038	loss-noreward	ChosenDisplay		0.0		
89	850.588	0.25	loss-noreward	TurnDisplay				
89	850.838	0.75	loss-noreward	OutcomeDisplay				
90	851.588		control-noreward	ImageDisplay1		0.0		
90	853.588	0.75	control-noreward	StartDisplay				
90	854.338		control-noreward	ImageDisplay2		0.0		
90	857.588	1.6	control-noreward	ChoiceDisplay	1	0.974	1	1
90	858.588	0.626	control-noreward	ChosenDisplay		0.0		
90	859.188	0.25	control-noreward	TurnDisplay				
90	859.438	0.75	control-noreward	OutcomeDisplay				
91	860.188		win-reward	ImageDisplay1		0.0		
91	862.188	0.75	win-reward	StartDisplay				
91	862.938		win-reward	ImageDisplay2		0.0		
91	866.188	1.6	win-reward	ChoiceDisplay	1	0.572	1	1
91	866.772	1.028	win-reward	ChosenDisplay		0.0		
91	867.788	0.25	win-reward	TurnDisplay				
91	868.038	0.75	win-reward	OutcomeDisplay				
92	868.788		win-reward	ImageDisplay1		0.0		
92	870.788	0.75	win-reward	StartDisplay				
92	871.538		win-reward	ImageDisplay2		0.0		
92	874.788	1.6	win-reward	ChoiceDisplay	1	0.642	1	1
92	875.455	0.958	win-reward	ChosenDisplay		0.0		
92	876.388	0.25	win-reward	TurnDisplay				
92	876.638	0.75	win-reward	OutcomeDisplay				
93	877.388		loss-reward	ImageDisplay1		0.0		
93	879.388	0.75	loss-reward	StartDisplay				
93	880.138		loss-reward	ImageDisplay2		0.0		
93	883.388	1.6	loss-reward	ChoiceDisplay	1	0.482	1	1
93	883.888	1.118	loss-reward	ChosenDisplay		0.0		
93	884.988	0.25	loss-reward	TurnDisplay				
93	885.238	0.75	loss-reward	OutcomeDisplay				
94	885.988		win-noreward	ImageDisplay1		0.0		
94	888.238	0.75	win-noreward	StartDisplay				
94	888.988		win-noreward	ImageDisplay2		0.0		
94	891.988	1.6	win-noreward	ChoiceDisplay	1	0.524	1	1
94	892.538	1.076	win-noreward	ChosenDisplay		0.0		
94	893.588	0.25	win-noreward	TurnDisplay				
94	893.838	0.75	win-noreward	OutcomeDisplay				
95	894.588		win-noreward	ImageDisplay1		0.0		
95	896.588	0.75	win-noreward	StartDisplay				
95	897.338		win-noreward	ImageDisplay2		0.0		
95	900.588	1.6	win-noreward	ChoiceDisplay	1	0.566	1	1
95	901.171	1.034	win-noreward	ChosenDisplay		0.0		
95	902.187	0.25	win-noreward	TurnDisplay				
95	902.438	0.75	win-noreward	OutcomeDisplay				
