onset	duration	trial_type	response_time	stim_file	accuracy
56.393	1.0	go	0.998	Go_X	1.0
58.926	1.0	go	0.446	Go_O	1.0
61.459	1.0	go	0.384	Go_X	1.0
63.993	1.0	go	0.309	Go_O	1.0
66.526	1.0	go	0.454	Go_O	1.0
69.059	1.0	go	0.316	Go_X	1.0
71.593	0.25	stopfail	0.439	Go_O	0.0
74.126	1.0	go	0.357	Go_X	1.0
76.659	0.2	stopsuccess	0.0	Go_X	1.0
79.192	1.0	go	0.265	Go_O	1.0
81.726	1.0	go	0.397	Go_O	1.0
84.259	1.0	go	0.365	Go_X	1.0
86.792	0.25	stopfail	0.298	Go_O	0.0
89.326	1.0	go	0.257	Go_X	1.0
91.859	1.0	go	0.3	Go_O	1.0
94.392	0.2	stopfail	0.282	Go_X	0.0
96.925	0.15	stopfail	0.411	Go_O	0.0
99.459	1.0	go	0.345	Go_X	1.0
101.992	1.0	go	0.3	Go_O	1.0
104.525	0.1	stopfail	0.398	Go_X	0.0
107.059	1.0	go	0.238	Go_O	1.0
109.592	1.0	go	0.405	Go_X	1.0
112.125	0.05	stopfail	0.235	Go_O	0.0
114.658	1.0	go	0.293	Go_O	0.0
117.192	1.0	go	0.295	Go_X	1.0
119.725	0.0	stopsuccess	0.0	Go_X	1.0
122.275	1.0	go	0.299	Go_O	1.0
124.808	1.0	go	0.344	Go_X	1.0
127.342	0.05	stopfail	0.326	Go_O	0.0
129.875	1.0	go	0.328	Go_X	1.0
132.408	1.0	go	0.376	Go_O	1.0
134.941	1.0	go	0.313	Go_X	1.0
137.475	1.0	go	0.447	Go_O	1.0
140.008	1.0	go	0.358	Go_O	0.0
142.541	0.0	stopsuccess	0.0	Go_X	1.0
145.091	1.0	go	0.501	Go_X	1.0
147.625	1.0	go	0.364	Go_O	1.0
150.174	1.0	go	0.391	Go_X	1.0
152.708	1.0	go	0.354	Go_X	1.0
155.241	1.0	go	0.307	Go_O	1.0
157.774	0.05	stopsuccess	0.0	Go_O	1.0
160.308	1.0	go	0.321	Go_O	0.0
162.841	1.0	go	0.424	Go_X	1.0
165.374	1.0	go	0.301	Go_O	1.0
167.907	1.0	go	0.48	Go_X	1.0
170.441	1.0	go	0.395	Go_X	1.0
172.974	1.0	go	0.334	Go_O	1.0
175.507	0.1	stopsuccess	0.0	Go_X	1.0
178.041	1.0	go	0.323	Go_O	1.0
180.574	1.0	go	0.269	Go_X	1.0
183.107	0.15	stopfail	0.301	Go_O	0.0
185.64	1.0	go	0.492	Go_O	1.0
188.174	0.1	stopfail	0.396	Go_X	0.0
190.707	0.05	stopsuccess	0.0	Go_O	1.0
193.24	1.0	go	0.4	Go_X	1.0
195.774	1.0	go	0.326	Go_O	1.0
198.307	1.0	go	0.443	Go_X	1.0
200.84	1.0	go	0.402	Go_X	1.0
203.373	0.1	stopsuccess	0.0	Go_X	1.0
205.907	1.0	go	0.319	Go_O	1.0
208.44	0.15	stopfail	0.425	Go_O	0.0
210.973	1.0	go	0.329	Go_X	1.0
213.507	1.0	go	0.24	Go_O	1.0
216.04	1.0	go	0.291	Go_X	1.0
218.573	1.0	go	0.445	Go_O	1.0
221.106	1.0	go	0.401	Go_X	1.0
223.64	1.0	go	0.298	Go_O	1.0
226.173	1.0	go	0.387	Go_O	1.0
228.706	1.0	go	0.342	Go_X	1.0
231.24	1.0	go	0.451	Go_X	1.0
233.773	0.1	stopsuccess	0.0	Go_X	1.0
236.306	1.0	go	0.283	Go_O	1.0
238.839	1.0	go	0.372	Go_O	1.0
241.373	1.0	go	0.398	Go_X	1.0
243.906	0.15	stopfail	0.307	Go_O	0.0
246.439	1.0	go	0.348	Go_X	1.0
248.973	1.0	go	0.426	Go_O	1.0
251.506	1.0	go	0.469	Go_O	1.0
254.039	1.0	go	0.329	Go_X	1.0
256.572	1.0	go	0.369	Go_X	1.0
259.106	1.0	go	0.271	Go_O	1.0
261.639	0.1	stopfail	0.278	Go_X	0.0
264.172	1.0	go	0.297	Go_O	1.0
266.706	1.0	go	0.293	Go_X	1.0
269.239	0.05	stopfail	0.281	Go_O	0.0
271.772	1.0	go	0.299	Go_O	0.0
274.305	1.0	go	0.368	Go_X	1.0
276.839	0.0	stopsuccess	0.0	Go_X	1.0
279.389	1.0	go	0.409	Go_X	1.0
281.922	0.05	stopsuccess	0.0	Go_O	1.0
284.455	1.0	go	0.307	Go_O	1.0
286.989	1.0	go	0.348	Go_X	1.0
289.522	1.0	go	0.501	Go_O	1.0
292.055	1.0	go	0.41	Go_X	1.0
294.588	1.0	go	0.469	Go_O	1.0
297.122	0.1	stopfail	0.396	Go_X	0.0
299.655	0.05	stopsuccess	0.0	Go_O	1.0
302.188	1.0	go	0.482	Go_X	1.0
304.722	1.0	go	0.482	Go_O	1.0
307.255	0.1	stopsuccess	0.0	Go_X	1.0
309.788	1.0	go	0.428	Go_O	0.0
312.321	1.0	go	0.44	Go_X	0.0
314.855	1.0	go	0.499	Go_O	1.0
317.388	1.0	go	0.41	Go_X	1.0
319.921	1.0	go	0.599	Go_X	1.0
322.455	1.0	go	0.387	Go_O	1.0
325.004	0.15	stopsuccess	0.0	Go_O	1.0
327.538	1.0	go	0.433	Go_X	1.0
330.071	1.0	go	0.38	Go_O	1.0
332.604	1.0	go	0.48	Go_O	1.0
335.138	1.0	go	0.419	Go_X	1.0
337.671	1.0	go	0.455	Go_X	1.0
340.204	0.2	stopfail	0.479	Go_X	0.0
342.737	1.0	go	0.253	Go_O	1.0
345.271	1.0	go	0.352	Go_X	1.0
347.804	1.0	go	0.299	Go_O	1.0
350.337	1.0	go	0.445	Go_O	1.0
352.871	0.15	stopsuccess	0.0	Go_O	1.0
355.404	1.0	go	0.341	Go_X	1.0
357.937	1.0	go	0.352	Go_X	0.0
360.47	0.2	stopfail	0.464	Go_X	0.0
363.004	1.0	go	0.426	Go_O	1.0
365.537	0.15	stopsuccess	0.0	Go_O	1.0
368.07	1.0	go	0.295	Go_X	1.0
370.604	1.0	go	0.359	Go_O	1.0
373.137	1.0	go	0.52	Go_O	1.0
375.67	1.0	go	0.514	Go_X	1.0
378.203	1.0	go	0.457	Go_X	1.0
380.737	1.0	go	0.565	Go_O	1.0
383.27	1.0	go	0.363	Go_X	1.0
385.803	0.2	stopsuccess	0.0	Go_X	1.0
388.337	1.0	go	0.427	Go_O	1.0
390.87	1.0	go	0.227	Go_X	1.0
393.403	1.0	go	0.306	Go_O	1.0
395.936	0.25	stopfail	0.444	Go_O	0.0
398.47	1.0	go	0.449	Go_X	1.0
401.003	1.0	go	0.456	Go_O	1.0
403.536	1.0	go	0.435	Go_X	1.0
406.07	1.0	go	0.49	Go_O	1.0
408.603	0.2	stopsuccess	0.0	Go_X	1.0
411.136	1.0	go	0.233	Go_O	1.0
413.669	1.0	go	0.325	Go_X	1.0
416.203	0.25	stopsuccess	0.0	Go_O	1.0
418.736	1.0	go	0.74	Go_O	1.0
421.269	1.0	go	0.502	Go_X	1.0
423.803	0.3	stopsuccess	0.0	Go_X	1.0
426.336	1.0	go	0.0	Go_X	0.0
428.869	1.0	go	0.431	Go_O	1.0
431.402	0.35	stopfail	0.45	Go_O	0.0
433.936	1.0	go	0.513	Go_O	1.0
436.469	1.0	go	0.37	Go_X	1.0
439.002	1.0	go	0.634	Go_O	1.0
441.536	1.0	go	0.235	Go_X	1.0
444.069	1.0	go	0.307	Go_X	0.0
446.602	1.0	go	0.605	Go_O	1.0
449.135	0.3	stopsuccess	0.0	Go_X	1.0
451.669	1.0	go	0.525	Go_O	1.0
454.202	0.35	stopfail	0.374	Go_O	0.0
456.735	1.0	go	0.389	Go_X	1.0
459.269	1.0	go	0.456	Go_X	1.0
461.802	1.0	go	0.37	Go_O	1.0
464.335	1.0	go	0.475	Go_O	1.0
466.868	1.0	go	0.322	Go_X	1.0
469.402	0.3	stopfail	0.36	Go_X	0.0
471.935	1.0	go	0.41	Go_X	1.0
474.468	1.0	go	0.334	Go_O	1.0
477.002	1.0	go	0.359	Go_X	1.0
479.535	0.25	stopfail	0.351	Go_O	0.0
482.068	0.2	stopfail	0.264	Go_X	0.0
484.601	0.15	stopfail	0.327	Go_O	0.0
487.135	1.0	go	0.432	Go_O	1.0
489.668	0.1	stopsuccess	0.0	Go_X	1.0
492.201	1.0	go	0.663	Go_X	1.0
494.735	1.0	go	0.378	Go_O	1.0
497.268	1.0	go	0.397	Go_O	1.0
499.801	1.0	go	0.432	Go_X	1.0
502.334	1.0	go	0.701	Go_O	0.0
504.868	1.0	go	0.435	Go_X	1.0
507.401	1.0	go	0.477	Go_X	1.0
509.934	1.0	go	0.436	Go_O	1.0
512.468	0.15	stopfail	0.478	Go_O	0.0
515.001	1.0	go	0.478	Go_O	1.0
517.534	1.0	go	0.53	Go_X	1.0
520.067	0.1	stopsuccess	0.0	Go_X	1.0
522.601	1.0	go	0.495	Go_X	1.0
525.134	1.0	go	0.429	Go_O	1.0
527.667	1.0	go	0.595	Go_X	1.0
530.201	1.0	go	0.447	Go_O	1.0
532.734	1.0	go	0.309	Go_X	1.0
535.267	0.15	stopfail	0.3	Go_O	0.0
537.8	1.0	go	0.644	Go_O	1.0
540.334	1.0	go	0.389	Go_X	1.0
542.867	1.0	go	0.633	Go_O	1.0
545.4	0.1	stopsuccess	0.0	Go_X	1.0
547.934	1.0	go	0.611	Go_O	1.0
550.467	0.15	stopsuccess	0.0	Go_O	1.0
553.0	1.0	go	0.601	Go_X	1.0
555.533	1.0	go	0.327	Go_X	1.0
558.067	1.0	go	0.327	Go_O	1.0
560.6	1.0	go	0.548	Go_X	1.0
563.133	1.0	go	0.384	Go_O	1.0
565.667	1.0	go	0.47	Go_O	1.0
568.2	1.0	go	0.437	Go_X	1.0
570.733	0.2	stopfail	0.377	Go_X	0.0
573.266	1.0	go	0.326	Go_O	1.0
575.8	1.0	go	0.441	Go_X	1.0
578.333	1.0	go	0.541	Go_X	1.0
580.866	1.0	go	0.497	Go_O	1.0
583.4	0.15	stopsuccess	0.0	Go_O	1.0
585.933	1.0	go	0.569	Go_X	1.0
588.466	0.2	stopsuccess	0.0	Go_X	1.0
590.999	1.0	go	0.648	Go_O	1.0
593.533	1.0	go	0.494	Go_O	1.0
596.066	0.25	stopfail	0.496	Go_O	0.0
598.599	1.0	go	0.235	Go_X	1.0
601.133	1.0	go	0.449	Go_X	1.0
603.666	1.0	go	0.282	Go_O	1.0
606.199	1.0	go	0.393	Go_X	1.0
608.732	1.0	go	0.229	Go_O	1.0
611.266	1.0	go	0.184	Go_X	1.0
613.799	1.0	go	0.219	Go_O	1.0
616.332	1.0	go	0.529	Go_O	1.0
618.866	1.0	go	0.234	Go_X	1.0
621.399	1.0	go	0.179	Go_X	0.0
623.932	0.2	stopfail	0.41	Go_X	0.0
626.465	1.0	go	0.445	Go_O	1.0
628.999	1.0	go	0.414	Go_O	1.0
631.532	0.15	stopfail	0.394	Go_O	0.0
634.065	1.0	go	0.453	Go_X	1.0
636.599	0.1	stopsuccess	0.0	Go_X	1.0
639.132	1.0	go	0.301	Go_O	1.0
641.665	1.0	go	0.468	Go_X	1.0
644.198	0.15	stopsuccess	0.0	Go_O	1.0
646.732	1.0	go	0.562	Go_O	1.0
649.265	0.2	stopsuccess	0.0	Go_X	1.0
651.798	1.0	go	0.572	Go_X	1.0
654.332	1.0	go	0.343	Go_O	1.0
656.865	1.0	go	0.395	Go_X	1.0
659.398	0.25	stopfail	0.313	Go_O	0.0
661.931	1.0	go	0.328	Go_X	1.0
664.465	1.0	go	0.214	Go_O	1.0
666.998	1.0	go	0.27	Go_X	1.0
669.531	1.0	go	0.209	Go_O	1.0
672.065	0.2	stopfail	0.203	Go_X	0.0
674.598	1.0	go	0.521	Go_X	1.0
677.131	1.0	go	0.47	Go_O	1.0
679.664	0.15	stopfail	0.477	Go_O	0.0
682.198	1.0	go	0.395	Go_X	1.0
684.731	1.0	go	0.371	Go_O	1.0
687.264	1.0	go	0.513	Go_O	1.0
689.798	1.0	go	0.591	Go_X	1.0
692.331	0.1	stopsuccess	0.0	Go_X	1.0
694.864	1.0	go	0.317	Go_O	1.0
697.397	0.15	stopfail	0.338	Go_O	0.0
699.931	1.0	go	0.397	Go_X	1.0
702.464	1.0	go	0.424	Go_X	1.0
704.997	0.1	stopsuccess	0.0	Go_X	1.0
707.531	1.0	go	0.445	Go_O	1.0
710.064	1.0	go	0.565	Go_O	1.0
712.597	1.0	go	0.456	Go_X	1.0
715.13	1.0	go	0.503	Go_X	1.0
717.664	0.15	stopfail	0.466	Go_O	0.0
720.197	1.0	go	0.689	Go_O	1.0
722.73	0.1	stopfail	0.445	Go_X	0.0
725.264	1.0	go	0.43	Go_X	1.0
727.797	1.0	go	0.578	Go_O	1.0
730.33	1.0	go	0.744	Go_O	1.0
732.863	1.0	go	0.495	Go_X	1.0
735.397	1.0	go	0.417	Go_X	1.0
737.93	1.0	go	0.279	Go_O	1.0
740.463	0.05	stopsuccess	0.0	Go_O	1.0
742.997	1.0	go	0.431	Go_X	1.0
745.53	1.0	go	0.282	Go_O	1.0
748.063	0.1	stopsuccess	0.0	Go_X	1.0
750.596	1.0	go	0.433	Go_O	1.0
753.13	1.0	go	0.347	Go_X	1.0
755.663	0.15	stopsuccess	0.0	Go_O	1.0
758.196	1.0	go	0.431	Go_O	1.0
760.73	1.0	go	0.301	Go_X	1.0
763.279	1.0	go	0.296	Go_O	1.0
765.813	1.0	go	0.379	Go_X	1.0
768.346	0.2	stopsuccess	0.0	Go_X	1.0
770.879	1.0	go	0.164	Go_O	1.0
773.413	0.25	stopfail	0.432	Go_O	0.0
775.946	1.0	go	0.406	Go_X	0.0
778.479	1.0	go	0.268	Go_X	1.0
781.012	1.0	go	0.449	Go_O	1.0
783.546	1.0	go	0.231	Go_X	1.0
786.079	1.0	go	0.552	Go_O	1.0
788.612	0.2	stopfail	0.37	Go_X	0.0
791.146	1.0	go	0.331	Go_O	1.0
793.679	1.0	go	0.362	Go_X	1.0
796.212	0.15	stopfail	0.257	Go_O	0.0
798.745	0.1	stopsuccess	0.0	Go_X	1.0
801.279	1.0	go	0.522	Go_X	1.0
803.812	1.0	go	0.333	Go_O	1.0
806.345	1.0	go	0.518	Go_X	1.0
808.879	1.0	go	0.396	Go_O	0.0
811.412	0.15	stopsuccess	0.0	Go_O	1.0
813.945	1.0	go	0.512	Go_O	0.0
