onset	duration	trial_type	response_time	stim_file	accuracy
124.038	1.0	go	0.738	Go_O	1.0
126.629	1.0	go	0.357	Go_X	1.0
129.153	1.0	go	0.556	Go_O	1.0
131.677	1.0	go	0.274	Go_X	1.0
134.201	1.0	go	0.475	Go_X	1.0
136.726	1.0	go	0.416	Go_O	1.0
139.25	0.25	stop	0.0	Go_O	1.0
141.774	1.0	go	0.428	Go_O	1.0
144.298	0.3	stop	0.38	Go_X	0.0
146.822	1.0	go	0.71	Go_X	1.0
149.347	1.0	go	0.377	Go_X	1.0
151.871	1.0	go	0.273	Go_O	1.0
154.395	0.25	stop	0.423	Go_O	0.0
156.919	1.0	go	0.651	Go_O	1.0
159.444	1.0	go	0.362	Go_X	1.0
161.968	0.2	stop	0.0	Go_X	1.0
164.492	0.25	stop	0.467	Go_O	0.0
167.016	1.0	go	0.55	Go_O	1.0
169.54	1.0	go	0.376	Go_X	1.0
172.065	0.2	stop	0.0	Go_X	1.0
174.589	1.0	go	0.443	Go_O	1.0
177.113	1.0	go	0.317	Go_X	1.0
179.637	0.25	stop	0.347	Go_O	0.0
182.161	1.0	go	0.439	Go_O	0.0
184.686	1.0	go	0.52	Go_X	1.0
187.21	0.2	stop	0.401	Go_X	0.0
189.734	1.0	go	0.607	Go_X	1.0
192.258	1.0	go	0.445	Go_O	0.0
194.783	0.15	stop	0.0	Go_O	1.0
197.307	1.0	go	0.445	Go_O	1.0
199.831	1.0	go	0.437	Go_X	1.0
202.355	1.0	go	0.436	Go_X	1.0
204.879	1.0	go	0.611	Go_O	1.0
207.404	1.0	go	0.656	Go_O	1.0
209.928	0.2	stop	0.0	Go_X	1.0
212.452	1.0	go	0.467	Go_X	1.0
214.976	1.0	go	0.487	Go_X	1.0
217.5	1.0	go	0.407	Go_O	1.0
220.025	1.0	go	0.344	Go_O	1.0
222.549	1.0	go	0.33	Go_X	1.0
225.073	0.25	stop	0.0	Go_O	1.0
227.597	1.0	go	0.42	Go_X	1.0
230.122	1.0	go	0.387	Go_O	1.0
232.646	1.0	go	0.426	Go_X	1.0
235.17	1.0	go	0.458	Go_O	1.0
237.694	1.0	go	0.371	Go_X	1.0
240.218	1.0	go	0.385	Go_O	1.0
242.743	0.3	stop	0.213	Go_X	0.0
245.267	1.0	go	0.227	Go_O	1.0
247.791	1.0	go	0.381	Go_X	1.0
250.315	0.25	stop	0.331	Go_O	0.0
252.839	1.0	go	0.391	Go_X	1.0
255.364	0.2	stop	0.0	Go_X	1.0
257.888	0.25	stop	0.307	Go_O	0.0
260.412	1.0	go	0.692	Go_O	1.0
262.936	1.0	go	0.507	Go_O	1.0
265.461	1.0	go	0.488	Go_X	1.0
267.985	1.0	go	0.563	Go_X	1.0
270.509	0.2	stop	0.0	Go_X	1.0
273.033	1.0	go	0.37	Go_O	1.0
275.557	0.25	stop	0.439	Go_O	0.0
278.082	1.0	go	0.394	Go_O	1.0
280.606	1.0	go	0.292	Go_X	1.0
283.13	1.0	go	0.279	Go_X	1.0
285.654	1.0	go	0.211	Go_O	1.0
288.178	1.0	go	0.381	Go_X	1.0
290.703	1.0	go	0.396	Go_O	1.0
293.227	1.0	go	0.336	Go_O	0.0
295.751	1.0	go	0.428	Go_X	1.0
298.275	1.0	go	0.497	Go_O	1.0
300.799	0.2	stop	0.0	Go_X	1.0
303.324	1.0	go	0.473	Go_X	1.0
305.848	1.0	go	0.526	Go_O	1.0
308.372	1.0	go	0.34	Go_X	1.0
310.896	0.25	stop	0.413	Go_O	0.0
313.421	1.0	go	0.563	Go_O	1.0
315.945	1.0	go	0.5	Go_X	1.0
318.469	1.0	go	0.48	Go_O	1.0
320.993	1.0	go	0.532	Go_X	1.0
323.517	1.0	go	0.373	Go_O	1.0
326.042	1.0	go	0.445	Go_X	1.0
328.566	0.2	stop	0.0	Go_X	1.0
331.09	1.0	go	0.349	Go_X	1.0
333.614	1.0	go	0.637	Go_O	1.0
336.138	0.25	stop	0.372	Go_O	0.0
338.663	1.0	go	0.626	Go_X	0.0
341.187	1.0	go	0.493	Go_O	1.0
343.711	0.2	stop	0.0	Go_X	1.0
346.235	1.0	go	0.546	Go_X	1.0
348.76	0.25	stop	0.0	Go_O	1.0
351.284	1.0	go	0.462	Go_O	1.0
353.808	1.0	go	0.367	Go_O	1.0
356.332	1.0	go	0.385	Go_X	1.0
358.856	1.0	go	0.407	Go_X	1.0
361.381	1.0	go	0.4	Go_O	0.0
363.905	0.3	stop	0.45	Go_X	0.0
366.429	0.25	stop	0.0	Go_O	1.0
368.953	1.0	go	0.486	Go_O	1.0
371.477	1.0	go	0.602	Go_X	1.0
374.002	0.3	stop	0.361	Go_X	0.0
376.526	1.0	go	0.724	Go_O	1.0
379.05	1.0	go	0.506	Go_X	1.0
381.574	1.0	go	0.55	Go_O	1.0
384.099	1.0	go	0.926	Go_X	1.0
386.623	1.0	go	0.444	Go_O	1.0
389.147	1.0	go	0.434	Go_X	1.0
391.671	0.25	stop	0.352	Go_O	0.0
394.195	1.0	go	0.519	Go_O	1.0
396.72	1.0	go	0.398	Go_X	1.0
399.244	1.0	go	0.547	Go_O	1.0
401.768	1.0	go	0.408	Go_X	1.0
404.292	1.0	go	0.381	Go_X	1.0
406.816	0.2	stop	0.395	Go_X	0.0
409.341	1.0	go	0.482	Go_O	1.0
411.865	1.0	go	0.459	Go_X	1.0
414.389	1.0	go	0.506	Go_O	1.0
416.913	1.0	go	0.503	Go_X	1.0
419.438	0.15	stop	0.0	Go_O	1.0
421.962	1.0	go	0.426	Go_O	1.0
424.486	1.0	go	0.474	Go_O	1.0
427.01	0.2	stop	0.0	Go_X	1.0
429.534	1.0	go	0.569	Go_X	1.0
432.059	0.25	stop	0.0	Go_O	1.0
434.583	1.0	go	0.452	Go_O	1.0
437.107	1.0	go	0.512	Go_X	0.0
439.631	1.0	go	0.605	Go_X	1.0
442.155	1.0	go	0.528	Go_O	1.0
444.68	1.0	go	0.365	Go_X	1.0
447.204	1.0	go	0.46	Go_O	1.0
449.728	1.0	go	0.509	Go_X	1.0
452.252	0.3	stop	0.0	Go_X	1.0
454.777	1.0	go	0.444	Go_O	1.0
457.301	1.0	go	0.623	Go_O	1.0
459.825	1.0	go	0.374	Go_X	1.0
462.349	0.35	stop	0.0	Go_O	1.0
464.873	1.0	go	0.392	Go_X	0.0
467.398	1.0	go	0.527	Go_O	1.0
469.922	1.0	go	0.453	Go_O	1.0
472.446	1.0	go	0.513	Go_X	1.0
474.97	0.4	stop	0.421	Go_X	0.0
477.494	1.0	go	0.459	Go_X	1.0
480.019	1.0	go	0.438	Go_O	1.0
482.543	0.35	stop	0.468	Go_O	0.0
485.067	1.0	go	0.636	Go_O	1.0
487.591	1.0	go	0.648	Go_X	1.0
490.116	0.3	stop	0.512	Go_X	0.0
492.64	1.0	go	0.792	Go_X	1.0
495.164	1.0	go	0.37	Go_O	1.0
497.688	0.25	stop	0.0	Go_O	1.0
500.212	1.0	go	0.477	Go_X	1.0
502.737	1.0	go	0.59	Go_O	1.0
505.261	1.0	go	0.541	Go_O	1.0
507.785	1.0	go	0.507	Go_X	1.0
510.309	1.0	go	0.476	Go_O	1.0
512.833	1.0	go	0.671	Go_X	1.0
515.358	0.3	stop	0.0	Go_X	1.0
517.882	1.0	go	0.731	Go_X	0.0
520.406	0.35	stop	0.445	Go_O	0.0
522.93	1.0	go	0.575	Go_O	1.0
525.455	1.0	go	0.652	Go_X	1.0
527.979	1.0	go	0.558	Go_O	1.0
530.503	1.0	go	0.45	Go_O	1.0
533.027	1.0	go	0.422	Go_X	1.0
535.551	0.3	stop	0.491	Go_X	0.0
538.076	1.0	go	0.592	Go_O	1.0
540.6	1.0	go	0.424	Go_X	1.0
543.124	1.0	go	0.482	Go_O	1.0
545.648	0.25	stop	0.0	Go_O	1.0
548.172	0.3	stop	0.432	Go_X	0.0
550.697	0.25	stop	0.0	Go_O	1.0
553.221	1.0	go	0.644	Go_X	1.0
555.745	0.3	stop	0.0	Go_X	1.0
558.269	1.0	go	0.5	Go_X	1.0
560.794	1.0	go	0.621	Go_O	1.0
563.318	1.0	go	0.533	Go_X	1.0
565.842	1.0	go	0.633	Go_O	1.0
568.366	1.0	go	0.731	Go_O	1.0
570.89	1.0	go	0.555	Go_X	1.0
573.415	1.0	go	0.466	Go_O	1.0
575.939	1.0	go	0.612	Go_X	1.0
578.463	0.35	stop	0.448	Go_O	0.0
580.987	1.0	go	0.87	Go_X	1.0
583.511	1.0	go	0.46	Go_O	1.0
586.036	0.3	stop	0.408	Go_X	0.0
588.56	1.0	go	0.434	Go_O	1.0
591.084	1.0	go	0.414	Go_X	1.0
593.608	1.0	go	0.429	Go_X	1.0
596.133	1.0	go	0.466	Go_O	1.0
598.657	1.0	go	0.324	Go_O	0.0
601.181	0.25	stop	0.0	Go_O	1.0
603.705	1.0	go	0.34	Go_X	1.0
606.229	1.0	go	0.578	Go_O	1.0
608.754	1.0	go	0.426	Go_X	1.0
611.278	0.3	stop	0.0	Go_X	1.0
613.802	1.0	go	0.44	Go_O	1.0
616.326	0.35	stop	0.344	Go_O	0.0
618.85	1.0	go	0.418	Go_X	1.0
621.375	1.0	go	0.629	Go_X	1.0
623.899	1.0	go	0.546	Go_O	1.0
626.423	1.0	go	0.483	Go_X	1.0
628.947	1.0	go	0.817	Go_O	1.0
631.472	1.0	go	0.236	Go_O	0.0
633.996	1.0	go	0.524	Go_X	1.0
636.52	0.3	stop	0.375	Go_X	0.0
639.044	1.0	go	0.493	Go_X	1.0
641.568	1.0	go	0.461	Go_O	1.0
644.093	1.0	go	0.48	Go_O	1.0
646.617	1.0	go	0.475	Go_X	1.0
649.141	0.25	stop	0.0	Go_O	1.0
651.665	1.0	go	0.481	Go_X	1.0
654.189	0.3	stop	0.0	Go_X	1.0
656.714	1.0	go	0.0	Go_O	0.0
659.238	1.0	go	0.429	Go_O	1.0
661.762	0.35	stop	0.506	Go_O	0.0
664.286	1.0	go	0.526	Go_X	0.0
666.81	1.0	go	0.958	Go_O	1.0
669.335	1.0	go	0.423	Go_X	1.0
671.859	1.0	go	0.509	Go_O	1.0
674.383	1.0	go	0.592	Go_X	1.0
676.907	1.0	go	0.473	Go_X	1.0
679.432	1.0	go	0.465	Go_O	1.0
681.956	1.0	go	0.52	Go_O	1.0
684.48	1.0	go	0.0	Go_X	0.0
687.004	1.0	go	0.741	Go_O	1.0
689.528	0.3	stop	0.265	Go_X	0.0
692.053	1.0	go	0.416	Go_X	0.0
694.577	1.0	go	0.243	Go_X	0.0
697.101	0.25	stop	0.288	Go_O	0.0
699.625	1.0	go	0.562	Go_O	1.0
702.149	0.2	stop	0.39	Go_X	0.0
704.674	1.0	go	0.481	Go_O	1.0
707.198	1.0	go	0.605	Go_X	1.0
709.722	0.15	stop	0.0	Go_O	1.0
712.246	1.0	go	0.545	Go_O	1.0
714.771	0.2	stop	0.375	Go_X	0.0
717.295	1.0	go	0.521	Go_X	1.0
719.819	1.0	go	0.531	Go_O	1.0
722.343	1.0	go	0.519	Go_X	1.0
724.867	0.15	stop	0.0	Go_O	1.0
727.392	1.0	go	0.571	Go_O	1.0
729.916	1.0	go	0.327	Go_X	1.0
732.44	1.0	go	0.524	Go_X	1.0
734.964	1.0	go	0.493	Go_O	1.0
737.488	0.2	stop	0.0	Go_X	1.0
740.013	1.0	go	0.526	Go_X	1.0
742.537	1.0	go	0.918	Go_O	0.0
745.061	0.25	stop	0.465	Go_O	0.0
747.585	1.0	go	0.392	Go_X	1.0
750.11	1.0	go	0.42	Go_O	1.0
752.634	1.0	go	0.757	Go_X	1.0
755.158	1.0	go	0.358	Go_O	1.0
757.682	0.2	stop	0.253	Go_X	0.0
760.206	1.0	go	0.286	Go_O	1.0
762.731	0.15	stop	0.251	Go_O	0.0
765.255	1.0	go	0.607	Go_X	1.0
767.779	1.0	go	0.486	Go_O	1.0
770.303	0.1	stop	0.274	Go_X	0.0
772.827	1.0	go	0.523	Go_X	1.0
775.352	1.0	go	0.769	Go_X	1.0
777.876	1.0	go	0.679	Go_O	1.0
780.4	1.0	go	0.496	Go_O	1.0
782.924	0.05	stop	0.0	Go_O	1.0
785.449	1.0	go	0.382	Go_X	1.0
787.973	0.1	stop	0.0	Go_X	1.0
790.497	1.0	go	0.403	Go_O	1.0
793.021	1.0	go	0.542	Go_X	1.0
795.545	1.0	go	0.502	Go_X	1.0
798.07	1.0	go	0.451	Go_O	1.0
800.594	1.0	go	0.4	Go_O	1.0
803.118	1.0	go	0.488	Go_X	1.0
805.642	0.15	stop	0.0	Go_O	1.0
808.166	1.0	go	0.565	Go_X	0.0
810.691	1.0	go	0.366	Go_O	1.0
813.215	0.2	stop	0.0	Go_X	1.0
815.739	1.0	go	0.377	Go_O	1.0
818.263	1.0	go	0.374	Go_X	1.0
820.788	0.25	stop	0.0	Go_O	1.0
823.312	1.0	go	0.317	Go_O	1.0
825.836	1.0	go	0.398	Go_X	1.0
828.36	1.0	go	0.344	Go_X	0.0
830.884	1.0	go	0.273	Go_O	1.0
833.409	0.3	stop	0.277	Go_X	0.0
835.933	1.0	go	0.49	Go_O	1.0
838.457	0.25	stop	0.366	Go_O	0.0
840.981	1.0	go	0.591	Go_X	1.0
843.505	1.0	go	0.36	Go_O	1.0
846.03	1.0	go	0.57	Go_X	0.0
848.554	1.0	go	0.38	Go_O	1.0
851.078	1.0	go	0.414	Go_X	1.0
853.602	0.2	stop	0.0	Go_X	1.0
856.127	1.0	go	0.0	Go_X	0.0
858.651	1.0	go	0.4	Go_O	1.0
861.175	0.25	stop	0.0	Go_O	1.0
863.699	0.3	stop	0.314	Go_X	0.0
866.223	1.0	go	0.502	Go_O	1.0
868.748	1.0	go	0.334	Go_X	1.0
871.272	1.0	go	0.326	Go_X	0.0
873.796	1.0	go	0.836	Go_O	1.0
876.32	0.25	stop	0.456	Go_O	0.0
878.844	1.0	go	0.345	Go_O	1.0
