onset	duration	trial_type	response_time	stim_file	accuracy
130.178	1.0	go	0.0	Go_O	0.0
132.778	1.0	go	0.391	Go_X	1.0
135.312	1.0	go	0.398	Go_X	1.0
137.861	1.0	go	0.326	Go_O	1.0
140.395	1.0	go	0.516	Go_X	1.0
142.928	1.0	go	0.404	Go_O	1.0
145.461	0.25	stopfail	0.359	Go_O	0.0
147.995	1.0	go	0.459	Go_X	1.0
150.528	0.2	stopsuccess	0.0	Go_X	1.0
153.061	1.0	go	0.391	Go_O	1.0
155.594	1.0	go	0.784	Go_O	1.0
158.128	1.0	go	0.757	Go_X	1.0
160.661	0.25	stopsuccess	0.0	Go_O	1.0
163.194	1.0	go	0.42	Go_O	1.0
165.727	1.0	go	0.463	Go_X	1.0
168.261	0.3	stopfail	0.393	Go_X	0.0
170.794	0.25	stopfail	0.362	Go_O	0.0
173.327	1.0	go	0.456	Go_X	1.0
175.861	1.0	go	0.535	Go_O	1.0
178.394	0.2	stopfail	0.33	Go_X	0.0
180.927	1.0	go	0.499	Go_O	1.0
183.46	1.0	go	0.49	Go_X	1.0
185.994	0.15	stopsuccess	0.0	Go_O	1.0
188.527	1.0	go	0.486	Go_X	1.0
191.06	1.0	go	0.417	Go_O	1.0
193.593	0.2	stopsuccess	0.0	Go_X	1.0
196.127	1.0	go	0.423	Go_X	1.0
198.66	1.0	go	0.407	Go_O	1.0
201.193	0.25	stopsuccess	0.0	Go_O	1.0
203.727	1.0	go	0.393	Go_X	1.0
206.26	1.0	go	0.416	Go_O	1.0
208.793	1.0	go	0.471	Go_X	1.0
211.326	1.0	go	0.611	Go_O	1.0
213.86	1.0	go	0.767	Go_O	1.0
216.393	0.3	stopsuccess	0.0	Go_X	1.0
218.926	1.0	go	0.444	Go_X	1.0
221.46	1.0	go	0.318	Go_O	1.0
224.009	1.0	go	0.629	Go_X	1.0
226.543	1.0	go	0.329	Go_O	1.0
229.076	1.0	go	0.248	Go_X	1.0
231.609	0.35	stopsuccess	0.0	Go_O	1.0
234.143	1.0	go	0.303	Go_X	1.0
236.692	1.0	go	0.318	Go_O	1.0
239.226	1.0	go	0.494	Go_O	1.0
241.759	1.0	go	0.731	Go_X	1.0
244.292	1.0	go	0.51	Go_O	1.0
246.826	1.0	go	0.209	Go_X	1.0
249.359	0.4	stopfail	0.237	Go_X	0.0
251.892	1.0	go	0.453	Go_X	1.0
254.425	1.0	go	0.403	Go_O	1.0
256.959	0.35	stopsuccess	0.0	Go_O	1.0
259.492	1.0	go	0.537	Go_O	1.0
262.025	0.4	stopfail	0.383	Go_X	0.0
264.559	0.35	stopfail	0.394	Go_O	0.0
267.108	1.0	go	0.378	Go_X	1.0
269.642	1.0	go	0.524	Go_X	1.0
272.175	1.0	go	0.446	Go_O	1.0
274.708	1.0	go	0.396	Go_O	1.0
277.242	0.3	stopfail	0.364	Go_X	0.0
279.775	1.0	go	0.456	Go_X	1.0
282.308	0.25	stopsuccess	0.0	Go_O	1.0
284.841	1.0	go	0.422	Go_X	1.0
287.375	1.0	go	0.461	Go_O	1.0
289.908	1.0	go	0.531	Go_X	1.0
292.441	1.0	go	0.458	Go_O	1.0
294.974	1.0	go	0.332	Go_X	1.0
297.508	1.0	go	0.353	Go_O	1.0
300.041	1.0	go	0.498	Go_O	1.0
302.574	1.0	go	0.577	Go_X	1.0
305.108	1.0	go	0.697	Go_O	1.0
307.641	0.3	stopsuccess	0.0	Go_X	1.0
310.174	1.0	go	0.423	Go_X	1.0
312.707	1.0	go	0.554	Go_X	1.0
315.241	1.0	go	0.418	Go_O	1.0
317.774	0.35	stopsuccess	0.0	Go_O	1.0
320.307	1.0	go	0.517	Go_O	1.0
322.84	1.0	go	0.361	Go_X	1.0
325.374	1.0	go	0.281	Go_O	1.0
327.907	1.0	go	0.326	Go_X	1.0
330.44	1.0	go	0.442	Go_O	1.0
332.974	1.0	go	0.599	Go_X	1.0
335.507	0.4	stopsuccess	0.0	Go_X	1.0
338.04	1.0	go	0.443	Go_X	1.0
340.573	1.0	go	0.342	Go_O	1.0
343.107	0.45	stopfail	0.432	Go_O	0.0
345.64	1.0	go	0.7	Go_O	1.0
348.173	1.0	go	0.327	Go_X	1.0
350.706	0.4	stopfail	0.361	Go_X	0.0
353.24	1.0	go	0.337	Go_O	1.0
355.773	0.35	stopfail	0.441	Go_O	0.0
358.306	1.0	go	0.257	Go_X	1.0
360.84	1.0	go	0.496	Go_X	1.0
363.373	1.0	go	0.439	Go_O	1.0
365.906	1.0	go	0.46	Go_O	1.0
368.439	1.0	go	0.564	Go_X	1.0
370.973	0.3	stopfail	0.421	Go_X	0.0
373.506	0.25	stopfail	0.398	Go_O	0.0
376.039	1.0	go	0.39	Go_X	1.0
378.573	1.0	go	0.431	Go_O	1.0
381.122	0.2	stopsuccess	0.0	Go_X	1.0
383.656	1.0	go	0.56	Go_X	1.0
386.189	1.0	go	0.429	Go_O	1.0
388.722	1.0	go	0.409	Go_O	1.0
391.256	1.0	go	0.365	Go_X	1.0
393.789	1.0	go	0.574	Go_O	1.0
396.322	1.0	go	0.381	Go_X	1.0
398.855	0.25	stopsuccess	0.0	Go_O	1.0
401.389	1.0	go	0.417	Go_O	1.0
403.922	1.0	go	0.81	Go_X	1.0
406.455	1.0	go	0.444	Go_O	1.0
408.988	1.0	go	0.653	Go_X	1.0
411.522	1.0	go	0.474	Go_O	1.0
414.055	0.3	stopsuccess	0.0	Go_X	1.0
416.588	1.0	go	0.34	Go_X	1.0
419.122	1.0	go	0.349	Go_X	1.0
421.655	1.0	go	0.469	Go_O	1.0
424.188	1.0	go	0.539	Go_O	1.0
426.721	0.35	stopfail	0.258	Go_O	0.0
429.255	1.0	go	0.504	Go_X	1.0
431.788	1.0	go	0.762	Go_X	1.0
434.321	0.3	stopsuccess	0.0	Go_X	1.0
436.854	1.0	go	0.509	Go_O	1.0
439.388	0.35	stopfail	0.45	Go_O	0.0
441.921	1.0	go	0.36	Go_X	1.0
444.454	1.0	go	0.419	Go_O	1.0
446.988	1.0	go	0.408	Go_X	1.0
449.521	1.0	go	0.563	Go_O	1.0
452.054	1.0	go	0.576	Go_X	1.0
454.587	1.0	go	0.468	Go_O	1.0
457.121	1.0	go	0.423	Go_O	1.0
459.654	0.3	stopsuccess	0.0	Go_X	1.0
462.187	1.0	go	0.714	Go_X	1.0
464.72	1.0	go	0.728	Go_X	1.0
467.254	1.0	go	0.592	Go_O	1.0
469.787	0.35	stopfail	0.455	Go_O	0.0
472.32	1.0	go	0.451	Go_O	1.0
474.854	1.0	go	0.582	Go_X	1.0
477.387	1.0	go	0.611	Go_O	1.0
479.92	1.0	go	0.467	Go_X	1.0
482.453	0.3	stopsuccess	0.0	Go_X	1.0
484.987	1.0	go	0.71	Go_X	1.0
487.52	1.0	go	0.724	Go_O	1.0
490.053	0.35	stopsuccess	0.0	Go_O	1.0
492.587	1.0	go	0.637	Go_O	1.0
495.136	1.0	go	0.393	Go_X	1.0
497.67	0.4	stopfail	0.506	Go_X	0.0
500.203	1.0	go	0.5	Go_O	1.0
502.736	1.0	go	0.362	Go_X	1.0
505.27	0.35	stopfail	0.344	Go_O	0.0
507.803	1.0	go	0.803	Go_O	1.0
510.336	1.0	go	0.442	Go_X	1.0
512.869	1.0	go	0.204	Go_O	1.0
515.403	1.0	go	0.333	Go_X	1.0
517.936	1.0	go	0.316	Go_X	1.0
520.469	1.0	go	0.207	Go_O	1.0
523.002	0.3	stopfail	0.256	Go_X	0.0
525.536	1.0	go	0.318	Go_X	1.0
528.069	0.25	stopfail	0.222	Go_O	0.0
530.602	1.0	go	0.405	Go_O	1.0
533.136	1.0	go	0.534	Go_O	1.0
535.669	1.0	go	0.341	Go_X	1.0
538.202	1.0	go	0.494	Go_O	1.0
540.735	1.0	go	0.311	Go_X	1.0
543.269	0.2	stopfail	0.358	Go_X	0.0
545.802	1.0	go	0.49	Go_X	1.0
548.335	1.0	go	0.863	Go_O	1.0
550.868	1.0	go	0.534	Go_X	1.0
553.402	0.15	stopsuccess	0.0	Go_O	1.0
555.935	0.2	stopfail	0.377	Go_X	0.0
558.468	0.15	stopsuccess	0.0	Go_O	1.0
561.002	1.0	go	0.425	Go_O	1.0
563.535	0.2	stopsuccess	0.0	Go_X	1.0
566.068	1.0	go	0.438	Go_X	1.0
568.601	1.0	go	0.438	Go_O	1.0
571.135	1.0	go	0.442	Go_X	1.0
573.668	1.0	go	0.431	Go_O	1.0
576.201	1.0	go	0.449	Go_X	1.0
578.735	1.0	go	0.454	Go_O	1.0
581.284	1.0	go	0.313	Go_X	1.0
583.818	1.0	go	0.41	Go_O	1.0
586.351	0.25	stopfail	0.399	Go_O	0.0
588.884	1.0	go	0.409	Go_O	1.0
591.418	1.0	go	0.459	Go_X	1.0
593.951	0.2	stopfail	0.679	Go_X	0.0
596.484	1.0	go	0.0	Go_X	0.0
599.017	1.0	go	0.363	Go_O	1.0
601.551	1.0	go	0.272	Go_X	1.0
604.084	1.0	go	0.287	Go_O	1.0
606.617	1.0	go	0.435	Go_O	1.0
609.15	0.15	stopsuccess	0.0	Go_O	1.0
611.684	1.0	go	0.327	Go_X	1.0
614.217	1.0	go	0.461	Go_X	1.0
616.75	1.0	go	0.606	Go_O	1.0
619.284	0.2	stopfail	0.377	Go_X	0.0
621.817	1.0	go	0.498	Go_X	1.0
624.35	0.15	stopsuccess	0.0	Go_O	1.0
626.883	1.0	go	0.553	Go_O	1.0
629.417	1.0	go	0.577	Go_O	1.0
631.95	1.0	go	0.665	Go_X	1.0
634.483	1.0	go	0.499	Go_O	1.0
637.016	1.0	go	0.28	Go_X	1.0
639.55	1.0	go	0.326	Go_O	1.0
642.083	1.0	go	0.377	Go_X	1.0
644.616	0.2	stopsuccess	0.0	Go_X	1.0
647.15	1.0	go	0.516	Go_X	1.0
649.683	1.0	go	0.299	Go_O	1.0
652.216	1.0	go	0.443	Go_O	1.0
654.749	1.0	go	0.396	Go_X	1.0
657.283	0.25	stopsuccess	0.0	Go_O	1.0
659.816	1.0	go	0.496	Go_O	1.0
662.349	0.3	stopsuccess	0.0	Go_X	1.0
664.883	1.0	go	0.515	Go_X	1.0
667.432	1.0	go	0.274	Go_X	1.0
669.966	0.35	stopfail	0.412	Go_O	0.0
672.499	1.0	go	0.513	Go_O	1.0
675.032	1.0	go	0.63	Go_X	1.0
677.566	1.0	go	0.434	Go_O	1.0
680.099	1.0	go	0.279	Go_X	1.0
682.632	1.0	go	0.333	Go_O	1.0
685.165	1.0	go	0.574	Go_O	1.0
687.699	1.0	go	0.387	Go_X	1.0
690.232	1.0	go	0.477	Go_O	1.0
692.765	1.0	go	0.408	Go_X	1.0
695.298	1.0	go	0.496	Go_X	1.0
697.832	0.3	stopsuccess	0.0	Go_X	1.0
700.365	1.0	go	0.294	Go_O	1.0
702.898	1.0	go	0.535	Go_O	1.0
705.432	0.35	stopfail	0.753	Go_O	0.0
707.965	1.0	go	0.648	Go_X	1.0
710.498	0.3	stopsuccess	0.0	Go_X	1.0
713.031	1.0	go	0.528	Go_O	1.0
715.565	1.0	go	0.305	Go_X	1.0
718.098	0.35	stopfail	0.705	Go_O	0.0
720.631	1.0	go	0.6	Go_X	1.0
723.164	0.3	stopfail	0.486	Go_X	0.0
725.698	1.0	go	0.77	Go_O	1.0
728.231	1.0	go	0.478	Go_O	1.0
730.764	1.0	go	0.26	Go_X	1.0
733.298	0.25	stopfail	0.229	Go_O	0.0
735.831	1.0	go	0.202	Go_O	0.0
738.364	1.0	go	0.337	Go_X	1.0
740.897	1.0	go	0.406	Go_X	1.0
743.431	1.0	go	0.631	Go_O	1.0
745.964	0.2	stopfail	0.47	Go_X	0.0
748.497	1.0	go	0.542	Go_O	1.0
751.031	1.0	go	0.471	Go_X	1.0
753.58	0.15	stopsuccess	0.0	Go_O	1.0
756.114	1.0	go	0.33	Go_X	1.0
758.647	1.0	go	0.475	Go_O	1.0
761.18	1.0	go	0.734	Go_O	1.0
763.714	1.0	go	0.572	Go_X	1.0
766.247	0.2	stopsuccess	0.0	Go_X	1.0
768.78	1.0	go	0.372	Go_X	1.0
771.313	0.25	stopfail	0.466	Go_O	0.0
773.847	1.0	go	0.638	Go_O	1.0
776.38	1.0	go	0.0	Go_X	0.0
778.913	0.2	stopfail	0.401	Go_X	0.0
781.446	1.0	go	0.66	Go_O	1.0
783.98	1.0	go	0.241	Go_X	1.0
786.513	1.0	go	0.474	Go_O	1.0
789.046	1.0	go	0.43	Go_X	1.0
791.58	0.15	stopfail	0.624	Go_O	0.0
794.113	1.0	go	0.503	Go_O	1.0
796.646	0.1	stopsuccess	0.0	Go_X	1.0
799.179	1.0	go	0.63	Go_O	1.0
801.713	1.0	go	0.679	Go_X	1.0
804.246	1.0	go	0.727	Go_O	1.0
806.779	1.0	go	0.705	Go_X	1.0
809.312	1.0	go	0.563	Go_X	1.0
811.846	1.0	go	0.722	Go_O	1.0
814.379	0.15	stopsuccess	0.0	Go_O	1.0
816.912	1.0	go	0.312	Go_X	1.0
819.446	1.0	go	0.401	Go_O	1.0
821.979	0.2	stopfail	0.369	Go_X	0.0
824.512	1.0	go	0.753	Go_O	1.0
827.045	1.0	go	0.289	Go_X	1.0
829.579	0.15	stopsuccess	0.0	Go_O	1.0
832.112	1.0	go	0.419	Go_X	1.0
834.645	1.0	go	0.822	Go_O	1.0
837.178	1.0	go	0.269	Go_X	1.0
839.712	1.0	go	0.386	Go_O	1.0
842.245	0.2	stopfail	0.356	Go_X	0.0
844.778	1.0	go	0.585	Go_X	1.0
847.312	0.15	stopsuccess	0.0	Go_O	1.0
849.845	1.0	go	0.44	Go_O	0.0
852.378	1.0	go	0.492	Go_O	1.0
854.911	1.0	go	0.489	Go_X	1.0
857.445	1.0	go	0.325	Go_O	1.0
859.978	1.0	go	0.428	Go_X	1.0
862.511	0.2	stopfail	0.435	Go_X	0.0
865.045	1.0	go	0.322	Go_O	1.0
867.594	1.0	go	0.561	Go_X	1.0
870.128	0.15	stopfail	0.341	Go_O	0.0
872.661	0.1	stopsuccess	0.0	Go_X	1.0
875.194	1.0	go	0.356	Go_X	1.0
877.728	1.0	go	0.283	Go_O	1.0
880.261	1.0	go	0.395	Go_X	1.0
882.794	1.0	go	0.487	Go_O	1.0
885.327	0.15	stopfail	0.251	Go_O	0.0
887.861	1.0	go	0.398	Go_O	1.0
