onset	duration	trial_type	response_time	stim_file	accuracy
54.924	1.0	go	0.699	Go_X	1.0
57.498	1.0	go	0.623	Go_O	0.0
60.022	1.0	go	0.37	Go_O	1.0
62.546	1.0	go	0.45	Go_X	0.0
65.071	1.0	go	0.608	Go_X	0.0
67.595	1.0	go	0.534	Go_O	0.0
70.119	0.25	stopsuccess	0.0	Go_O	1.0
72.66	1.0	go	0.469	Go_X	0.0
75.184	0.3	stopsuccess	0.0	Go_X	1.0
77.725	1.0	go	0.387	Go_O	0.0
80.249	1.0	go	0.398	Go_X	0.0
82.773	1.0	go	0.496	Go_O	0.0
85.297	0.35	stopsuccess	0.0	Go_O	1.0
87.822	1.0	go	0.571	Go_X	0.0
90.346	1.0	go	0.493	Go_O	0.0
92.87	0.4	stopfail	0.547	Go_X	0.0
95.411	0.35	stopfail	0.459	Go_O	0.0
97.935	1.0	go	0.388	Go_X	0.0
100.459	1.0	go	0.408	Go_O	0.0
102.983	0.3	stopfail	0.436	Go_X	0.0
105.507	1.0	go	0.474	Go_X	0.0
108.048	1.0	go	0.419	Go_O	0.0
110.573	0.25	stopfail	0.412	Go_O	0.0
113.113	1.0	go	0.68	Go_O	0.0
115.638	1.0	go	0.274	Go_X	0.0
118.162	0.2	stopfail	0.409	Go_X	0.0
120.703	1.0	go	0.494	Go_O	0.0
123.227	1.0	go	0.385	Go_X	0.0
125.751	0.15	stopsuccess	0.0	Go_O	1.0
128.292	1.0	go	0.453	Go_O	0.0
130.816	1.0	go	0.475	Go_X	0.0
133.34	1.0	go	0.549	Go_X	0.0
135.864	1.0	go	0.395	Go_O	0.0
138.389	1.0	go	0.521	Go_X	0.0
140.913	0.2	stopsuccess	0.0	Go_X	1.0
143.437	1.0	go	0.403	Go_O	0.0
145.961	1.0	go	0.565	Go_O	0.0
148.502	1.0	go	0.51	Go_X	0.0
151.026	1.0	go	0.538	Go_O	0.0
153.567	1.0	go	0.353	Go_X	0.0
156.091	0.25	stopsuccess	0.0	Go_O	1.0
158.615	1.0	go	0.708	Go_X	0.0
161.14	1.0	go	0.633	Go_O	0.0
163.68	1.0	go	0.553	Go_O	0.0
166.205	1.0	go	0.535	Go_X	0.0
168.729	1.0	go	0.55	Go_O	0.0
171.253	1.0	go	0.361	Go_X	0.0
173.794	0.3	stopfail	0.386	Go_X	0.0
176.335	1.0	go	0.572	Go_X	0.0
178.859	1.0	go	0.431	Go_O	0.0
181.383	0.25	stopsuccess	0.0	Go_O	1.0
183.907	1.0	go	0.0	Go_O	0.0
186.431	0.3	stopfail	0.613	Go_X	0.0
188.956	0.25	stopsuccess	0.0	Go_O	1.0
191.496	1.0	go	0.549	Go_X	0.0
194.021	1.0	go	0.756	Go_X	0.0
196.545	1.0	go	0.393	Go_O	0.0
199.069	1.0	go	0.521	Go_O	0.0
201.593	0.3	stopfail	0.323	Go_X	0.0
204.134	1.0	go	0.437	Go_X	0.0
206.658	0.25	stopsuccess	0.0	Go_O	1.0
209.199	1.0	go	0.513	Go_O	0.0
211.723	1.0	go	0.282	Go_X	0.0
214.247	1.0	go	0.484	Go_O	0.0
216.772	1.0	go	0.709	Go_X	0.0
219.296	1.0	go	0.477	Go_O	0.0
221.82	1.0	go	0.271	Go_X	0.0
224.344	1.0	go	0.274	Go_X	0.0
226.885	1.0	go	0.433	Go_O	0.0
229.409	1.0	go	0.526	Go_X	0.0
231.933	0.3	stopsuccess	0.0	Go_X	1.0
234.458	1.0	go	0.393	Go_O	0.0
236.982	1.0	go	0.517	Go_O	0.0
239.506	1.0	go	0.414	Go_X	0.0
242.03	0.35	stopfail	0.459	Go_O	0.0
244.571	1.0	go	0.504	Go_O	0.0
247.095	1.0	go	0.624	Go_X	0.0
249.619	1.0	go	0.521	Go_O	0.0
252.144	1.0	go	0.41	Go_X	0.0
254.684	1.0	go	0.294	Go_O	0.0
257.209	1.0	go	0.368	Go_X	0.0
259.749	0.3	stopfail	0.518	Go_X	0.0
262.274	1.0	go	0.46	Go_X	0.0
264.814	1.0	go	0.394	Go_O	0.0
267.339	0.25	stopsuccess	0.0	Go_O	1.0
269.88	1.0	go	0.435	Go_X	0.0
272.404	1.0	go	0.474	Go_O	0.0
274.928	0.3	stopfail	0.375	Go_X	0.0
277.469	1.0	go	0.442	Go_X	0.0
280.01	0.25	stopsuccess	0.0	Go_O	1.0
282.551	1.0	go	0.753	Go_O	0.0
285.091	1.0	go	0.343	Go_X	0.0
287.616	1.0	go	0.607	Go_O	0.0
290.14	1.0	go	0.553	Go_O	0.0
292.664	1.0	go	0.304	Go_X	0.0
295.188	0.3	stopfail	0.456	Go_X	0.0
297.729	0.25	stopfail	0.441	Go_O	0.0
300.27	1.0	go	0.448	Go_X	0.0
302.811	1.0	go	0.491	Go_O	0.0
305.335	0.2	stopsuccess	0.0	Go_X	1.0
307.876	1.0	go	0.0	Go_X	0.0
310.4	1.0	go	0.372	Go_O	0.0
312.924	1.0	go	0.489	Go_O	0.0
315.448	1.0	go	0.426	Go_X	0.0
317.973	1.0	go	0.449	Go_O	0.0
320.497	1.0	go	0.401	Go_X	0.0
323.021	0.25	stopsuccess	0.0	Go_O	1.0
325.562	1.0	go	0.604	Go_X	0.0
328.086	1.0	go	0.359	Go_O	0.0
330.61	1.0	go	0.361	Go_O	0.0
333.134	1.0	go	0.673	Go_X	0.0
335.658	1.0	go	0.415	Go_O	0.0
338.183	0.3	stopfail	0.299	Go_X	0.0
340.724	1.0	go	0.479	Go_X	0.0
343.248	1.0	go	0.478	Go_X	0.0
345.772	1.0	go	0.481	Go_O	0.0
348.296	1.0	go	0.559	Go_X	0.0
350.82	0.25	stopfail	0.405	Go_O	0.0
353.344	1.0	go	0.279	Go_O	0.0
355.869	1.0	go	0.587	Go_O	0.0
358.393	0.2	stopsuccess	0.0	Go_X	1.0
360.934	1.0	go	0.544	Go_X	0.0
363.458	0.25	stopfail	0.397	Go_O	0.0
365.999	1.0	go	0.415	Go_X	0.0
368.523	1.0	go	0.553	Go_O	0.0
371.047	1.0	go	0.529	Go_O	0.0
373.571	1.0	go	0.773	Go_X	0.0
376.095	1.0	go	0.412	Go_X	0.0
378.62	1.0	go	0.459	Go_O	0.0
381.144	1.0	go	0.524	Go_O	0.0
383.668	0.2	stopfail	0.289	Go_X	0.0
386.192	1.0	go	0.375	Go_X	0.0
388.716	1.0	go	0.439	Go_O	0.0
391.24	1.0	go	0.466	Go_X	0.0
393.765	0.15	stopsuccess	0.0	Go_O	1.0
396.305	1.0	go	0.538	Go_O	0.0
398.83	1.0	go	0.374	Go_X	0.0
401.354	1.0	go	0.405	Go_X	0.0
403.878	1.0	go	0.5	Go_O	0.0
406.402	0.2	stopfail	0.28	Go_X	0.0
408.943	1.0	go	0.42	Go_X	0.0
411.467	1.0	go	0.385	Go_O	0.0
413.991	0.15	stopsuccess	0.0	Go_O	1.0
416.516	1.0	go	0.728	Go_O	0.0
419.056	1.0	go	0.51	Go_X	0.0
421.581	0.2	stopsuccess	0.0	Go_X	1.0
424.122	1.0	go	0.473	Go_X	1.0
426.646	1.0	go	0.0	Go_O	0.0
429.17	0.25	stopsuccess	0.0	Go_O	1.0
431.711	1.0	go	0.541	Go_O	0.0
434.235	1.0	go	0.302	Go_X	0.0
436.759	1.0	go	0.53	Go_X	0.0
439.283	1.0	go	0.441	Go_O	0.0
441.807	1.0	go	0.545	Go_O	0.0
444.348	1.0	go	0.317	Go_X	0.0
446.872	0.3	stopfail	0.361	Go_X	0.0
449.397	1.0	go	0.492	Go_X	0.0
451.938	0.25	stopfail	0.361	Go_O	0.0
454.478	1.0	go	0.598	Go_O	0.0
457.003	1.0	go	0.591	Go_O	0.0
459.527	1.0	go	0.223	Go_X	0.0
462.051	1.0	go	0.28	Go_O	0.0
464.575	1.0	go	0.251	Go_X	0.0
467.099	0.2	stopfail	0.309	Go_X	0.0
469.64	1.0	go	0.359	Go_X	0.0
472.181	1.0	go	0.548	Go_O	0.0
474.705	1.0	go	0.608	Go_O	0.0
477.229	0.15	stopsuccess	0.0	Go_O	1.0
479.754	0.2	stopsuccess	0.0	Go_X	1.0
482.294	0.25	stopsuccess	0.0	Go_O	1.0
484.819	1.0	go	0.392	Go_X	0.0
487.343	0.3	stopfail	0.467	Go_X	0.0
489.884	1.0	go	0.572	Go_O	0.0
492.408	1.0	go	0.428	Go_X	0.0
494.932	1.0	go	0.656	Go_X	0.0
497.456	1.0	go	0.54	Go_O	0.0
499.997	1.0	go	0.337	Go_X	1.0
502.521	1.0	go	0.484	Go_O	0.0
505.045	1.0	go	0.266	Go_X	0.0
507.57	1.0	go	0.272	Go_O	0.0
510.094	0.25	stopfail	0.369	Go_O	0.0
512.618	1.0	go	0.743	Go_O	0.0
515.142	1.0	go	0.361	Go_X	0.0
517.666	0.2	stopsuccess	0.0	Go_X	1.0
520.19	1.0	go	0.601	Go_X	0.0
522.715	1.0	go	0.493	Go_O	0.0
525.239	1.0	go	0.611	Go_X	0.0
527.763	1.0	go	0.501	Go_O	0.0
530.287	1.0	go	0.525	Go_O	0.0
532.811	0.25	stopsuccess	0.0	Go_O	1.0
535.335	1.0	go	0.524	Go_X	0.0
537.86	1.0	go	0.387	Go_X	0.0
540.384	1.0	go	0.486	Go_O	0.0
542.908	0.3	stopsuccess	0.0	Go_X	1.0
545.432	1.0	go	0.518	Go_X	0.0
547.956	0.35	stopfail	0.503	Go_O	0.0
550.497	1.0	go	0.59	Go_O	0.0
553.021	1.0	go	0.558	Go_O	0.0
555.546	1.0	go	0.318	Go_X	0.0
558.086	1.0	go	0.294	Go_X	1.0
560.611	1.0	go	0.49	Go_O	0.0
563.135	1.0	go	0.0	Go_X	0.0
565.659	1.0	go	0.451	Go_O	0.0
568.183	0.3	stopsuccess	0.0	Go_X	1.0
570.707	1.0	go	0.435	Go_O	0.0
573.231	1.0	go	0.0	Go_X	0.0
575.756	1.0	go	0.412	Go_O	0.0
578.28	1.0	go	0.305	Go_X	0.0
580.804	0.35	stopfail	0.392	Go_O	0.0
583.328	1.0	go	0.486	Go_O	0.0
585.852	0.3	stopfail	0.347	Go_X	0.0
588.377	1.0	go	0.473	Go_X	0.0
590.901	1.0	go	0.439	Go_O	0.0
593.425	0.25	stopsuccess	0.0	Go_O	1.0
595.966	1.0	go	0.529	Go_X	0.0
598.49	1.0	go	0.42	Go_X	0.0
601.031	1.0	go	0.561	Go_O	0.0
603.555	1.0	go	0.605	Go_X	0.0
606.079	1.0	go	0.515	Go_O	0.0
608.603	1.0	go	0.522	Go_O	0.0
611.127	1.0	go	0.443	Go_X	0.0
613.652	1.0	go	0.292	Go_O	0.0
616.176	1.0	go	0.474	Go_X	0.0
618.7	1.0	go	0.462	Go_O	0.0
621.224	0.3	stopfail	0.291	Go_X	0.0
623.748	1.0	go	0.415	Go_X	0.0
626.273	1.0	go	0.515	Go_O	0.0
628.797	0.25	stopsuccess	0.0	Go_O	1.0
631.338	1.0	go	0.425	Go_X	0.0
633.878	0.3	stopfail	0.332	Go_X	0.0
636.419	1.0	go	0.412	Go_O	0.0
638.944	1.0	go	0.439	Go_X	0.0
641.484	0.25	stopfail	0.373	Go_O	0.0
644.025	1.0	go	0.394	Go_X	0.0
646.549	0.2	stopsuccess	0.0	Go_X	1.0
649.074	1.0	go	0.364	Go_O	0.0
651.598	1.0	go	0.674	Go_X	0.0
654.122	1.0	go	0.413	Go_O	0.0
656.646	0.25	stopsuccess	0.0	Go_O	1.0
659.187	1.0	go	0.389	Go_X	0.0
661.711	1.0	go	0.482	Go_O	0.0
664.235	1.0	go	0.336	Go_X	0.0
666.76	1.0	go	0.367	Go_O	0.0
669.3	0.3	stopfail	0.495	Go_X	0.0
671.841	1.0	go	0.588	Go_X	0.0
674.366	1.0	go	0.283	Go_O	0.0
676.89	0.25	stopsuccess	0.0	Go_O	1.0
679.431	1.0	go	0.331	Go_X	0.0
681.955	1.0	go	0.547	Go_O	0.0
684.496	1.0	go	0.256	Go_X	0.0
687.037	1.0	go	0.418	Go_O	0.0
689.561	0.3	stopfail	0.471	Go_X	0.0
692.085	1.0	go	0.532	Go_O	0.0
694.609	0.25	stopsuccess	0.0	Go_O	1.0
697.15	1.0	go	0.619	Go_X	0.0
699.674	1.0	go	0.535	Go_X	0.0
702.198	0.3	stopfail	0.484	Go_X	0.0
704.722	1.0	go	0.589	Go_O	0.0
707.247	1.0	go	0.45	Go_X	0.0
709.771	1.0	go	0.754	Go_O	0.0
712.295	1.0	go	0.359	Go_X	0.0
714.819	0.25	stopsuccess	0.0	Go_O	1.0
717.36	1.0	go	0.526	Go_O	0.0
719.884	0.3	stopfail	0.451	Go_X	0.0
722.408	1.0	go	0.372	Go_O	0.0
724.933	1.0	go	0.64	Go_X	0.0
727.473	1.0	go	0.389	Go_X	1.0
729.998	1.0	go	0.399	Go_O	0.0
732.539	1.0	go	0.634	Go_O	0.0
735.063	1.0	go	0.319	Go_X	0.0
737.587	0.25	stopsuccess	0.0	Go_O	1.0
740.128	1.0	go	0.959	Go_O	0.0
742.652	1.0	go	0.32	Go_X	0.0
745.176	0.3	stopfail	0.521	Go_X	0.0
747.717	1.0	go	0.316	Go_O	0.0
750.241	1.0	go	0.477	Go_X	0.0
752.765	0.25	stopsuccess	0.0	Go_O	1.0
755.289	1.0	go	0.466	Go_X	0.0
757.814	1.0	go	0.454	Go_O	0.0
760.338	1.0	go	0.547	Go_X	0.0
762.862	1.0	go	0.755	Go_O	0.0
765.386	0.3	stopfail	0.409	Go_X	0.0
767.927	1.0	go	0.503	Go_O	0.0
770.451	0.25	stopsuccess	0.0	Go_O	1.0
772.975	1.0	go	0.365	Go_X	0.0
775.5	1.0	go	0.506	Go_O	0.0
778.024	1.0	go	0.469	Go_X	0.0
780.548	1.0	go	0.519	Go_X	0.0
783.072	1.0	go	0.44	Go_O	0.0
785.596	0.3	stopsuccess	0.0	Go_X	1.0
788.137	1.0	go	0.311	Go_O	0.0
790.661	1.0	go	0.508	Go_X	0.0
793.185	0.35	stopfail	0.534	Go_O	0.0
795.726	0.3	stopfail	0.454	Go_X	0.0
798.267	1.0	go	0.474	Go_O	0.0
800.791	1.0	go	0.664	Go_X	0.0
803.316	1.0	go	0.635	Go_O	0.0
805.84	1.0	go	0.491	Go_X	0.0
808.364	0.25	stopfail	0.3	Go_O	0.0
810.905	1.0	go	0.48	Go_X	0.0
