onset	duration	trial_type	response_time	stim_file	accuracy
50.31	1.0	go	0.558	Go_X	1.0
52.885	1.0	go	0.286	Go_O	1.0
55.409	1.0	go	0.242	Go_X	1.0
57.933	1.0	go	0.267	Go_O	1.0
60.457	1.0	go	0.368	Go_O	1.0
62.982	1.0	go	0.25	Go_X	1.0
65.506	0.25	stop	0.332	Go_O	0.0
68.03	1.0	go	0.254	Go_X	1.0
70.554	0.2	stop	0.0	Go_X	1.0
73.078	1.0	go	0.257	Go_O	1.0
75.602	1.0	go	0.37	Go_O	1.0
78.127	1.0	go	0.32	Go_X	1.0
80.651	0.25	stop	0.259	Go_O	0.0
83.175	1.0	go	0.432	Go_O	1.0
85.699	1.0	go	0.322	Go_X	1.0
88.223	0.2	stop	0.369	Go_X	0.0
90.748	0.15	stop	0.0	Go_O	1.0
93.272	1.0	go	0.219	Go_X	1.0
95.796	1.0	go	0.295	Go_O	1.0
98.32	0.2	stop	0.0	Go_X	1.0
100.844	1.0	go	0.299	Go_O	1.0
103.369	1.0	go	0.351	Go_X	1.0
105.893	0.25	stop	0.312	Go_O	0.0
108.417	1.0	go	0.393	Go_O	1.0
110.941	1.0	go	0.249	Go_X	1.0
113.465	0.2	stop	0.0	Go_X	1.0
115.99	1.0	go	0.356	Go_X	1.0
118.514	1.0	go	0.297	Go_O	1.0
121.038	0.25	stop	0.356	Go_O	0.0
123.562	1.0	go	0.66	Go_O	1.0
126.086	1.0	go	0.243	Go_X	1.0
128.611	1.0	go	0.317	Go_X	0.0
131.135	1.0	go	0.353	Go_O	1.0
133.659	1.0	go	0.308	Go_X	1.0
136.183	0.2	stop	0.347	Go_X	0.0
138.707	1.0	go	0.271	Go_O	1.0
141.231	1.0	go	0.372	Go_O	1.0
143.756	1.0	go	0.236	Go_X	1.0
146.28	1.0	go	0.41	Go_O	1.0
148.804	1.0	go	0.348	Go_X	1.0
151.328	0.15	stop	0.0	Go_O	1.0
153.852	1.0	go	0.294	Go_O	1.0
156.377	1.0	go	0.405	Go_X	1.0
158.901	1.0	go	0.298	Go_O	1.0
161.425	1.0	go	0.742	Go_X	1.0
163.949	1.0	go	0.344	Go_X	1.0
166.473	1.0	go	0.306	Go_O	1.0
168.998	0.2	stop	0.278	Go_X	0.0
171.522	1.0	go	0.374	Go_O	1.0
174.046	1.0	go	0.339	Go_X	1.0
176.57	0.15	stop	0.0	Go_O	1.0
179.094	1.0	go	0.271	Go_X	1.0
181.619	0.2	stop	0.323	Go_X	0.0
184.143	0.15	stop	0.0	Go_O	1.0
186.667	1.0	go	0.333	Go_O	0.0
189.191	1.0	go	0.433	Go_O	1.0
191.715	1.0	go	0.356	Go_X	1.0
194.24	1.0	go	0.337	Go_X	1.0
196.764	0.2	stop	0.305	Go_X	0.0
199.288	1.0	go	0.254	Go_O	1.0
201.812	0.15	stop	0.222	Go_O	0.0
204.336	1.0	go	0.281	Go_O	0.0
206.86	1.0	go	0.328	Go_X	1.0
209.385	1.0	go	0.467	Go_X	1.0
211.909	1.0	go	0.379	Go_O	1.0
214.433	1.0	go	0.332	Go_O	1.0
216.957	1.0	go	0.214	Go_X	1.0
219.481	1.0	go	0.33	Go_X	1.0
222.006	1.0	go	0.333	Go_O	1.0
224.53	1.0	go	0.344	Go_O	1.0
227.054	0.1	stop	0.28	Go_X	0.0
229.578	1.0	go	0.329	Go_X	0.0
232.102	1.0	go	0.364	Go_O	1.0
234.627	1.0	go	0.274	Go_X	1.0
237.151	0.05	stop	0.0	Go_O	1.0
239.675	1.0	go	0.445	Go_O	1.0
242.199	1.0	go	0.305	Go_X	1.0
244.723	1.0	go	0.247	Go_O	1.0
247.248	1.0	go	0.238	Go_X	1.0
249.772	1.0	go	0.35	Go_X	1.0
252.296	1.0	go	0.371	Go_O	1.0
254.82	0.1	stop	0.0	Go_X	1.0
257.344	1.0	go	0.459	Go_O	1.0
259.869	1.0	go	0.27	Go_X	1.0
262.393	0.15	stop	0.365	Go_O	0.0
264.917	1.0	go	0.507	Go_O	1.0
267.441	1.0	go	0.276	Go_X	1.0
269.965	0.1	stop	0.0	Go_X	1.0
272.489	1.0	go	0.268	Go_X	1.0
275.014	0.15	stop	0.0	Go_O	1.0
277.538	1.0	go	0.616	Go_O	1.0
280.062	1.0	go	0.303	Go_X	1.0
282.586	1.0	go	0.261	Go_O	1.0
285.11	1.0	go	0.238	Go_O	0.0
287.635	1.0	go	0.347	Go_X	1.0
290.159	0.2	stop	0.0	Go_X	1.0
292.683	0.25	stop	0.201	Go_O	0.0
295.207	1.0	go	0.243	Go_X	1.0
297.731	1.0	go	0.347	Go_O	1.0
300.256	0.2	stop	0.288	Go_X	0.0
302.78	1.0	go	0.546	Go_X	1.0
305.304	1.0	go	0.344	Go_O	1.0
307.828	1.0	go	0.349	Go_X	1.0
310.352	1.0	go	0.3	Go_O	1.0
312.877	1.0	go	0.401	Go_O	1.0
315.401	1.0	go	0.271	Go_X	1.0
317.925	0.15	stop	0.271	Go_O	0.0
320.449	1.0	go	0.263	Go_X	1.0
322.973	1.0	go	0.239	Go_O	1.0
325.498	1.0	go	0.369	Go_X	1.0
328.022	1.0	go	0.668	Go_O	1.0
330.546	1.0	go	0.658	Go_X	1.0
333.07	0.1	stop	0.0	Go_X	1.0
335.594	1.0	go	0.285	Go_O	1.0
338.118	1.0	go	0.349	Go_O	1.0
340.643	1.0	go	0.249	Go_X	1.0
343.167	1.0	go	0.357	Go_O	1.0
345.691	0.15	stop	0.283	Go_O	0.0
348.215	1.0	go	0.288	Go_X	1.0
350.739	1.0	go	0.429	Go_X	1.0
353.264	0.1	stop	0.0	Go_X	1.0
355.788	1.0	go	0.279	Go_O	1.0
358.312	0.15	stop	0.0	Go_O	1.0
360.836	1.0	go	0.746	Go_X	1.0
363.36	1.0	go	0.474	Go_O	1.0
365.885	1.0	go	0.482	Go_O	1.0
368.409	1.0	go	0.586	Go_X	1.0
370.933	1.0	go	0.287	Go_O	1.0
373.457	1.0	go	0.407	Go_X	1.0
375.981	1.0	go	0.49	Go_O	1.0
378.506	0.2	stop	0.0	Go_X	1.0
381.03	1.0	go	0.401	Go_X	1.0
383.554	1.0	go	0.341	Go_X	1.0
386.078	1.0	go	0.395	Go_O	1.0
388.602	0.25	stop	0.332	Go_O	0.0
391.127	1.0	go	0.442	Go_O	1.0
393.651	1.0	go	0.825	Go_X	1.0
396.175	1.0	go	0.394	Go_X	1.0
398.699	1.0	go	0.308	Go_O	1.0
401.223	0.2	stop	0.281	Go_X	0.0
403.747	1.0	go	0.408	Go_X	1.0
406.272	1.0	go	0.481	Go_O	1.0
408.796	0.15	stop	0.0	Go_O	1.0
411.32	1.0	go	0.465	Go_O	1.0
413.844	1.0	go	0.435	Go_X	1.0
416.368	0.2	stop	0.386	Go_X	0.0
418.893	1.0	go	0.433	Go_X	1.0
421.417	1.0	go	0.463	Go_O	1.0
423.941	0.15	stop	0.0	Go_O	1.0
426.465	1.0	go	0.311	Go_X	1.0
428.989	1.0	go	0.409	Go_O	1.0
431.514	1.0	go	0.31	Go_X	1.0
434.038	1.0	go	0.561	Go_O	1.0
436.562	1.0	go	0.522	Go_O	1.0
439.086	1.0	go	0.566	Go_X	1.0
441.61	0.2	stop	0.0	Go_X	1.0
444.135	1.0	go	0.95	Go_O	1.0
446.659	0.25	stop	0.455	Go_O	0.0
449.183	1.0	go	0.324	Go_X	1.0
451.707	1.0	go	0.313	Go_X	1.0
454.231	1.0	go	0.35	Go_O	1.0
456.756	1.0	go	0.237	Go_X	1.0
459.28	1.0	go	0.245	Go_O	1.0
461.804	0.2	stop	0.273	Go_X	0.0
464.328	1.0	go	0.258	Go_X	1.0
466.852	1.0	go	0.387	Go_O	1.0
469.376	1.0	go	0.477	Go_O	1.0
471.901	0.15	stop	0.378	Go_O	0.0
474.425	0.1	stop	0.248	Go_X	0.0
476.949	0.05	stop	0.0	Go_O	1.0
479.473	1.0	go	0.482	Go_X	1.0
481.997	0.1	stop	0.0	Go_X	1.0
484.522	1.0	go	0.238	Go_O	1.0
487.046	1.0	go	0.465	Go_X	1.0
489.57	1.0	go	0.376	Go_O	1.0
492.094	1.0	go	0.423	Go_X	1.0
494.618	1.0	go	0.586	Go_X	1.0
497.143	1.0	go	0.48	Go_O	1.0
499.667	1.0	go	0.513	Go_O	1.0
502.191	1.0	go	0.367	Go_X	1.0
504.715	0.15	stop	0.0	Go_O	1.0
507.239	1.0	go	0.259	Go_X	1.0
509.764	1.0	go	0.398	Go_O	0.0
512.288	0.2	stop	0.0	Go_X	1.0
514.812	1.0	go	0.343	Go_X	1.0
517.336	1.0	go	0.457	Go_O	1.0
519.86	1.0	go	0.735	Go_O	1.0
522.385	1.0	go	0.274	Go_X	1.0
524.909	1.0	go	0.261	Go_O	1.0
527.433	0.25	stop	0.46	Go_O	0.0
529.957	1.0	go	0.448	Go_X	1.0
532.481	1.0	go	0.4	Go_X	1.0
535.005	1.0	go	0.357	Go_O	1.0
537.53	0.2	stop	0.41	Go_X	0.0
540.054	1.0	go	0.464	Go_X	1.0
542.578	0.15	stop	0.308	Go_O	0.0
545.102	1.0	go	0.525	Go_O	1.0
547.626	1.0	go	0.28	Go_X	1.0
550.151	1.0	go	0.276	Go_O	1.0
552.675	1.0	go	0.503	Go_O	1.0
555.199	1.0	go	0.447	Go_X	1.0
557.723	1.0	go	0.48	Go_X	1.0
560.247	1.0	go	0.316	Go_O	1.0
562.772	0.1	stop	0.0	Go_X	1.0
565.296	1.0	go	0.417	Go_X	1.0
567.82	1.0	go	0.529	Go_O	1.0
570.344	1.0	go	0.661	Go_X	1.0
572.868	1.0	go	0.533	Go_O	1.0
575.393	0.15	stop	0.0	Go_O	1.0
577.917	1.0	go	0.251	Go_X	1.0
580.441	0.2	stop	0.0	Go_X	1.0
582.965	1.0	go	0.275	Go_O	1.0
585.489	1.0	go	0.686	Go_O	1.0
588.014	0.25	stop	0.39	Go_O	0.0
590.538	1.0	go	0.512	Go_X	1.0
593.062	1.0	go	0.469	Go_X	1.0
595.586	1.0	go	0.446	Go_O	1.0
598.11	1.0	go	0.322	Go_X	1.0
600.634	1.0	go	0.382	Go_O	1.0
603.159	1.0	go	0.411	Go_O	1.0
605.683	1.0	go	0.285	Go_X	1.0
608.207	1.0	go	0.303	Go_X	1.0
610.731	1.0	go	0.295	Go_O	1.0
613.255	1.0	go	0.405	Go_O	1.0
615.78	0.2	stop	0.261	Go_X	0.0
618.304	1.0	go	0.411	Go_X	1.0
620.828	1.0	go	0.524	Go_X	1.0
623.352	0.15	stop	0.534	Go_O	0.0
625.876	1.0	go	0.281	Go_O	0.0
628.401	0.1	stop	0.0	Go_X	1.0
630.925	1.0	go	0.364	Go_X	1.0
633.449	1.0	go	0.298	Go_O	1.0
635.973	0.15	stop	0.0	Go_O	1.0
638.497	1.0	go	0.463	Go_O	1.0
641.022	0.2	stop	0.378	Go_X	0.0
643.546	1.0	go	0.363	Go_X	1.0
646.07	1.0	go	0.313	Go_X	1.0
648.594	1.0	go	0.0	Go_O	0.0
651.118	0.15	stop	0.0	Go_O	1.0
653.643	1.0	go	0.327	Go_X	1.0
656.167	1.0	go	0.363	Go_O	1.0
658.691	1.0	go	0.394	Go_O	1.0
661.215	1.0	go	0.337	Go_X	1.0
663.739	0.2	stop	0.0	Go_X	1.0
666.263	1.0	go	0.422	Go_X	1.0
668.788	1.0	go	0.391	Go_O	1.0
671.312	0.25	stop	0.492	Go_O	0.0
673.836	1.0	go	0.451	Go_O	1.0
676.36	1.0	go	0.31	Go_X	1.0
678.884	1.0	go	0.412	Go_X	1.0
681.409	1.0	go	0.395	Go_O	1.0
683.933	0.2	stop	0.0	Go_X	1.0
686.457	1.0	go	0.467	Go_O	1.0
688.981	0.25	stop	0.0	Go_O	1.0
691.505	1.0	go	0.356	Go_X	1.0
694.03	1.0	go	0.576	Go_X	1.0
696.554	0.3	stop	0.351	Go_X	0.0
699.078	1.0	go	0.368	Go_O	1.0
701.602	1.0	go	0.753	Go_X	1.0
704.126	1.0	go	0.425	Go_O	1.0
706.651	1.0	go	0.475	Go_O	0.0
709.175	0.25	stop	0.489	Go_O	0.0
711.699	1.0	go	0.326	Go_X	1.0
714.223	0.2	stop	0.405	Go_X	0.0
716.747	1.0	go	0.318	Go_O	1.0
719.272	1.0	go	0.272	Go_X	1.0
721.796	1.0	go	0.277	Go_O	1.0
724.32	1.0	go	0.259	Go_X	1.0
726.844	1.0	go	0.383	Go_X	1.0
729.368	1.0	go	0.267	Go_O	1.0
731.892	0.15	stop	0.0	Go_O	1.0
734.417	1.0	go	0.229	Go_X	1.0
736.941	1.0	go	0.531	Go_O	1.0
739.465	0.2	stop	0.0	Go_X	1.0
741.989	1.0	go	0.268	Go_O	1.0
744.513	1.0	go	0.484	Go_X	1.0
747.038	0.25	stop	0.363	Go_O	0.0
749.562	1.0	go	0.629	Go_O	1.0
752.086	1.0	go	0.317	Go_X	1.0
754.61	1.0	go	0.335	Go_X	1.0
757.134	1.0	go	0.879	Go_O	1.0
759.659	0.2	stop	0.266	Go_X	0.0
762.183	1.0	go	0.334	Go_X	1.0
764.707	0.15	stop	0.26	Go_O	0.0
767.231	1.0	go	0.414	Go_O	1.0
769.755	1.0	go	0.371	Go_X	1.0
772.28	1.0	go	0.526	Go_O	1.0
774.804	1.0	go	0.47	Go_O	1.0
777.328	1.0	go	0.284	Go_X	1.0
779.852	0.1	stop	0.239	Go_X	0.0
782.376	1.0	go	0.35	Go_X	1.0
784.901	1.0	go	0.25	Go_O	1.0
787.425	0.05	stop	0.0	Go_O	1.0
789.949	0.1	stop	0.232	Go_X	0.0
792.473	1.0	go	0.278	Go_O	1.0
794.997	1.0	go	0.414	Go_X	1.0
797.521	1.0	go	0.684	Go_X	1.0
800.046	1.0	go	0.339	Go_O	1.0
802.57	0.05	stop	0.0	Go_O	1.0
805.094	1.0	go	0.442	Go_X	1.0
