onset	duration	trial_type	response_time	stim_file	accuracy
67.685	1.0	go	0.449	Go_X	0.0
70.302	1.0	go	0.368	Go_O	1.0
72.835	1.0	go	0.437	Go_X	1.0
75.368	1.0	go	0.391	Go_O	1.0
77.901	1.0	go	0.611	Go_X	1.0
80.435	1.0	go	0.359	Go_O	1.0
82.968	0.25	stopsuccess	0.0	Go_O	1.0
85.501	1.0	go	0.495	Go_O	1.0
88.034	0.3	stopfail	0.554	Go_X	0.0
90.568	1.0	go	0.665	Go_X	1.0
93.101	1.0	go	0.521	Go_X	1.0
95.634	1.0	go	0.623	Go_O	1.0
98.167	0.25	stopsuccess	0.0	Go_O	1.0
100.701	1.0	go	0.459	Go_X	1.0
103.234	1.0	go	0.722	Go_O	1.0
105.767	0.3	stopfail	0.393	Go_X	0.0
108.3	0.25	stopsuccess	0.0	Go_O	1.0
110.834	1.0	go	0.515	Go_O	1.0
113.367	1.0	go	0.399	Go_X	1.0
115.9	0.3	stopfail	0.509	Go_X	0.0
118.433	1.0	go	0.774	Go_X	1.0
120.967	1.0	go	0.433	Go_O	1.0
123.5	0.25	stopsuccess	0.0	Go_O	1.0
126.033	1.0	go	0.614	Go_X	1.0
128.566	1.0	go	0.8	Go_O	1.0
131.1	0.3	stopfail	0.594	Go_X	0.0
133.649	1.0	go	0.638	Go_X	1.0
136.183	1.0	go	0.923	Go_O	0.0
138.716	0.25	stopsuccess	0.0	Go_O	1.0
141.249	1.0	go	0.531	Go_X	1.0
143.782	1.0	go	0.547	Go_O	1.0
146.316	1.0	go	0.505	Go_X	1.0
148.849	1.0	go	0.571	Go_O	1.0
151.382	1.0	go	0.811	Go_X	1.0
153.915	0.3	stopsuccess	0.0	Go_X	1.0
156.449	1.0	go	0.601	Go_O	1.0
158.982	1.0	go	0.498	Go_X	1.0
161.515	1.0	go	0.669	Go_O	1.0
164.048	1.0	go	0.635	Go_O	1.0
166.582	1.0	go	0.663	Go_X	1.0
169.115	0.35	stopfail	0.433	Go_O	0.0
171.648	1.0	go	0.724	Go_O	1.0
174.181	1.0	go	0.528	Go_X	1.0
176.715	1.0	go	0.56	Go_O	1.0
179.248	1.0	go	0.735	Go_X	1.0
181.781	1.0	go	0.708	Go_X	1.0
184.314	1.0	go	0.528	Go_O	1.0
186.848	0.3	stopsuccess	0.0	Go_X	1.0
189.397	1.0	go	0.793	Go_O	1.0
191.931	1.0	go	0.571	Go_X	1.0
194.464	0.35	stopfail	0.548	Go_O	0.0
196.997	1.0	go	0.566	Go_X	1.0
199.53	0.3	stopsuccess	0.0	Go_X	1.0
202.064	0.35	stopsuccess	0.0	Go_O	1.0
204.597	1.0	go	0.495	Go_O	1.0
207.13	1.0	go	0.0	Go_X	0.0
209.663	1.0	go	0.512	Go_O	1.0
212.197	1.0	go	0.505	Go_O	1.0
214.73	0.4	stopfail	0.448	Go_X	0.0
217.263	1.0	go	0.696	Go_X	0.0
219.796	0.35	stopsuccess	0.0	Go_O	1.0
222.33	1.0	go	0.977	Go_O	1.0
224.863	1.0	go	0.662	Go_X	1.0
227.396	1.0	go	0.338	Go_X	1.0
229.929	1.0	go	0.479	Go_O	1.0
232.463	1.0	go	0.597	Go_X	1.0
234.996	1.0	go	0.386	Go_O	1.0
237.529	1.0	go	0.425	Go_X	1.0
240.062	1.0	go	0.507	Go_O	1.0
242.596	1.0	go	0.395	Go_X	1.0
245.129	0.4	stopfail	0.557	Go_X	0.0
247.662	1.0	go	0.549	Go_O	1.0
250.195	1.0	go	0.31	Go_X	1.0
252.729	1.0	go	0.468	Go_O	1.0
255.278	0.35	stopfail	0.398	Go_O	0.0
257.812	1.0	go	0.631	Go_X	1.0
260.345	1.0	go	0.744	Go_O	1.0
262.878	1.0	go	0.684	Go_O	1.0
265.411	1.0	go	0.572	Go_X	1.0
267.945	1.0	go	0.631	Go_X	1.0
270.478	1.0	go	0.482	Go_O	1.0
273.011	0.3	stopsuccess	0.0	Go_X	1.0
275.544	1.0	go	0.553	Go_O	1.0
278.078	1.0	go	0.394	Go_X	1.0
280.611	0.35	stopfail	0.513	Go_O	0.0
283.144	1.0	go	0.446	Go_O	1.0
285.677	1.0	go	0.507	Go_X	1.0
288.211	0.3	stopsuccess	0.0	Go_X	1.0
290.744	1.0	go	0.71	Go_O	1.0
293.277	0.35	stopfail	0.513	Go_O	0.0
295.81	1.0	go	0.54	Go_X	1.0
298.344	1.0	go	0.0	Go_X	0.0
300.877	1.0	go	0.452	Go_O	1.0
303.41	1.0	go	0.537	Go_O	1.0
305.943	1.0	go	0.639	Go_X	1.0
308.477	0.3	stopsuccess	0.0	Go_X	1.0
311.026	0.35	stopsuccess	0.0	Go_O	1.0
313.56	1.0	go	0.481	Go_X	1.0
316.093	1.0	go	0.559	Go_O	1.0
318.626	0.4	stopfail	0.475	Go_X	0.0
321.159	1.0	go	0.579	Go_X	1.0
323.693	1.0	go	0.431	Go_O	1.0
326.226	1.0	go	0.444	Go_O	1.0
328.759	1.0	go	0.27	Go_X	1.0
331.292	1.0	go	0.427	Go_O	1.0
333.826	1.0	go	0.808	Go_X	1.0
336.359	0.35	stopfail	0.421	Go_O	0.0
338.892	1.0	go	0.508	Go_O	1.0
341.425	1.0	go	0.642	Go_X	1.0
343.959	1.0	go	0.842	Go_X	1.0
346.492	1.0	go	0.0	Go_O	0.0
349.025	1.0	go	0.501	Go_X	1.0
351.558	0.3	stopfail	0.451	Go_X	0.0
354.092	1.0	go	0.49	Go_O	1.0
356.625	1.0	go	0.43	Go_O	1.0
359.158	1.0	go	0.599	Go_X	1.0
361.691	1.0	go	0.706	Go_O	1.0
364.225	0.25	stopsuccess	0.0	Go_O	1.0
366.774	1.0	go	0.637	Go_X	1.0
369.308	1.0	go	0.627	Go_X	1.0
371.841	0.3	stopfail	0.505	Go_X	0.0
374.374	1.0	go	0.55	Go_O	1.0
376.907	0.25	stopsuccess	0.0	Go_O	1.0
379.441	1.0	go	0.0	Go_X	0.0
381.974	1.0	go	0.573	Go_O	1.0
384.507	1.0	go	0.499	Go_O	1.0
387.04	1.0	go	0.517	Go_X	1.0
389.574	1.0	go	0.655	Go_X	1.0
392.107	1.0	go	0.8	Go_O	1.0
394.64	1.0	go	0.571	Go_X	1.0
397.173	0.3	stopsuccess	0.0	Go_X	1.0
399.707	1.0	go	0.0	Go_O	0.0
402.24	1.0	go	0.579	Go_X	1.0
404.773	1.0	go	0.517	Go_O	1.0
407.306	0.35	stopfail	0.621	Go_O	0.0
409.84	1.0	go	0.957	Go_X	1.0
412.373	1.0	go	0.603	Go_O	1.0
414.906	1.0	go	0.52	Go_X	0.0
417.439	1.0	go	0.468	Go_O	1.0
419.973	0.3	stopsuccess	0.0	Go_X	1.0
422.522	1.0	go	0.531	Go_O	0.0
425.056	1.0	go	0.597	Go_X	1.0
427.589	0.35	stopfail	0.487	Go_O	0.0
430.122	1.0	go	0.445	Go_O	1.0
432.655	1.0	go	0.442	Go_X	1.0
435.189	0.3	stopfail	0.411	Go_X	0.0
437.722	1.0	go	0.382	Go_O	1.0
440.255	1.0	go	0.449	Go_X	1.0
442.788	0.25	stopsuccess	0.0	Go_O	1.0
445.322	1.0	go	0.659	Go_X	1.0
447.855	1.0	go	0.663	Go_O	1.0
450.388	1.0	go	0.522	Go_O	1.0
452.921	1.0	go	0.442	Go_X	1.0
455.455	1.0	go	0.414	Go_O	1.0
457.988	1.0	go	0.598	Go_X	1.0
460.521	0.3	stopsuccess	0.0	Go_X	1.0
463.054	1.0	go	0.656	Go_O	1.0
465.588	0.35	stopsuccess	0.0	Go_O	1.0
468.121	1.0	go	0.602	Go_X	1.0
470.654	1.0	go	0.626	Go_X	1.0
473.187	1.0	go	0.509	Go_O	1.0
475.721	1.0	go	0.43	Go_X	1.0
478.254	1.0	go	0.47	Go_O	1.0
480.787	0.4	stopsuccess	0.0	Go_X	1.0
483.32	1.0	go	0.779	Go_X	1.0
485.854	1.0	go	0.488	Go_O	1.0
488.403	1.0	go	0.544	Go_X	1.0
490.937	0.45	stopfail	0.476	Go_O	0.0
493.47	0.4	stopfail	0.552	Go_X	0.0
496.003	0.35	stopfail	0.469	Go_O	0.0
498.536	1.0	go	0.711	Go_O	1.0
501.07	0.3	stopsuccess	0.0	Go_X	1.0
503.603	1.0	go	0.511	Go_O	1.0
506.136	1.0	go	0.638	Go_X	1.0
508.669	1.0	go	0.0	Go_O	0.0
511.203	1.0	go	0.747	Go_X	1.0
513.736	1.0	go	0.485	Go_X	1.0
516.269	1.0	go	0.783	Go_O	1.0
518.802	1.0	go	0.581	Go_O	1.0
521.336	1.0	go	0.655	Go_X	0.0
523.869	0.35	stopsuccess	0.0	Go_O	1.0
526.402	1.0	go	0.0	Go_O	0.0
528.935	1.0	go	0.615	Go_X	1.0
531.469	0.4	stopfail	0.45	Go_X	0.0
534.002	1.0	go	0.409	Go_O	1.0
536.535	1.0	go	0.493	Go_X	1.0
539.068	1.0	go	0.457	Go_O	1.0
541.602	1.0	go	0.539	Go_X	1.0
544.135	1.0	go	0.656	Go_X	1.0
546.668	0.35	stopfail	0.465	Go_O	0.0
549.201	1.0	go	0.501	Go_O	1.0
551.735	1.0	go	0.426	Go_O	1.0
554.284	1.0	go	0.434	Go_X	1.0
556.818	0.3	stopfail	0.622	Go_X	0.0
559.351	1.0	go	0.752	Go_X	0.0
561.884	0.25	stopsuccess	0.0	Go_O	1.0
564.417	1.0	go	0.378	Go_O	1.0
566.951	1.0	go	0.558	Go_X	0.0
569.484	1.0	go	0.509	Go_O	1.0
572.017	1.0	go	0.397	Go_X	1.0
574.55	1.0	go	0.978	Go_O	1.0
577.084	1.0	go	0.605	Go_O	1.0
579.617	1.0	go	0.641	Go_X	1.0
582.15	0.3	stopfail	0.52	Go_X	0.0
584.683	1.0	go	0.59	Go_X	1.0
587.217	1.0	go	0.63	Go_O	1.0
589.75	1.0	go	0.721	Go_O	1.0
592.283	1.0	go	0.523	Go_X	1.0
594.816	0.25	stopsuccess	0.0	Go_O	1.0
597.35	1.0	go	0.487	Go_O	1.0
599.883	0.3	stopsuccess	0.0	Go_X	1.0
602.416	1.0	go	0.0	Go_X	0.0
604.949	1.0	go	0.399	Go_O	1.0
607.483	0.35	stopsuccess	0.0	Go_O	1.0
610.032	1.0	go	0.49	Go_X	1.0
612.566	1.0	go	0.373	Go_O	1.0
615.099	1.0	go	0.445	Go_X	1.0
617.632	1.0	go	0.0	Go_X	0.0
620.165	1.0	go	0.424	Go_O	1.0
622.699	1.0	go	0.377	Go_X	1.0
625.232	1.0	go	0.479	Go_O	1.0
627.765	1.0	go	0.848	Go_O	1.0
630.298	1.0	go	0.514	Go_X	1.0
632.832	1.0	go	0.727	Go_O	1.0
635.365	0.4	stopfail	0.548	Go_X	0.0
637.898	1.0	go	0.331	Go_X	0.0
640.431	1.0	go	0.477	Go_X	1.0
642.965	0.35	stopsuccess	0.0	Go_O	1.0
645.498	1.0	go	0.68	Go_O	1.0
648.031	0.4	stopsuccess	0.0	Go_X	1.0
650.564	1.0	go	0.744	Go_X	1.0
653.098	1.0	go	0.536	Go_O	1.0
655.631	0.45	stopfail	0.512	Go_O	0.0
658.164	1.0	go	0.875	Go_X	1.0
660.697	0.4	stopsuccess	0.0	Go_X	1.0
663.231	1.0	go	0.786	Go_O	1.0
665.78	1.0	go	0.699	Go_X	1.0
668.314	1.0	go	0.807	Go_O	1.0
670.847	0.45	stopfail	0.678	Go_O	0.0
673.38	1.0	go	0.445	Go_X	1.0
675.913	1.0	go	0.0	Go_O	0.0
678.447	1.0	go	0.55	Go_O	1.0
680.98	1.0	go	0.884	Go_X	1.0
683.513	0.4	stopfail	0.536	Go_X	0.0
686.046	1.0	go	0.692	Go_O	1.0
688.58	1.0	go	0.739	Go_X	1.0
691.113	0.35	stopsuccess	0.0	Go_O	1.0
693.646	1.0	go	0.6	Go_O	1.0
696.179	1.0	go	0.752	Go_X	0.0
698.713	1.0	go	0.53	Go_O	1.0
701.246	1.0	go	0.849	Go_X	1.0
703.779	0.4	stopfail	0.556	Go_X	0.0
706.312	1.0	go	0.861	Go_O	1.0
708.846	0.35	stopsuccess	0.0	Go_O	1.0
711.379	1.0	go	0.609	Go_X	1.0
713.912	1.0	go	0.572	Go_X	1.0
716.445	0.4	stopsuccess	0.0	Go_X	1.0
718.979	1.0	go	0.674	Go_O	1.0
721.512	1.0	go	0.528	Go_O	0.0
724.045	1.0	go	0.551	Go_X	1.0
726.578	1.0	go	0.703	Go_O	1.0
729.112	0.45	stopfail	0.454	Go_O	0.0
731.661	1.0	go	0.528	Go_X	1.0
734.195	0.4	stopfail	0.534	Go_X	0.0
736.728	1.0	go	0.0	Go_O	0.0
739.261	1.0	go	0.495	Go_X	1.0
741.794	1.0	go	0.49	Go_O	1.0
744.328	1.0	go	0.435	Go_X	1.0
746.861	1.0	go	0.0	Go_X	0.0
749.394	1.0	go	0.561	Go_O	1.0
751.927	0.35	stopfail	0.606	Go_O	0.0
754.461	1.0	go	0.656	Go_X	0.0
756.994	1.0	go	0.337	Go_O	1.0
759.527	0.3	stopfail	0.383	Go_X	0.0
762.06	1.0	go	0.479	Go_X	1.0
764.594	1.0	go	0.505	Go_O	1.0
767.127	0.25	stopsuccess	0.0	Go_O	1.0
769.66	1.0	go	0.458	Go_O	1.0
772.193	1.0	go	0.69	Go_X	1.0
774.727	1.0	go	0.467	Go_O	1.0
777.26	1.0	go	0.604	Go_X	1.0
779.793	0.3	stopfail	0.52	Go_X	0.0
782.326	1.0	go	0.596	Go_X	0.0
784.86	0.25	stopfail	0.375	Go_O	0.0
787.409	1.0	go	0.507	Go_O	1.0
789.943	1.0	go	0.4	Go_O	0.0
792.476	1.0	go	0.877	Go_X	1.0
795.009	1.0	go	0.462	Go_X	1.0
797.542	1.0	go	0.505	Go_O	1.0
800.076	0.2	stopfail	0.457	Go_X	0.0
802.609	1.0	go	0.676	Go_O	1.0
805.142	1.0	go	0.842	Go_X	1.0
807.675	0.15	stopsuccess	0.0	Go_O	1.0
810.209	0.2	stopsuccess	0.0	Go_X	1.0
812.742	1.0	go	0.411	Go_O	1.0
815.275	1.0	go	0.741	Go_X	1.0
817.808	1.0	go	0.729	Go_X	1.0
820.342	1.0	go	0.685	Go_O	1.0
822.875	0.25	stopsuccess	0.0	Go_O	1.0
825.408	1.0	go	0.0	Go_X	0.0
