frame	onset	duration	trial_type	event_type	response_type	response_time	stim_file	accuracy
0	27.537		loss-noreward	ImageDisplay1		0.0		
0	29.77	0.75	loss-noreward	StartDisplay				
0	30.52		loss-noreward	ImageDisplay2		0.0		
0	33.52	1.6	loss-noreward	ChoiceDisplay	1	0.221	1	1
0	33.753	1.379	loss-noreward	ChosenDisplay		0.0		
0	35.12	0.25	loss-noreward	TurnDisplay				
0	35.37	0.75	loss-noreward	OutcomeDisplay				
1	36.12		loss-reward	ImageDisplay1		0.0		
1	38.12	0.75	loss-reward	StartDisplay				
1	38.87		loss-reward	ImageDisplay2		0.0		
1	42.119	1.6	loss-reward	ChoiceDisplay	1	0.513	1	1
1	42.653	1.087	loss-reward	ChosenDisplay		0.0		
1	43.719	0.25	loss-reward	TurnDisplay				
1	43.969	0.75	loss-reward	OutcomeDisplay				
2	44.719		win-reward	ImageDisplay1		0.0		
2	46.969	0.75	win-reward	StartDisplay				
2	47.719		win-reward	ImageDisplay2		0.0		
2	50.719	1.6	win-reward	ChoiceDisplay	1	0.459	1	1
2	51.202	1.141	win-reward	ChosenDisplay		0.0		
2	52.319	0.25	win-reward	TurnDisplay				
2	52.569	0.75	win-reward	OutcomeDisplay				
3	53.319		loss-reward	ImageDisplay1		0.0		
3	55.319	0.75	loss-reward	StartDisplay				
3	56.069		loss-reward	ImageDisplay2		0.0		
3	59.319	1.6	loss-reward	ChoiceDisplay	1	0.653	1	1
3	59.986	0.947	loss-reward	ChosenDisplay		0.0		
3	60.919	0.25	loss-reward	TurnDisplay				
3	61.169	0.75	loss-reward	OutcomeDisplay				
4	61.919		control-noreward	ImageDisplay1		0.0		
4	64.169	0.75	control-noreward	StartDisplay				
4	64.919		control-noreward	ImageDisplay2		0.0		
4	67.919	1.6	control-noreward	ChoiceDisplay	1	0.59	1	1
4	68.535	1.01	control-noreward	ChosenDisplay		0.0		
4	69.519	0.25	control-noreward	TurnDisplay				
4	69.769	0.75	control-noreward	OutcomeDisplay				
5	70.519		win-noreward	ImageDisplay1		0.0		
5	72.518	0.75	win-noreward	StartDisplay				
5	73.268		win-noreward	ImageDisplay2		0.0		
5	76.518	1.6	win-noreward	ChoiceDisplay	1	0.54	1	1
5	77.085	1.06	win-noreward	ChosenDisplay		0.0		
5	78.118	0.25	win-noreward	TurnDisplay				
5	78.368	0.75	win-noreward	OutcomeDisplay				
6	79.118		win-reward	ImageDisplay1		0.0		
6	81.118	0.75	win-reward	StartDisplay				
6	81.868		win-reward	ImageDisplay2		0.0		
6	85.118	1.6	win-reward	ChoiceDisplay	1	0.474	1	1
6	85.618	1.126	win-reward	ChosenDisplay		0.0		
6	86.718	0.25	win-reward	TurnDisplay				
6	86.968	0.75	win-reward	OutcomeDisplay				
7	87.718		win-reward	ImageDisplay1		0.0		
7	89.968	0.75	win-reward	StartDisplay				
7	90.718		win-reward	ImageDisplay2		0.0		
7	93.718	1.6	win-reward	ChoiceDisplay	1	0.733	1	1
7	94.468	0.867	win-reward	ChosenDisplay		0.0		
7	95.318	0.25	win-reward	TurnDisplay				
7	95.568	0.75	win-reward	OutcomeDisplay				
8	96.318		win-noreward	ImageDisplay1		0.0		
8	98.318	0.75	win-noreward	StartDisplay				
8	99.068		win-noreward	ImageDisplay2		0.0		
8	102.318	1.6	win-noreward	ChoiceDisplay	1	0.455	1	1
8	102.801	1.145	win-noreward	ChosenDisplay		0.0		
8	103.917	0.25	win-noreward	TurnDisplay				
8	104.167	0.75	win-noreward	OutcomeDisplay				
9	104.917		win-noreward	ImageDisplay1		0.0		
9	107.167	0.75	win-noreward	StartDisplay				
9	107.917		win-noreward	ImageDisplay2		0.0		
9	110.917	1.6	win-noreward	ChoiceDisplay	1	0.71	1	1
9	111.651	0.89	win-noreward	ChosenDisplay		0.0		
9	112.517	0.25	win-noreward	TurnDisplay				
9	112.767	0.75	win-noreward	OutcomeDisplay				
10	113.517		control-noreward	ImageDisplay1		0.0		
10	115.517	0.75	control-noreward	StartDisplay				
10	116.267		control-noreward	ImageDisplay2		0.0		
10	119.517	1.6	control-noreward	ChoiceDisplay	1	0.457	1	1
10	120.0	1.143	control-noreward	ChosenDisplay		0.0		
10	121.117	0.25	control-noreward	TurnDisplay				
10	121.367	0.75	control-noreward	OutcomeDisplay				
11	122.117		win-reward	ImageDisplay1		0.0		
11	124.367	0.75	win-reward	StartDisplay				
11	125.117		win-reward	ImageDisplay2		0.0		
11	128.117	1.6	win-reward	ChoiceDisplay	1	0.448	1	1
11	128.583	1.152	win-reward	ChosenDisplay		0.0		
11	129.717	0.25	win-reward	TurnDisplay				
11	129.967	0.75	win-reward	OutcomeDisplay				
12	130.717		control-noreward	ImageDisplay1		0.0		
12	132.967	0.75	control-noreward	StartDisplay				
12	133.717		control-noreward	ImageDisplay2		0.0		
12	136.716	1.6	control-noreward	ChoiceDisplay	1	0.626	1	1
12	137.366	0.974	control-noreward	ChosenDisplay		0.0		
12	138.316	0.25	control-noreward	TurnDisplay				
12	138.566	0.75	control-noreward	OutcomeDisplay				
13	139.316		control-reward	ImageDisplay1		0.0		
13	141.566	0.75	control-reward	StartDisplay				
13	142.316		control-reward	ImageDisplay2		0.0		
13	145.316	1.6	control-reward	ChoiceDisplay	1	0.917	1	1
13	146.249	0.683	control-reward	ChosenDisplay		0.0		
13	146.916	0.25	control-reward	TurnDisplay				
13	147.166	0.75	control-reward	OutcomeDisplay				
14	147.916		loss-noreward	ImageDisplay1		0.0		
14	150.166	0.75	loss-noreward	StartDisplay				
14	150.916		loss-noreward	ImageDisplay2		0.0		
14	153.916	1.6	loss-noreward	ChoiceDisplay	1	0.552	1	1
14	154.483	1.048	loss-noreward	ChosenDisplay		0.0		
14	155.516	0.25	loss-noreward	TurnDisplay				
14	155.766	0.75	loss-noreward	OutcomeDisplay				
15	156.516		control-reward	ImageDisplay1		0.0		
15	158.766	0.75	control-reward	StartDisplay				
15	159.516		control-reward	ImageDisplay2		0.0		
15	162.516	1.6	control-reward	ChoiceDisplay	1	0.556	1	1
15	163.099	1.044	control-reward	ChosenDisplay		0.0		
15	164.116	0.25	control-reward	TurnDisplay				
15	164.366	0.75	control-reward	OutcomeDisplay				
16	165.116		control-noreward	ImageDisplay1		0.0		
16	167.365	0.75	control-noreward	StartDisplay				
16	168.115		control-noreward	ImageDisplay2		0.0		
16	171.115	1.6	control-noreward	ChoiceDisplay	1	0.294	1	1
16	171.432	1.306	control-noreward	ChosenDisplay		0.0		
16	172.715	0.25	control-noreward	TurnDisplay				
16	172.965	0.75	control-noreward	OutcomeDisplay				
17	173.715		control-reward	ImageDisplay1		0.0		
17	175.965	0.75	control-reward	StartDisplay				
17	176.715		control-reward	ImageDisplay2		0.0		
17	179.715	1.6	control-reward	ChoiceDisplay	1	0.39	1	1
17	180.132	1.21	control-reward	ChosenDisplay		0.0		
17	181.315	0.25	control-reward	TurnDisplay				
17	181.565	0.75	control-reward	OutcomeDisplay				
18	182.315		win-reward	ImageDisplay1		0.0		
18	184.315	0.75	win-reward	StartDisplay				
18	185.065		win-reward	ImageDisplay2		0.0		
18	188.315	1.6	win-reward	ChoiceDisplay	1	0.302	1	1
18	188.631	1.298	win-reward	ChosenDisplay		0.0		
18	189.915	0.25	win-reward	TurnDisplay				
18	190.165	0.75	win-reward	OutcomeDisplay				
19	190.915		loss-noreward	ImageDisplay1		0.0		
19	192.915	0.75	loss-noreward	StartDisplay				
19	193.665		loss-noreward	ImageDisplay2		0.0		
19	196.914	1.6	loss-noreward	ChoiceDisplay	1	0.433	1	1
19	197.364	1.167	loss-noreward	ChosenDisplay		0.0		
19	198.514	0.25	loss-noreward	TurnDisplay				
19	198.764	0.75	loss-noreward	OutcomeDisplay				
20	199.514		control-reward	ImageDisplay1		0.0		
20	201.764	0.75	control-reward	StartDisplay				
20	202.514		control-reward	ImageDisplay2		0.0		
20	205.514	1.6	control-reward	ChoiceDisplay	1	0.399	1	1
20	205.931	1.201	control-reward	ChosenDisplay		0.0		
20	207.114	0.25	control-reward	TurnDisplay				
20	207.364	0.75	control-reward	OutcomeDisplay				
21	208.114		win-noreward	ImageDisplay1		0.0		
21	210.364	0.75	win-noreward	StartDisplay				
21	211.114		win-noreward	ImageDisplay2		0.0		
21	214.114	1.6	win-noreward	ChoiceDisplay	1	0.292	1	1
21	214.431	1.308	win-noreward	ChosenDisplay		0.0		
21	215.714	0.25	win-noreward	TurnDisplay				
21	215.964	0.75	win-noreward	OutcomeDisplay				
22	216.714		win-reward	ImageDisplay1		0.0		
22	218.714	0.75	win-reward	StartDisplay				
22	219.464		win-reward	ImageDisplay2		0.0		
22	222.714	1.6	win-reward	ChoiceDisplay	1	0.266	1	1
22	222.997	1.334	win-reward	ChosenDisplay		0.0		
22	224.314	0.25	win-reward	TurnDisplay				
22	224.564	0.75	win-reward	OutcomeDisplay				
23	225.314		control-reward	ImageDisplay1		0.0		
23	227.564	0.75	control-reward	StartDisplay				
23	228.314		control-reward	ImageDisplay2		0.0		
23	231.313	1.6	control-reward	ChoiceDisplay	1	0.415	1	1
23	231.747	1.185	control-reward	ChosenDisplay		0.0		
23	232.913	0.25	control-reward	TurnDisplay				
23	233.163	0.75	control-reward	OutcomeDisplay				
24	233.913		loss-reward	ImageDisplay1		0.0		
24	235.913	0.75	loss-reward	StartDisplay				
24	236.663		loss-reward	ImageDisplay2		0.0		
24	239.913	1.6	loss-reward	ChoiceDisplay	1	0.197	1	1
24	240.13	1.403	loss-reward	ChosenDisplay		0.0		
24	241.513	0.25	loss-reward	TurnDisplay				
24	241.763	0.75	loss-reward	OutcomeDisplay				
25	242.513		control-noreward	ImageDisplay1		0.0		
25	244.513	0.75	control-noreward	StartDisplay				
25	245.263		control-noreward	ImageDisplay2		0.0		
25	248.513	1.6	control-noreward	ChoiceDisplay	1	0.336	1	1
25	248.863	1.264	control-noreward	ChosenDisplay		0.0		
25	250.113	0.25	control-noreward	TurnDisplay				
25	250.363	0.75	control-noreward	OutcomeDisplay				
26	251.113		loss-reward	ImageDisplay1		0.0		
26	253.363	0.75	loss-reward	StartDisplay				
26	254.113		loss-reward	ImageDisplay2		0.0		
26	257.113	1.6	loss-reward	ChoiceDisplay	1	0.251	1	1
26	257.379	1.349	loss-reward	ChosenDisplay		0.0		
26	258.713	0.25	loss-reward	TurnDisplay				
26	258.963	0.75	loss-reward	OutcomeDisplay				
27	259.712		control-reward	ImageDisplay1		0.0		
27	261.712	0.75	control-reward	StartDisplay				
27	262.462		control-reward	ImageDisplay2		0.0		
27	265.712	1.6	control-reward	ChoiceDisplay	1	0.305	1	1
27	266.029	1.295	control-reward	ChosenDisplay		0.0		
27	267.312	0.25	control-reward	TurnDisplay				
27	267.562	0.75	control-reward	OutcomeDisplay				
28	268.312		control-reward	ImageDisplay1		0.0		
28	270.562	0.75	control-reward	StartDisplay				
28	271.312		control-reward	ImageDisplay2		0.0		
28	274.312	1.6	control-reward	ChoiceDisplay	1	0.84	1	1
28	275.179	0.76	control-reward	ChosenDisplay		0.0		
28	275.912	0.25	control-reward	TurnDisplay				
28	276.162	0.75	control-reward	OutcomeDisplay				
29	276.912		win-reward	ImageDisplay1		0.0		
29	279.162	0.75	win-reward	StartDisplay				
29	279.912		win-reward	ImageDisplay2		0.0		
29	282.912	1.6	win-reward	ChoiceDisplay	1	0.238	1	1
29	283.162	1.362	win-reward	ChosenDisplay		0.0		
29	284.512	0.25	win-reward	TurnDisplay				
29	284.762	0.75	win-reward	OutcomeDisplay				
30	285.512		win-noreward	ImageDisplay1		0.0		
30	287.512	0.75	win-noreward	StartDisplay				
30	288.262		win-noreward	ImageDisplay2		0.0		
30	291.511	1.6	win-noreward	ChoiceDisplay	1	0.252	1	1
30	291.778	1.348	win-noreward	ChosenDisplay		0.0		
30	293.111	0.25	win-noreward	TurnDisplay				
30	293.361	0.75	win-noreward	OutcomeDisplay				
31	294.111		loss-noreward	ImageDisplay1		0.0		
31	296.361	0.75	loss-noreward	StartDisplay				
31	297.111		loss-noreward	ImageDisplay2		0.0		
31	300.111	1.6	loss-noreward	ChoiceDisplay	1	0.258	1	1
31	300.395	1.342	loss-noreward	ChosenDisplay		0.0		
31	301.711	0.25	loss-noreward	TurnDisplay				
31	301.961	0.75	loss-noreward	OutcomeDisplay				
32	302.711		win-noreward	ImageDisplay1		0.0		
32	304.961	0.75	win-noreward	StartDisplay				
32	305.711		win-noreward	ImageDisplay2		0.0		
32	308.711	1.6	win-noreward	ChoiceDisplay	1	0.786	1	1
32	309.511	0.814	win-noreward	ChosenDisplay		0.0		
32	310.311	0.25	win-noreward	TurnDisplay				
32	310.561	0.75	win-noreward	OutcomeDisplay				
33	311.311		control-noreward	ImageDisplay1		0.0		
33	313.311	0.75	control-noreward	StartDisplay				
33	314.061		control-noreward	ImageDisplay2		0.0		
33	317.311	1.6	control-noreward	ChoiceDisplay	1	0.446	1	1
33	317.777	1.154	control-noreward	ChosenDisplay		0.0		
33	318.911	0.25	control-noreward	TurnDisplay				
33	319.161	0.75	control-noreward	OutcomeDisplay				
34	319.911		loss-reward	ImageDisplay1		0.0		
34	321.911	0.75	loss-reward	StartDisplay				
34	322.661		loss-reward	ImageDisplay2		0.0		
34	325.91	1.6	loss-reward	ChoiceDisplay	1	0.418	1	1
34	326.344	1.182	loss-reward	ChosenDisplay		0.0		
34	327.51	0.25	loss-reward	TurnDisplay				
34	327.76	0.75	loss-reward	OutcomeDisplay				
35	328.51		win-reward	ImageDisplay1		0.0		
35	330.51	0.75	win-reward	StartDisplay				
35	331.26		win-reward	ImageDisplay2		0.0		
35	334.51	1.6	win-reward	ChoiceDisplay	1	0.311	1	1
35	334.843	1.289	win-reward	ChosenDisplay		0.0		
35	336.11	0.25	win-reward	TurnDisplay				
35	336.36	0.75	win-reward	OutcomeDisplay				
36	337.11		win-reward	ImageDisplay1		0.0		
36	339.11	0.75	win-reward	StartDisplay				
36	339.86		win-reward	ImageDisplay2		0.0		
36	343.11	1.6	win-reward	ChoiceDisplay	1	0.383	1	1
36	343.51	1.217	win-reward	ChosenDisplay		0.0		
36	344.71	0.25	win-reward	TurnDisplay				
36	344.96	0.75	win-reward	OutcomeDisplay				
37	345.71		loss-noreward	ImageDisplay1		0.0		
37	347.96	0.75	loss-noreward	StartDisplay				
37	348.71		loss-noreward	ImageDisplay2		0.0		
37	351.71	1.6	loss-noreward	ChoiceDisplay	1	0.249	1	1
37	351.976	1.351	loss-noreward	ChosenDisplay		0.0		
37	353.31	0.25	loss-noreward	TurnDisplay				
37	353.56	0.75	loss-noreward	OutcomeDisplay				
38	354.309		win-noreward	ImageDisplay1		0.0		
38	356.559	0.75	win-noreward	StartDisplay				
38	357.309		win-noreward	ImageDisplay2		0.0		
38	360.309	1.6	win-noreward	ChoiceDisplay	1	0.321	1	1
38	360.643	1.279	win-noreward	ChosenDisplay		0.0		
38	361.909	0.25	win-noreward	TurnDisplay				
38	362.159	0.75	win-noreward	OutcomeDisplay				
39	362.909		loss-reward	ImageDisplay1		0.0		
39	364.909	0.75	loss-reward	StartDisplay				
39	365.659		loss-reward	ImageDisplay2		0.0		
39	368.909	1.6	loss-reward	ChoiceDisplay	1	0.306	1	1
39	369.226	1.294	loss-reward	ChosenDisplay		0.0		
39	370.509	0.25	loss-reward	TurnDisplay				
39	370.759	0.75	loss-reward	OutcomeDisplay				
40	371.509		win-reward	ImageDisplay1		0.0		
40	373.509	0.75	win-reward	StartDisplay				
40	374.259		win-reward	ImageDisplay2		0.0		
40	377.509	1.6	win-reward	ChoiceDisplay	1	0.791	1	1
40	378.325	0.809	win-reward	ChosenDisplay		0.0		
40	379.109	0.25	win-reward	TurnDisplay				
40	379.359	0.75	win-reward	OutcomeDisplay				
41	380.109		win-reward	ImageDisplay1		0.0		
41	382.359	0.75	win-reward	StartDisplay				
41	383.109		win-reward	ImageDisplay2		0.0		
41	386.108	1.6	win-reward	ChoiceDisplay	1	0.784	1	1
41	386.908	0.816	win-reward	ChosenDisplay		0.0		
41	387.708	0.25	win-reward	TurnDisplay				
41	387.958	0.75	win-reward	OutcomeDisplay				
42	388.708		loss-reward	ImageDisplay1		0.0		
42	390.958	0.75	loss-reward	StartDisplay				
42	391.708		loss-reward	ImageDisplay2		0.0		
42	394.708	1.6	loss-reward	ChoiceDisplay	1	0.282	1	1
42	395.008	1.318	loss-reward	ChosenDisplay		0.0		
42	396.308	0.25	loss-reward	TurnDisplay				
42	396.558	0.75	loss-reward	OutcomeDisplay				
43	397.308		loss-noreward	ImageDisplay1		0.0		
43	399.308	0.75	loss-noreward	StartDisplay				
43	400.058		loss-noreward	ImageDisplay2		0.0		
43	403.308	1.6	loss-noreward	ChoiceDisplay	1	0.869	1	1
43	404.191	0.731	loss-noreward	ChosenDisplay		0.0		
43	404.908	0.25	loss-noreward	TurnDisplay				
43	405.158	0.75	loss-noreward	OutcomeDisplay				
44	405.908		loss-reward	ImageDisplay1		0.0		
44	407.908	0.75	loss-reward	StartDisplay				
44	408.658		loss-reward	ImageDisplay2		0.0		
44	411.908	1.6	loss-reward	ChoiceDisplay	1	0.842	1	1
44	412.774	0.758	loss-reward	ChosenDisplay		0.0		
44	413.508	0.25	loss-reward	TurnDisplay				
44	413.758	0.75	loss-reward	OutcomeDisplay				
45	414.508		control-noreward	ImageDisplay1		0.0		
45	416.758	0.75	control-noreward	StartDisplay				
45	417.507		control-noreward	ImageDisplay2		0.0		
45	420.507	1.6	control-noreward	ChoiceDisplay	1	0.368	1	1
45	420.891	1.232	control-noreward	ChosenDisplay		0.0		
45	422.107	0.25	control-noreward	TurnDisplay				
45	422.357	0.75	control-noreward	OutcomeDisplay				
46	423.107		win-noreward	ImageDisplay1		0.0		
46	425.357	0.75	win-noreward	StartDisplay				
46	426.107		win-noreward	ImageDisplay2		0.0		
46	429.107	1.6	win-noreward	ChoiceDisplay	1	0.754	1	1
46	429.874	0.846	win-noreward	ChosenDisplay		0.0		
46	430.707	0.25	win-noreward	TurnDisplay				
46	430.957	0.75	win-noreward	OutcomeDisplay				
47	431.707		win-noreward	ImageDisplay1		0.0		
47	433.707	0.75	win-noreward	StartDisplay				
47	434.457		win-noreward	ImageDisplay2		0.0		
47	437.707	1.6	win-noreward	ChoiceDisplay	1	0.503	1	1
47	438.223	1.097	win-noreward	ChosenDisplay		0.0		
47	439.307	0.25	win-noreward	TurnDisplay				
47	439.557	0.75	win-noreward	OutcomeDisplay				
48	440.307		control-reward	ImageDisplay1		0.0		
48	442.307	0.75	control-reward	StartDisplay				
48	443.057		control-reward	ImageDisplay2		0.0		
48	446.307	1.6	control-reward	ChoiceDisplay	1	0.249	1	1
48	446.573	1.351	control-reward	ChosenDisplay		0.0		
48	447.907	0.25	control-reward	TurnDisplay				
48	448.157	0.75	control-reward	OutcomeDisplay				
49	448.906		loss-reward	ImageDisplay1		0.0		
49	451.156	0.75	loss-reward	StartDisplay				
49	451.906		loss-reward	ImageDisplay2		0.0		
49	454.906	1.6	loss-reward	ChoiceDisplay	1	0.483	1	1
49	455.406	1.117	loss-reward	ChosenDisplay		0.0		
49	456.506	0.25	loss-reward	TurnDisplay				
49	456.756	0.75	loss-reward	OutcomeDisplay				
50	457.506		control-noreward	ImageDisplay1		0.0		
50	459.506	0.75	control-noreward	StartDisplay				
50	460.256		control-noreward	ImageDisplay2		0.0		
50	463.506	1.6	control-noreward	ChoiceDisplay	1	0.599	1	1
50	464.123	1.001	control-noreward	ChosenDisplay		0.0		
50	465.106	0.25	control-noreward	TurnDisplay				
50	465.356	0.75	control-noreward	OutcomeDisplay				
51	466.106		loss-noreward	ImageDisplay1		0.0		
51	468.106	0.75	loss-noreward	StartDisplay				
51	468.856		loss-noreward	ImageDisplay2		0.0		
51	472.106	1.6	loss-noreward	ChoiceDisplay	1	0.529	1	1
51	472.656	1.071	loss-noreward	ChosenDisplay		0.0		
51	473.706	0.25	loss-noreward	TurnDisplay				
51	473.956	0.75	loss-noreward	OutcomeDisplay				
52	474.706		control-noreward	ImageDisplay1		0.0		
52	476.706	0.75	control-noreward	StartDisplay				
52	477.456		control-noreward	ImageDisplay2		0.0		
52	480.705	1.6	control-noreward	ChoiceDisplay	1	0.534	1	1
52	481.255	1.066	control-noreward	ChosenDisplay		0.0		
52	482.305	0.25	control-noreward	TurnDisplay				
52	482.555	0.75	control-noreward	OutcomeDisplay				
53	483.305		loss-noreward	ImageDisplay1		0.0		
53	485.555	0.75	loss-noreward	StartDisplay				
53	486.305		loss-noreward	ImageDisplay2		0.0		
53	489.305	1.6	loss-noreward	ChoiceDisplay	1	0.608	1	1
53	489.939	0.992	loss-noreward	ChosenDisplay		0.0		
53	490.905	0.25	loss-noreward	TurnDisplay				
53	491.155	0.75	loss-noreward	OutcomeDisplay				
54	491.905		win-noreward	ImageDisplay1		0.0		
54	494.155	0.75	win-noreward	StartDisplay				
54	494.905		win-noreward	ImageDisplay2		0.0		
54	497.905	1.6	win-noreward	ChoiceDisplay	1	0.862	1	1
54	498.788	0.738	win-noreward	ChosenDisplay		0.0		
54	499.505	0.25	win-noreward	TurnDisplay				
54	499.755	0.75	win-noreward	OutcomeDisplay				
55	500.505		loss-noreward	ImageDisplay1		0.0		
55	502.505	0.75	loss-noreward	StartDisplay				
55	503.255		loss-noreward	ImageDisplay2		0.0		
55	506.505	1.6	loss-noreward	ChoiceDisplay	1	0.504	1	1
55	507.021	1.096	loss-noreward	ChosenDisplay		0.0		
55	508.105	0.25	loss-noreward	TurnDisplay				
55	508.355	0.75	loss-noreward	OutcomeDisplay				
56	509.105		win-reward	ImageDisplay1		0.0		
56	511.104	0.75	win-reward	StartDisplay				
56	511.854		win-reward	ImageDisplay2		0.0		
56	515.104	1.6	win-reward	ChoiceDisplay	1	0.579	1	1
56	515.704	1.021	win-reward	ChosenDisplay		0.0		
56	516.704	0.25	win-reward	TurnDisplay				
56	516.954	0.75	win-reward	OutcomeDisplay				
57	517.704		control-noreward	ImageDisplay1		0.0		
57	519.954	0.75	control-noreward	StartDisplay				
57	520.704		control-noreward	ImageDisplay2		0.0		
57	523.704	1.6	control-noreward	ChoiceDisplay	1	0.329	1	1
57	524.054	1.271	control-noreward	ChosenDisplay		0.0		
57	525.304	0.25	control-noreward	TurnDisplay				
57	525.554	0.75	control-noreward	OutcomeDisplay				
58	526.304		loss-noreward	ImageDisplay1		0.0		
58	528.304	0.75	loss-noreward	StartDisplay				
58	529.054		loss-noreward	ImageDisplay2		0.0		
58	532.304	1.6	loss-noreward	ChoiceDisplay	1	1.198	1	1
58	533.52	0.402	loss-noreward	ChosenDisplay		0.0		
58	533.904	0.25	loss-noreward	TurnDisplay				
58	534.154	0.75	loss-noreward	OutcomeDisplay				
59	534.904		control-noreward	ImageDisplay1		0.0		
59	536.904	0.75	control-noreward	StartDisplay				
59	537.654		control-noreward	ImageDisplay2		0.0		
59	540.904	1.6	control-noreward	ChoiceDisplay	1	0.456	1	1
59	541.387	1.144	control-noreward	ChosenDisplay		0.0		
59	542.504	0.25	control-noreward	TurnDisplay				
59	542.753	0.75	control-noreward	OutcomeDisplay				
60	543.503		loss-reward	ImageDisplay1		0.0		
60	545.503	0.75	loss-reward	StartDisplay				
60	546.253		loss-reward	ImageDisplay2		0.0		
60	549.503	1.6	loss-reward	ChoiceDisplay	1	0.549	1	1
60	550.07	1.051	loss-reward	ChosenDisplay		0.0		
60	551.103	0.25	loss-reward	TurnDisplay				
60	551.353	0.75	loss-reward	OutcomeDisplay				
61	552.103		control-reward	ImageDisplay1		0.0		
61	554.103	0.75	control-reward	StartDisplay				
61	554.853		control-reward	ImageDisplay2		0.0		
61	558.103	1.6	control-reward	ChoiceDisplay	1	0.838	1	1
61	558.953	0.762	control-reward	ChosenDisplay		0.0		
61	559.703	0.25	control-reward	TurnDisplay				
61	559.953	0.75	control-reward	OutcomeDisplay				
62	560.703		win-reward	ImageDisplay1		0.0		
62	562.953	0.75	win-reward	StartDisplay				
62	563.703		win-reward	ImageDisplay2		0.0		
62	566.703	1.6	win-reward	ChoiceDisplay	1	1.318	1	1
62	568.036	0.282	win-reward	ChosenDisplay		0.0		
62	568.303	0.25	win-reward	TurnDisplay				
62	568.553	0.75	win-reward	OutcomeDisplay				
63	569.303		win-reward	ImageDisplay1		0.0		
63	571.303	0.75	win-reward	StartDisplay				
63	572.053		win-reward	ImageDisplay2		0.0		
63	575.302	1.6	win-reward	ChoiceDisplay	1	0.838	1	1
63	576.152	0.762	win-reward	ChosenDisplay		0.0		
63	576.902	0.25	win-reward	TurnDisplay				
63	577.152	0.75	win-reward	OutcomeDisplay				
64	577.902		control-reward	ImageDisplay1		0.0		
64	579.902	0.75	control-reward	StartDisplay				
64	580.652		control-reward	ImageDisplay2		0.0		
64	583.902	1.6	control-reward	ChoiceDisplay	1	0.574	1	1
64	584.502	1.026	control-reward	ChosenDisplay		0.0		
64	585.502	0.25	control-reward	TurnDisplay				
64	585.752	0.75	control-reward	OutcomeDisplay				
65	586.502		control-noreward	ImageDisplay1		0.0		
65	588.502	0.75	control-noreward	StartDisplay				
65	589.252		control-noreward	ImageDisplay2		0.0		
65	592.502	1.6	control-noreward	ChoiceDisplay	1	1.007	1	1
65	593.535	0.593	control-noreward	ChosenDisplay		0.0		
65	594.102	0.25	control-noreward	TurnDisplay				
65	594.352	0.75	control-noreward	OutcomeDisplay				
66	595.102		win-reward	ImageDisplay1		0.0		
66	597.352	0.75	win-reward	StartDisplay				
66	598.102		win-reward	ImageDisplay2		0.0		
66	601.102	1.6	win-reward	ChoiceDisplay	1	0.292	1	1
66	601.418	1.308	win-reward	ChosenDisplay		0.0		
66	602.702	0.25	win-reward	TurnDisplay				
66	602.952	0.75	win-reward	OutcomeDisplay				
67	603.702		loss-noreward	ImageDisplay1		0.0		
67	605.952	0.75	loss-noreward	StartDisplay				
67	606.701		loss-noreward	ImageDisplay2		0.0		
67	609.701	1.6	loss-noreward	ChoiceDisplay	1	1.051	1	1
67	610.768	0.549	loss-noreward	ChosenDisplay		0.0		
67	611.301	0.25	loss-noreward	TurnDisplay				
67	611.551	0.75	loss-noreward	OutcomeDisplay				
68	612.301		control-reward	ImageDisplay1		0.0		
68	614.301	0.75	control-reward	StartDisplay				
68	615.051		control-reward	ImageDisplay2		0.0		
68	618.301	1.6	control-reward	ChoiceDisplay	1	0.405	1	1
68	618.718	1.195	control-reward	ChosenDisplay		0.0		
68	619.901	0.25	control-reward	TurnDisplay				
68	620.151	0.75	control-reward	OutcomeDisplay				
69	620.901		control-reward	ImageDisplay1		0.0		
69	622.901	0.75	control-reward	StartDisplay				
69	623.651		control-reward	ImageDisplay2		0.0		
69	626.901	1.6	control-reward	ChoiceDisplay	1	0.634	1	1
69	627.551	0.966	control-reward	ChosenDisplay		0.0		
69	628.501	0.25	control-reward	TurnDisplay				
69	628.751	0.75	control-reward	OutcomeDisplay				
70	629.501		loss-reward	ImageDisplay1		0.0		
70	631.751	0.75	loss-reward	StartDisplay				
70	632.501		loss-reward	ImageDisplay2		0.0		
70	635.501	1.6	loss-reward	ChoiceDisplay	1	1.057	1	1
70	636.584	0.543	loss-reward	ChosenDisplay		0.0		
70	637.1	0.25	loss-reward	TurnDisplay				
70	637.35	0.75	loss-reward	OutcomeDisplay				
71	638.1		loss-reward	ImageDisplay1		0.0		
71	640.35	0.75	loss-reward	StartDisplay				
71	641.1		loss-reward	ImageDisplay2		0.0		
71	644.1	1.6	loss-reward	ChoiceDisplay	1	0.848	1	1
71	644.967	0.752	loss-reward	ChosenDisplay		0.0		
71	645.7	0.25	loss-reward	TurnDisplay				
71	645.95	0.75	loss-reward	OutcomeDisplay				
72	646.7		loss-reward	ImageDisplay1		0.0		
72	648.95	0.75	loss-reward	StartDisplay				
72	649.7		loss-reward	ImageDisplay2		0.0		
72	652.7	1.6	loss-reward	ChoiceDisplay	1	1.399	1	1
72	654.117	0.201	loss-reward	ChosenDisplay		0.0		
72	654.3	0.25	loss-reward	TurnDisplay				
72	654.55	0.75	loss-reward	OutcomeDisplay				
73	655.3		win-reward	ImageDisplay1		0.0		
73	657.55	0.75	win-reward	StartDisplay				
73	658.3		win-reward	ImageDisplay2		0.0		
73	661.3	1.6	win-reward	ChoiceDisplay	1	0.905	1	1
73	662.216	0.695	win-reward	ChosenDisplay		0.0		
73	662.9	0.25	win-reward	TurnDisplay				
73	663.15	0.75	win-reward	OutcomeDisplay				
74	663.9		loss-noreward	ImageDisplay1		0.0		
74	665.9	0.75	loss-noreward	StartDisplay				
74	666.65		loss-noreward	ImageDisplay2		0.0		
74	669.899	1.6	loss-noreward	ChoiceDisplay	1	0.738	1	1
74	670.649	0.862	loss-noreward	ChosenDisplay		0.0		
74	671.499	0.25	loss-noreward	TurnDisplay				
74	671.749	0.75	loss-noreward	OutcomeDisplay				
75	672.499		loss-reward	ImageDisplay1		0.0		
75	674.499	0.75	loss-reward	StartDisplay				
75	675.249		loss-reward	ImageDisplay2		0.0		
75	678.499	1.6	loss-reward	ChoiceDisplay	1	0.731	1	1
75	679.249	0.869	loss-reward	ChosenDisplay		0.0		
75	680.099	0.25	loss-reward	TurnDisplay				
75	680.349	0.75	loss-reward	OutcomeDisplay				
76	681.099		win-reward	ImageDisplay1		0.0		
76	683.099	0.75	win-reward	StartDisplay				
76	683.849		win-reward	ImageDisplay2		0.0		
76	687.099	1.6	win-reward	ChoiceDisplay	1	0.506	1	1
76	687.632	1.094	win-reward	ChosenDisplay		0.0		
76	688.699	0.25	win-reward	TurnDisplay				
76	688.949	0.75	win-reward	OutcomeDisplay				
77	689.699		control-reward	ImageDisplay1		0.0		
77	691.949	0.75	control-reward	StartDisplay				
77	692.699		control-reward	ImageDisplay2		0.0		
77	695.699	1.6	control-reward	ChoiceDisplay		0.0		
77	697.299	0.0	control-reward	ChosenDisplay		0.0		
77	697.315	0.25	control-reward	TurnDisplay				
77	697.549	0.75	control-reward	OutcomeDisplay				
78	698.299		control-noreward	ImageDisplay1		0.0		
78	700.298	0.75	control-noreward	StartDisplay				
78	701.048		control-noreward	ImageDisplay2		0.0		
78	704.298	1.6	control-noreward	ChoiceDisplay	1	0.376	1	1
78	704.698	1.224	control-noreward	ChosenDisplay		0.0		
78	705.898	0.25	control-noreward	TurnDisplay				
78	706.148	0.75	control-noreward	OutcomeDisplay				
79	706.898		win-noreward	ImageDisplay1		0.0		
79	708.898	0.75	win-noreward	StartDisplay				
79	709.648		win-noreward	ImageDisplay2		0.0		
79	712.898	1.6	win-noreward	ChoiceDisplay	1	0.468	1	1
79	713.381	1.132	win-noreward	ChosenDisplay		0.0		
79	714.498	0.25	win-noreward	TurnDisplay				
79	714.748	0.75	win-noreward	OutcomeDisplay				
80	715.498		loss-reward	ImageDisplay1		0.0		
80	717.498	0.75	loss-reward	StartDisplay				
80	718.248		loss-reward	ImageDisplay2		0.0		
80	721.498	1.6	loss-reward	ChoiceDisplay	1	0.675	1	1
80	722.198	0.925	loss-reward	ChosenDisplay		0.0		
80	723.098	0.25	loss-reward	TurnDisplay				
80	723.348	0.75	loss-reward	OutcomeDisplay				
81	724.098		loss-noreward	ImageDisplay1		0.0		
81	726.348	0.75	loss-noreward	StartDisplay				
81	727.098		loss-noreward	ImageDisplay2		0.0		
81	730.098	1.6	loss-noreward	ChoiceDisplay	1	0.661	1	1
81	730.781	0.939	loss-noreward	ChosenDisplay		0.0		
81	731.697	0.25	loss-noreward	TurnDisplay				
81	731.947	0.75	loss-noreward	OutcomeDisplay				
82	732.697		control-noreward	ImageDisplay1		0.0		
82	734.947	0.75	control-noreward	StartDisplay				
82	735.697		control-noreward	ImageDisplay2		0.0		
82	738.697	1.6	control-noreward	ChoiceDisplay	1	1.137	1	1
82	739.847	0.463	control-noreward	ChosenDisplay		0.0		
82	740.297	0.25	control-noreward	TurnDisplay				
82	740.547	0.75	control-noreward	OutcomeDisplay				
83	741.297		control-reward	ImageDisplay1		0.0		
83	743.297	0.75	control-reward	StartDisplay				
83	744.047		control-reward	ImageDisplay2		0.0		
83	747.297	1.6	control-reward	ChoiceDisplay	1	1.024	1	1
83	748.347	0.576	control-reward	ChosenDisplay		0.0		
83	748.897	0.25	control-reward	TurnDisplay				
83	749.147	0.75	control-reward	OutcomeDisplay				
84	749.897		control-reward	ImageDisplay1		0.0		
84	751.897	0.75	control-reward	StartDisplay				
84	752.647		control-reward	ImageDisplay2		0.0		
84	755.897	1.6	control-reward	ChoiceDisplay	1	0.54	1	1
84	756.463	1.06	control-reward	ChosenDisplay		0.0		
84	757.497	0.25	control-reward	TurnDisplay				
84	757.747	0.75	control-reward	OutcomeDisplay				
85	758.497		win-noreward	ImageDisplay1		0.0		
85	760.497	0.75	win-noreward	StartDisplay				
85	761.247		win-noreward	ImageDisplay2		0.0		
85	764.496	1.6	win-noreward	ChoiceDisplay	1	0.609	1	1
85	765.13	0.991	win-noreward	ChosenDisplay		0.0		
85	766.096	0.25	win-noreward	TurnDisplay				
85	766.346	0.75	win-noreward	OutcomeDisplay				
86	767.096		loss-reward	ImageDisplay1		0.0		
86	769.346	0.75	loss-reward	StartDisplay				
86	770.096		loss-reward	ImageDisplay2		0.0		
86	773.096	1.6	loss-reward	ChoiceDisplay	1	0.867	1	1
86	773.979	0.733	loss-reward	ChosenDisplay		0.0		
86	774.696	0.25	loss-reward	TurnDisplay				
86	774.946	0.75	loss-reward	OutcomeDisplay				
87	775.696		loss-noreward	ImageDisplay1		0.0		
87	777.696	0.75	loss-noreward	StartDisplay				
87	778.446		loss-noreward	ImageDisplay2		0.0		
87	781.696	1.6	loss-noreward	ChoiceDisplay	1	0.565	1	1
87	782.279	1.035	loss-noreward	ChosenDisplay		0.0		
87	783.296	0.25	loss-noreward	TurnDisplay				
87	783.546	0.75	loss-noreward	OutcomeDisplay				
88	784.296		loss-reward	ImageDisplay1		0.0		
88	786.546	0.75	loss-reward	StartDisplay				
88	787.296		loss-reward	ImageDisplay2		0.0		
88	790.296	1.6	loss-reward	ChoiceDisplay	1	0.379	1	1
88	790.696	1.221	loss-reward	ChosenDisplay		0.0		
88	791.896	0.25	loss-reward	TurnDisplay				
88	792.146	0.75	loss-reward	OutcomeDisplay				
89	792.896		win-reward	ImageDisplay1		0.0		
89	795.145	0.75	win-reward	StartDisplay				
89	795.895		win-reward	ImageDisplay2		0.0		
89	798.895	1.6	win-reward	ChoiceDisplay	1	0.935	1	1
89	799.845	0.665	win-reward	ChosenDisplay		0.0		
89	800.495	0.25	win-reward	TurnDisplay				
89	800.745	0.75	win-reward	OutcomeDisplay				
90	801.495		control-noreward	ImageDisplay1		0.0		
90	803.745	0.75	control-noreward	StartDisplay				
90	804.495		control-noreward	ImageDisplay2		0.0		
90	807.495	1.6	control-noreward	ChoiceDisplay	1	0.771	1	1
90	808.278	0.829	control-noreward	ChosenDisplay		0.0		
90	809.095	0.25	control-noreward	TurnDisplay				
90	809.345	0.75	control-noreward	OutcomeDisplay				
91	810.095		win-noreward	ImageDisplay1		0.0		
91	812.095	0.75	win-noreward	StartDisplay				
91	812.845		win-noreward	ImageDisplay2		0.0		
91	816.095	1.6	win-noreward	ChoiceDisplay	1	0.643	1	1
91	816.761	0.957	win-noreward	ChosenDisplay		0.0		
91	817.695	0.25	win-noreward	TurnDisplay				
91	817.945	0.75	win-noreward	OutcomeDisplay				
92	818.695		win-noreward	ImageDisplay1		0.0		
92	820.945	0.75	win-noreward	StartDisplay				
92	821.695		win-noreward	ImageDisplay2		0.0		
92	824.695	1.6	win-noreward	ChoiceDisplay	1	0.739	1	1
92	825.461	0.861	win-noreward	ChosenDisplay		0.0		
92	826.294	0.25	win-noreward	TurnDisplay				
92	826.544	0.75	win-noreward	OutcomeDisplay				
93	827.294		control-noreward	ImageDisplay1		0.0		
93	829.544	0.75	control-noreward	StartDisplay				
93	830.294		control-noreward	ImageDisplay2		0.0		
93	833.294	1.6	control-noreward	ChoiceDisplay	1	0.898	1	1
93	834.211	0.702	control-noreward	ChosenDisplay		0.0		
93	834.894	0.25	control-noreward	TurnDisplay				
93	835.144	0.75	control-noreward	OutcomeDisplay				
94	835.894		loss-reward	ImageDisplay1		0.0		
94	838.144	0.75	loss-reward	StartDisplay				
94	838.894		loss-reward	ImageDisplay2		0.0		
94	841.894	1.6	loss-reward	ChoiceDisplay		0.0		
94	843.494	0.0	loss-reward	ChosenDisplay		0.0		
94	843.511	0.25	loss-reward	TurnDisplay				
94	843.744	0.75	loss-reward	OutcomeDisplay				
95	844.494		control-reward	ImageDisplay1		0.0		
95	846.744	0.75	control-reward	StartDisplay				
95	847.494		control-reward	ImageDisplay2		0.0		
95	850.494	1.6	control-reward	ChoiceDisplay	1	0.445	1	1
95	850.96	1.155	control-reward	ChosenDisplay		0.0		
95	852.094	0.25	control-reward	TurnDisplay				
95	852.344	0.75	control-reward	OutcomeDisplay				
