onset	duration	trial_type	response_time	stim_file	accuracy
0.5760000000000076	1.0	go	0.773	Go_X	1.0
3.1670000000000016	1.0	go	0.248	Go_O	1.0
5.6910000000000025	1.0	go	0.306	Go_X	1.0
8.216000000000008	1.0	go	0.264	Go_O	1.0
10.740000000000009	1.0	go	0.447	Go_O	1.0
13.26400000000001	1.0	go	0.3	Go_X	1.0
15.788000000000011	0.25	stopfail	0.27	Go_O	0.0
18.312000000000012	1.0	go	0.352	Go_O	1.0
20.837000000000003	0.2	stopfail	0.295	Go_X	0.0
23.361000000000004	1.0	go	0.281	Go_X	1.0
25.885000000000005	1.0	go	0.153	Go_X	0.0
28.409000000000006	1.0	go	0.259	Go_O	1.0
30.933000000000007	0.15	stopsuccess	0.0	Go_O	1.0
33.45800000000001	1.0	go	0.355	Go_X	1.0
35.98200000000001	1.0	go	0.403	Go_O	1.0
38.506	0.2	stopsuccess	0.0	Go_X	1.0
41.03	0.25	stopfail	0.259	Go_O	0.0
43.554	1.0	go	0.384	Go_X	0.0
46.078	1.0	go	0.329	Go_O	1.0
48.60300000000001	0.2	stopfail	0.293	Go_X	0.0
51.12700000000001	1.0	go	0.366	Go_X	1.0
53.65100000000001	1.0	go	0.285	Go_O	1.0
56.17500000000001	0.15	stopsuccess	0.0	Go_O	1.0
58.69900000000001	1.0	go	0.388	Go_X	1.0
61.22400000000002	1.0	go	0.395	Go_O	1.0
63.74800000000002	0.2	stopsuccess	0.0	Go_X	1.0
66.27200000000002	1.0	go	0.347	Go_O	1.0
68.79600000000002	1.0	go	0.308	Go_X	1.0
71.32	0.25	stopfail	0.272	Go_O	0.0
73.845	1.0	go	0.498	Go_X	1.0
76.369	1.0	go	0.316	Go_O	1.0
78.893	1.0	go	0.401	Go_X	1.0
81.417	1.0	go	0.366	Go_O	1.0
83.941	1.0	go	0.328	Go_O	1.0
86.46600000000001	0.2	stopsuccess	0.0	Go_X	1.0
88.99000000000001	1.0	go	0.345	Go_X	1.0
91.51400000000001	1.0	go	0.372	Go_O	1.0
94.03800000000001	1.0	go	0.365	Go_X	1.0
96.56200000000001	1.0	go	0.383	Go_X	1.0
99.08700000000002	1.0	go	0.383	Go_O	1.0
101.61100000000002	0.25	stopfail	0.296	Go_O	0.0
104.13500000000002	1.0	go	0.297	Go_O	1.0
106.65900000000002	1.0	go	0.283	Go_X	1.0
109.18300000000002	1.0	go	0.329	Go_X	1.0
111.707	1.0	go	0.385	Go_O	1.0
114.232	1.0	go	0.326	Go_X	1.0
116.756	1.0	go	0.267	Go_O	0.0
119.28	0.2	stopsuccess	0.0	Go_X	1.0
121.804	1.0	go	0.523	Go_X	1.0
124.328	1.0	go	0.304	Go_O	1.0
126.85300000000001	0.25	stopfail	0.304	Go_O	0.0
129.377	1.0	go	0.301	Go_O	1.0
131.901	0.2	stopsuccess	0.0	Go_X	1.0
134.425	0.25	stopsuccess	0.0	Go_O	1.0
136.949	1.0	go	0.425	Go_X	1.0
139.47400000000002	1.0	go	0.292	Go_O	1.0
141.99800000000002	1.0	go	0.286	Go_X	0.0
144.52200000000002	1.0	go	0.327	Go_X	1.0
147.04600000000002	0.3	stopfail	0.396	Go_X	0.0
149.57	1.0	go	0.403	Go_O	1.0
152.095	0.25	stopfail	0.38	Go_O	0.0
154.619	1.0	go	0.4	Go_X	1.0
157.143	1.0	go	0.295	Go_O	1.0
159.667	1.0	go	0.394	Go_O	1.0
162.191	1.0	go	0.353	Go_X	1.0
164.716	1.0	go	0.494	Go_O	1.0
167.24	1.0	go	0.47	Go_X	1.0
169.764	1.0	go	0.563	Go_X	1.0
172.288	1.0	go	0.413	Go_O	1.0
174.812	1.0	go	0.358	Go_X	1.0
177.336	0.2	stopsuccess	0.0	Go_X	1.0
179.86100000000002	1.0	go	0.341	Go_O	1.0
182.38500000000002	1.0	go	0.372	Go_O	1.0
184.90900000000002	1.0	go	0.294	Go_X	1.0
187.43300000000002	0.25	stopfail	0.306	Go_O	0.0
189.95700000000002	1.0	go	0.503	Go_X	1.0
192.482	1.0	go	0.32	Go_O	1.0
195.006	1.0	go	0.429	Go_O	1.0
197.53	1.0	go	0.509	Go_X	1.0
200.054	1.0	go	0.294	Go_O	1.0
202.578	1.0	go	0.351	Go_X	1.0
205.10299999999998	0.2	stopfail	0.403	Go_X	0.0
207.62699999999998	1.0	go	0.375	Go_X	1.0
210.15099999999998	1.0	go	0.346	Go_O	1.0
212.67499999999998	0.15	stopsuccess	0.0	Go_O	1.0
215.19899999999998	1.0	go	0.403	Go_X	1.0
217.72400000000002	1.0	go	0.34	Go_O	1.0
220.24800000000002	0.2	stopfail	0.394	Go_X	0.0
222.77200000000002	1.0	go	0.371	Go_O	1.0
225.29600000000002	0.15	stopfail	0.297	Go_O	0.0
227.82000000000002	1.0	go	0.457	Go_X	1.0
230.345	1.0	go	0.503	Go_O	1.0
232.869	1.0	go	0.313	Go_X	1.0
235.393	1.0	go	0.443	Go_X	1.0
237.917	1.0	go	0.276	Go_O	1.0
240.441	0.1	stopsuccess	0.0	Go_X	1.0
242.965	0.15	stopsuccess	0.0	Go_O	1.0
245.48999999999998	1.0	go	0.378	Go_O	1.0
248.01399999999998	1.0	go	0.231	Go_X	1.0
250.53799999999998	0.2	stopsuccess	0.0	Go_X	1.0
253.06199999999998	1.0	go	0.343	Go_X	1.0
255.58599999999998	1.0	go	0.298	Go_O	1.0
258.111	1.0	go	0.439	Go_X	1.0
260.635	1.0	go	0.331	Go_O	1.0
263.159	1.0	go	0.347	Go_X	1.0
265.683	1.0	go	0.286	Go_O	1.0
268.207	0.25	stopfail	0.337	Go_O	0.0
270.73199999999997	1.0	go	0.444	Go_O	1.0
273.256	1.0	go	0.333	Go_X	1.0
275.78	1.0	go	0.292	Go_X	1.0
278.304	1.0	go	0.414	Go_O	1.0
280.828	1.0	go	0.509	Go_X	1.0
283.35299999999995	0.2	stopfail	0.361	Go_X	0.0
285.87699999999995	1.0	go	0.353	Go_O	1.0
288.40099999999995	1.0	go	0.358	Go_X	1.0
290.92499999999995	1.0	go	0.56	Go_O	1.0
293.44899999999996	1.0	go	0.301	Go_O	1.0
295.97400000000005	0.15	stopfail	0.287	Go_O	0.0
298.49800000000005	1.0	go	0.337	Go_X	1.0
301.02200000000005	1.0	go	0.305	Go_X	1.0
303.54600000000005	0.1	stopsuccess	0.0	Go_X	1.0
306.07000000000005	1.0	go	0.369	Go_O	1.0
308.59400000000005	0.15	stopsuccess	0.0	Go_O	1.0
311.119	1.0	go	0.401	Go_X	1.0
313.64300000000003	1.0	go	0.309	Go_O	1.0
316.16700000000003	1.0	go	0.319	Go_X	1.0
318.69100000000003	1.0	go	0.26	Go_O	1.0
321.21500000000003	1.0	go	0.351	Go_O	1.0
323.74	1.0	go	0.329	Go_X	1.0
326.264	1.0	go	0.266	Go_O	1.0
328.788	0.2	stopfail	0.403	Go_X	0.0
331.312	1.0	go	0.326	Go_X	1.0
333.836	1.0	go	0.373	Go_O	1.0
336.361	1.0	go	0.407	Go_X	1.0
338.885	0.15	stopsuccess	0.0	Go_O	1.0
341.409	1.0	go	0.0	Go_X	0.0
343.933	1.0	go	0.484	Go_O	1.0
346.457	1.0	go	0.412	Go_O	1.0
348.98199999999997	1.0	go	0.27	Go_X	1.0
351.506	0.2	stopsuccess	0.0	Go_X	1.0
354.03	1.0	go	0.315	Go_O	1.0
356.554	1.0	go	0.367	Go_X	1.0
359.078	0.25	stopfail	0.324	Go_O	0.0
361.60299999999995	1.0	go	0.321	Go_X	1.0
364.12699999999995	1.0	go	0.252	Go_O	1.0
366.65099999999995	0.2	stopsuccess	0.0	Go_X	1.0
369.17499999999995	1.0	go	0.362	Go_O	1.0
371.69899999999996	1.0	go	0.256	Go_X	0.0
374.22299999999996	0.25	stopfail	0.307	Go_O	0.0
376.74800000000005	1.0	go	0.51	Go_O	1.0
379.27200000000005	1.0	go	0.332	Go_X	1.0
381.79600000000005	1.0	go	0.339	Go_X	1.0
384.32000000000005	1.0	go	0.301	Go_O	1.0
386.84400000000005	1.0	go	0.378	Go_X	1.0
389.369	1.0	go	0.321	Go_O	1.0
391.89300000000003	0.2	stopfail	0.335	Go_X	0.0
394.41700000000003	1.0	go	0.422	Go_X	1.0
396.94100000000003	0.15	stopsuccess	0.0	Go_O	1.0
399.46500000000003	1.0	go	0.664	Go_O	1.0
401.99	1.0	go	0.318	Go_X	1.0
404.514	1.0	go	0.31	Go_O	1.0
407.038	1.0	go	0.406	Go_O	1.0
409.562	1.0	go	0.34	Go_X	1.0
412.086	0.2	stopfail	0.352	Go_X	0.0
414.611	1.0	go	0.336	Go_O	1.0
417.135	1.0	go	0.291	Go_X	1.0
419.659	1.0	go	0.286	Go_X	0.0
422.183	0.15	stopfail	0.311	Go_O	0.0
424.707	0.1	stopsuccess	0.0	Go_X	1.0
427.23199999999997	0.15	stopsuccess	0.0	Go_O	1.0
429.756	1.0	go	0.449	Go_O	1.0
432.28	0.2	stopfail	0.327	Go_X	0.0
434.804	1.0	go	0.294	Go_X	1.0
437.328	1.0	go	0.317	Go_O	1.0
439.852	1.0	go	0.336	Go_X	1.0
442.37700000000007	1.0	go	0.298	Go_O	1.0
444.90100000000007	1.0	go	0.428	Go_O	1.0
447.42500000000007	1.0	go	0.334	Go_X	1.0
449.94900000000007	1.0	go	0.34	Go_O	1.0
452.47300000000007	1.0	go	0.361	Go_X	1.0
454.99800000000005	0.15	stopsuccess	0.0	Go_O	1.0
457.52200000000005	1.0	go	0.366	Go_X	1.0
460.04600000000005	1.0	go	0.252	Go_O	1.0
462.57000000000005	0.2	stopfail	0.249	Go_X	0.0
465.09400000000005	1.0	go	0.251	Go_O	1.0
467.619	1.0	go	0.354	Go_X	1.0
470.14300000000003	1.0	go	0.426	Go_X	1.0
472.66700000000003	1.0	go	0.338	Go_O	1.0
475.19100000000003	1.0	go	0.308	Go_X	1.0
477.71500000000003	0.15	stopfail	0.226	Go_O	0.0
480.24	1.0	go	0.356	Go_O	1.0
482.764	1.0	go	0.443	Go_O	1.0
485.288	1.0	go	0.379	Go_X	1.0
487.812	0.1	stopsuccess	0.0	Go_X	1.0
490.336	1.0	go	0.368	Go_O	1.0
492.861	0.15	stopfail	0.336	Go_O	0.0
495.385	1.0	go	0.457	Go_X	1.0
497.909	1.0	go	0.533	Go_O	1.0
500.433	1.0	go	0.329	Go_X	1.0
502.957	1.0	go	0.309	Go_O	1.0
505.481	1.0	go	0.459	Go_X	1.0
508.0060000000001	1.0	go	0.468	Go_X	1.0
510.5300000000001	1.0	go	0.359	Go_O	1.0
513.0540000000001	0.1	stopsuccess	0.0	Go_X	1.0
515.5780000000001	1.0	go	0.351	Go_O	1.0
518.1020000000001	1.0	go	0.394	Go_X	1.0
520.6270000000001	1.0	go	0.355	Go_X	1.0
523.1510000000001	1.0	go	0.269	Go_O	1.0
525.6750000000001	0.15	stopsuccess	0.0	Go_O	1.0
528.1990000000001	1.0	go	0.441	Go_X	1.0
530.7230000000001	0.2	stopsuccess	0.0	Go_X	1.0
533.248	1.0	go	0.365	Go_O	1.0
535.772	1.0	go	0.334	Go_X	1.0
538.296	0.25	stopfail	0.346	Go_O	0.0
540.82	1.0	go	0.324	Go_O	1.0
543.344	1.0	go	0.476	Go_O	1.0
545.869	1.0	go	0.43	Go_X	1.0
548.393	1.0	go	0.371	Go_X	1.0
550.917	1.0	go	0.504	Go_O	1.0
553.441	1.0	go	0.33	Go_X	1.0
555.965	1.0	go	0.227	Go_O	1.0
558.489	1.0	go	0.328	Go_O	1.0
561.014	1.0	go	0.39	Go_X	1.0
563.538	1.0	go	0.478	Go_X	1.0
566.062	0.2	stopsuccess	0.0	Go_X	1.0
568.586	1.0	go	0.358	Go_O	1.0
571.11	1.0	go	0.562	Go_O	1.0
573.635	0.25	stopsuccess	0.0	Go_O	1.0
576.159	1.0	go	0.298	Go_X	1.0
578.683	0.3	stopfail	0.361	Go_X	0.0
581.207	1.0	go	0.369	Go_X	1.0
583.731	1.0	go	0.344	Go_O	1.0
586.2560000000001	0.25	stopfail	0.308	Go_O	0.0
588.7800000000001	1.0	go	0.35	Go_O	1.0
591.3040000000001	0.2	stopsuccess	0.0	Go_X	1.0
593.8280000000001	1.0	go	0.518	Go_X	1.0
596.3520000000001	1.0	go	0.202	Go_O	1.0
598.8770000000001	1.0	go	0.374	Go_X	1.0
601.4010000000001	0.25	stopfail	0.327	Go_O	0.0
603.9250000000001	1.0	go	0.427	Go_X	1.0
606.4490000000001	1.0	go	0.504	Go_O	1.0
608.9730000000001	1.0	go	0.493	Go_X	1.0
611.498	1.0	go	0.302	Go_O	1.0
614.022	0.2	stopsuccess	0.0	Go_X	1.0
616.546	1.0	go	0.298	Go_X	1.0
619.07	1.0	go	0.279	Go_O	1.0
621.594	0.25	stopfail	0.249	Go_O	0.0
624.118	1.0	go	0.398	Go_X	1.0
626.643	1.0	go	0.35	Go_O	1.0
629.167	1.0	go	0.354	Go_O	1.0
631.691	1.0	go	0.314	Go_X	1.0
634.215	0.2	stopfail	0.247	Go_X	0.0
636.739	1.0	go	0.363	Go_X	1.0
639.264	0.15	stopsuccess	0.0	Go_O	1.0
641.788	1.0	go	0.264	Go_O	1.0
644.312	1.0	go	0.253	Go_X	1.0
646.836	0.2	stopfail	0.388	Go_X	0.0
649.36	1.0	go	0.353	Go_O	1.0
651.885	1.0	go	0.342	Go_X	1.0
654.409	1.0	go	0.344	Go_O	1.0
656.933	1.0	go	0.313	Go_X	1.0
659.457	0.15	stopsuccess	0.0	Go_O	1.0
661.981	1.0	go	0.53	Go_O	1.0
664.5060000000001	0.2	stopfail	0.358	Go_X	0.0
667.0300000000001	1.0	go	0.5	Go_X	1.0
669.5540000000001	1.0	go	0.247	Go_O	1.0
672.0780000000001	1.0	go	0.407	Go_O	1.0
674.6020000000001	1.0	go	0.542	Go_X	1.0
677.1270000000001	1.0	go	0.508	Go_O	1.0
679.6510000000001	1.0	go	0.278	Go_X	1.0
682.1750000000001	0.15	stopfail	0.313	Go_O	0.0
684.6990000000001	1.0	go	0.373	Go_O	1.0
687.2230000000001	1.0	go	0.337	Go_X	1.0
689.748	0.1	stopsuccess	0.0	Go_X	1.0
692.272	1.0	go	0.344	Go_O	1.0
694.796	1.0	go	0.303	Go_X	1.0
697.32	0.15	stopfail	0.335	Go_O	0.0
699.844	1.0	go	0.372	Go_O	1.0
702.368	1.0	go	0.401	Go_X	1.0
704.893	1.0	go	0.312	Go_O	1.0
707.417	1.0	go	0.237	Go_X	1.0
709.941	0.1	stopsuccess	0.0	Go_X	1.0
712.465	1.0	go	0.634	Go_X	1.0
714.989	0.15	stopfail	0.249	Go_O	0.0
717.514	1.0	go	0.41	Go_O	1.0
720.038	1.0	go	0.44	Go_O	1.0
722.562	1.0	go	0.358	Go_X	1.0
725.086	1.0	go	0.249	Go_O	1.0
727.61	1.0	go	0.354	Go_X	1.0
730.135	0.1	stopsuccess	0.0	Go_X	1.0
732.659	1.0	go	0.347	Go_O	1.0
735.183	1.0	go	0.369	Go_X	1.0
737.707	0.15	stopfail	0.315	Go_O	0.0
740.231	0.1	stopsuccess	0.0	Go_X	1.0
742.7560000000001	1.0	go	0.538	Go_O	1.0
745.2800000000001	1.0	go	0.424	Go_X	1.0
747.8040000000001	1.0	go	0.556	Go_O	1.0
750.3280000000001	1.0	go	0.421	Go_X	1.0
752.8520000000001	0.15	stopfail	0.325	Go_O	0.0
755.3760000000001	1.0	go	0.601	Go_X	1.0
