frame	onset	duration	trial_type	event_type	response_type	response_time	stim_file	accuracy
0	94.529		win-reward	ImageDisplay1		0.0		
0	96.702	0.75	win-reward	StartDisplay				
0	97.454		win-reward	ImageDisplay2		0.0		
0	100.447	1.6	win-reward	ChoiceDisplay	1	1.063	1	1
0	101.533	0.537	win-reward	ChosenDisplay		0.0		
0	102.052	0.25	win-reward	TurnDisplay				
0	102.302	0.75	win-reward	OutcomeDisplay				
1	103.054		control-reward	ImageDisplay1		0.0		
1	105.044	0.75	control-reward	StartDisplay				
1	105.796		control-reward	ImageDisplay2		0.0		
1	109.056	1.6	control-reward	ChoiceDisplay	1	1.103	1	1
1	110.176	0.497	control-reward	ChosenDisplay		0.0		
1	110.66	0.25	control-reward	TurnDisplay				
1	110.911	0.75	control-reward	OutcomeDisplay				
2	111.663		loss-reward	ImageDisplay1		0.0		
2	113.903	0.75	loss-reward	StartDisplay				
2	114.656		loss-reward	ImageDisplay2		0.0		
2	117.665	1.6	loss-reward	ChoiceDisplay	1	0.967	1	1
2	118.651	0.633	loss-reward	ChosenDisplay		0.0		
2	119.269	0.25	loss-reward	TurnDisplay				
2	119.52	0.75	loss-reward	OutcomeDisplay				
3	120.272		control-noreward	ImageDisplay1		0.0		
3	122.262	0.75	control-noreward	StartDisplay				
3	123.014		control-noreward	ImageDisplay2		0.0		
3	126.274	1.6	control-noreward	ChoiceDisplay	1	0.785	1	1
3	127.076	0.815	control-noreward	ChosenDisplay		0.0		
3	127.878	0.25	control-noreward	TurnDisplay				
3	128.129	0.75	control-noreward	OutcomeDisplay				
4	128.881		loss-reward	ImageDisplay1		0.0		
4	131.121	0.75	loss-reward	StartDisplay				
4	131.874		loss-reward	ImageDisplay2		0.0		
4	134.883	1.6	loss-reward	ChoiceDisplay	1	0.925	1	1
4	135.819	0.675	loss-reward	ChosenDisplay		0.0		
4	136.487	0.25	loss-reward	TurnDisplay				
4	136.738	0.75	loss-reward	OutcomeDisplay				
5	137.49		loss-noreward	ImageDisplay1		0.0		
5	139.73	0.75	loss-noreward	StartDisplay				
5	140.483		loss-noreward	ImageDisplay2		0.0		
5	143.492	1.6	loss-noreward	ChoiceDisplay	1	0.687	1	1
5	144.194	0.913	loss-noreward	ChosenDisplay		0.0		
5	145.096	0.25	loss-noreward	TurnDisplay				
5	145.347	0.75	loss-noreward	OutcomeDisplay				
6	146.099		control-reward	ImageDisplay1		0.0		
6	148.089	0.75	control-reward	StartDisplay				
6	148.841		control-reward	ImageDisplay2		0.0		
6	152.101	1.6	control-reward	ChoiceDisplay	1	1.048	1	1
6	153.171	0.552	control-reward	ChosenDisplay		0.0		
6	153.705	0.25	control-reward	TurnDisplay				
6	153.956	0.75	control-reward	OutcomeDisplay				
7	154.708		loss-noreward	ImageDisplay1		0.0		
7	156.698	0.75	loss-noreward	StartDisplay				
7	157.45		loss-noreward	ImageDisplay2		0.0		
7	160.71	1.6	loss-noreward	ChoiceDisplay	1	0.786	1	1
7	161.512	0.814	loss-noreward	ChosenDisplay		0.0		
7	162.314	0.25	loss-noreward	TurnDisplay				
7	162.565	0.75	loss-noreward	OutcomeDisplay				
8	163.317		win-reward	ImageDisplay1		0.0		
8	165.557	0.75	win-reward	StartDisplay				
8	166.31		win-reward	ImageDisplay2		0.0		
8	169.319	1.6	win-reward	ChoiceDisplay	1	0.918	1	1
8	170.255	0.682	win-reward	ChosenDisplay		0.0		
8	170.923	0.25	win-reward	TurnDisplay				
8	171.174	0.75	win-reward	OutcomeDisplay				
9	171.926		control-noreward	ImageDisplay1		0.0		
9	173.916	0.75	control-noreward	StartDisplay				
9	174.668		control-noreward	ImageDisplay2		0.0		
9	177.928	1.6	control-noreward	ChoiceDisplay	1	0.73	1	1
9	178.68	0.87	control-noreward	ChosenDisplay		0.0		
9	179.532	0.25	control-noreward	TurnDisplay				
9	179.783	0.75	control-noreward	OutcomeDisplay				
10	180.535		loss-noreward	ImageDisplay1		0.0		
10	182.775	0.75	loss-noreward	StartDisplay				
10	183.528		loss-noreward	ImageDisplay2		0.0		
10	186.537	1.6	loss-noreward	ChoiceDisplay	1	0.777	1	1
10	187.339	0.823	loss-noreward	ChosenDisplay		0.0		
10	188.141	0.25	loss-noreward	TurnDisplay				
10	188.392	0.75	loss-noreward	OutcomeDisplay				
11	189.144		control-reward	ImageDisplay1		0.0		
11	191.384	0.75	control-reward	StartDisplay				
11	192.137		control-reward	ImageDisplay2		0.0		
11	195.146	1.6	control-reward	ChoiceDisplay	1	0.999	1	1
11	196.165	0.601	control-reward	ChosenDisplay		0.0		
11	196.75	0.25	control-reward	TurnDisplay				
11	197.001	0.75	control-reward	OutcomeDisplay				
12	197.753		loss-reward	ImageDisplay1		0.0		
12	199.743	0.75	loss-reward	StartDisplay				
12	200.495		loss-reward	ImageDisplay2		0.0		
12	203.755	1.6	loss-reward	ChoiceDisplay	1	0.706	1	1
12	204.474	0.894	loss-reward	ChosenDisplay		0.0		
12	205.359	0.25	loss-reward	TurnDisplay				
12	205.61	0.75	loss-reward	OutcomeDisplay				
13	206.362		loss-reward	ImageDisplay1		0.0		
13	208.602	0.75	loss-reward	StartDisplay				
13	209.355		loss-reward	ImageDisplay2		0.0		
13	212.364	1.6	loss-reward	ChoiceDisplay	1	0.775	1	1
13	213.166	0.825	loss-reward	ChosenDisplay		0.0		
13	213.968	0.25	loss-reward	TurnDisplay				
13	214.219	0.75	loss-reward	OutcomeDisplay				
14	214.971		win-reward	ImageDisplay1		0.0		
14	217.211	0.75	win-reward	StartDisplay				
14	217.964		win-reward	ImageDisplay2		0.0		
14	220.973	1.6	win-reward	ChoiceDisplay	1	0.934	1	1
14	221.926	0.666	win-reward	ChosenDisplay		0.0		
14	222.577	0.25	win-reward	TurnDisplay				
14	222.828	0.75	win-reward	OutcomeDisplay				
15	223.58		win-noreward	ImageDisplay1		0.0		
15	225.82	0.75	win-noreward	StartDisplay				
15	226.573		win-noreward	ImageDisplay2		0.0		
15	229.582	1.6	win-noreward	ChoiceDisplay	1	0.956	1	1
15	230.551	0.644	win-noreward	ChosenDisplay		0.0		
15	231.186	0.25	win-noreward	TurnDisplay				
15	231.437	0.75	win-noreward	OutcomeDisplay				
16	232.189		control-reward	ImageDisplay1		0.0		
16	234.429	0.75	control-reward	StartDisplay				
16	235.182		control-reward	ImageDisplay2		0.0		
16	238.191	1.6	control-reward	ChoiceDisplay	1	0.88	1	1
16	239.093	0.72	control-reward	ChosenDisplay		0.0		
16	239.795	0.25	control-reward	TurnDisplay				
16	240.046	0.75	control-reward	OutcomeDisplay				
17	240.798		win-noreward	ImageDisplay1		0.0		
17	243.038	0.75	win-noreward	StartDisplay				
17	243.791		win-noreward	ImageDisplay2		0.0		
17	246.8	1.6	win-noreward	ChoiceDisplay	1	0.932	1	1
17	247.753	0.668	win-noreward	ChosenDisplay		0.0		
17	248.404	0.25	win-noreward	TurnDisplay				
17	248.655	0.75	win-noreward	OutcomeDisplay				
18	249.407		loss-reward	ImageDisplay1		0.0		
18	251.397	0.75	loss-reward	StartDisplay				
18	252.149		loss-reward	ImageDisplay2		0.0		
18	255.409	1.6	loss-reward	ChoiceDisplay	1	0.858	1	1
18	256.278	0.742	loss-reward	ChosenDisplay		0.0		
18	257.013	0.25	loss-reward	TurnDisplay				
18	257.264	0.75	loss-reward	OutcomeDisplay				
19	258.016		control-reward	ImageDisplay1		0.0		
19	260.256	0.75	control-reward	StartDisplay				
19	261.009		control-reward	ImageDisplay2		0.0		
19	264.018	1.6	control-reward	ChoiceDisplay	1	1.024	1	1
19	265.054	0.576	control-reward	ChosenDisplay		0.0		
19	265.622	0.25	control-reward	TurnDisplay				
19	265.873	0.75	control-reward	OutcomeDisplay				
20	266.625		loss-noreward	ImageDisplay1		0.0		
20	268.865	0.75	loss-noreward	StartDisplay				
20	269.618		loss-noreward	ImageDisplay2		0.0		
20	272.627	1.6	loss-noreward	ChoiceDisplay	1	0.748	1	1
20	273.396	0.852	loss-noreward	ChosenDisplay		0.0		
20	274.231	0.25	loss-noreward	TurnDisplay				
20	274.482	0.75	loss-noreward	OutcomeDisplay				
21	275.234		win-reward	ImageDisplay1		0.0		
21	277.474	0.75	win-reward	StartDisplay				
21	278.227		win-reward	ImageDisplay2		0.0		
21	281.236	1.6	win-reward	ChoiceDisplay	1	1.045	1	1
21	282.306	0.555	win-reward	ChosenDisplay		0.0		
21	282.84	0.25	win-reward	TurnDisplay				
21	283.091	0.75	win-reward	OutcomeDisplay				
22	283.843		win-reward	ImageDisplay1		0.0		
22	285.833	0.75	win-reward	StartDisplay				
22	286.585		win-reward	ImageDisplay2		0.0		
22	289.845	1.6	win-reward	ChoiceDisplay	1	0.9	1	1
22	290.764	0.7	win-reward	ChosenDisplay		0.0		
22	291.449	0.25	win-reward	TurnDisplay				
22	291.7	0.75	win-reward	OutcomeDisplay				
23	292.452		loss-noreward	ImageDisplay1		0.0		
23	294.442	0.75	loss-noreward	StartDisplay				
23	295.194		loss-noreward	ImageDisplay2		0.0		
23	298.454	1.6	loss-noreward	ChoiceDisplay	1	0.729	1	1
23	299.206	0.871	loss-noreward	ChosenDisplay		0.0		
23	300.058	0.25	loss-noreward	TurnDisplay				
23	300.309	0.75	loss-noreward	OutcomeDisplay				
24	301.061		loss-noreward	ImageDisplay1		0.0		
24	303.301	0.75	loss-noreward	StartDisplay				
24	304.054		loss-noreward	ImageDisplay2		0.0		
24	307.063	1.6	loss-noreward	ChoiceDisplay	1	0.797	1	1
24	307.882	0.803	loss-noreward	ChosenDisplay		0.0		
24	308.667	0.25	loss-noreward	TurnDisplay				
24	308.918	0.75	loss-noreward	OutcomeDisplay				
25	309.67		win-reward	ImageDisplay1		0.0		
25	311.66	0.75	win-reward	StartDisplay				
25	312.412		win-reward	ImageDisplay2		0.0		
25	315.672	1.6	win-reward	ChoiceDisplay	1	0.8	1	1
25	316.491	0.8	win-reward	ChosenDisplay		0.0		
25	317.276	0.25	win-reward	TurnDisplay				
25	317.527	0.75	win-reward	OutcomeDisplay				
26	318.279		win-reward	ImageDisplay1		0.0		
26	320.269	0.75	win-reward	StartDisplay				
26	321.021		win-reward	ImageDisplay2		0.0		
26	324.281	1.6	win-reward	ChoiceDisplay	1	1.17	1	1
26	325.468	0.43	win-reward	ChosenDisplay		0.0		
26	325.885	0.25	win-reward	TurnDisplay				
26	326.136	0.75	win-reward	OutcomeDisplay				
27	326.888		win-reward	ImageDisplay1		0.0		
27	328.878	0.75	win-reward	StartDisplay				
27	329.63		win-reward	ImageDisplay2		0.0		
27	332.89	1.6	win-reward	ChoiceDisplay	1	1.028	1	1
27	333.943	0.572	win-reward	ChosenDisplay		0.0		
27	334.494	0.25	win-reward	TurnDisplay				
27	334.745	0.75	win-reward	OutcomeDisplay				
28	335.497		win-noreward	ImageDisplay1		0.0		
28	337.737	0.75	win-noreward	StartDisplay				
28	338.49		win-noreward	ImageDisplay2		0.0		
28	341.499	1.6	win-noreward	ChoiceDisplay	1	0.75	1	1
28	342.268	0.85	win-noreward	ChosenDisplay		0.0		
28	343.104	0.25	win-noreward	TurnDisplay				
28	343.354	0.75	win-noreward	OutcomeDisplay				
29	344.107		win-reward	ImageDisplay1		0.0		
29	346.347	0.75	win-reward	StartDisplay				
29	347.099		win-reward	ImageDisplay2		0.0		
29	350.108	1.6	win-reward	ChoiceDisplay	1	0.967	1	1
29	351.094	0.633	win-reward	ChosenDisplay		0.0		
29	351.712	0.25	win-reward	TurnDisplay				
29	351.963	0.75	win-reward	OutcomeDisplay				
30	352.715		control-reward	ImageDisplay1		0.0		
30	354.705	0.75	control-reward	StartDisplay				
30	355.457		control-reward	ImageDisplay2		0.0		
30	358.717	1.6	control-reward	ChoiceDisplay	1	0.939	1	1
30	359.67	0.661	control-reward	ChosenDisplay		0.0		
30	360.321	0.25	control-reward	TurnDisplay				
30	360.572	0.75	control-reward	OutcomeDisplay				
31	361.324		control-noreward	ImageDisplay1		0.0		
31	363.314	0.75	control-noreward	StartDisplay				
31	364.066		control-noreward	ImageDisplay2		0.0		
31	367.326	1.6	control-noreward	ChoiceDisplay	1	0.954	1	1
31	368.295	0.646	control-noreward	ChosenDisplay		0.0		
31	368.93	0.25	control-noreward	TurnDisplay				
31	369.181	0.75	control-noreward	OutcomeDisplay				
32	369.933		win-noreward	ImageDisplay1		0.0		
32	371.923	0.75	win-noreward	StartDisplay				
32	372.675		win-noreward	ImageDisplay2		0.0		
32	375.935	1.6	win-noreward	ChoiceDisplay	1	1.03	1	1
32	376.988	0.57	win-noreward	ChosenDisplay		0.0		
32	377.539	0.25	win-noreward	TurnDisplay				
32	377.79	0.75	win-noreward	OutcomeDisplay				
33	378.542		win-noreward	ImageDisplay1		0.0		
33	380.532	0.75	win-noreward	StartDisplay				
33	381.284		win-noreward	ImageDisplay2		0.0		
33	384.544	1.6	win-noreward	ChoiceDisplay	1	1.069	1	1
33	385.63	0.531	win-noreward	ChosenDisplay		0.0		
33	386.148	0.25	win-noreward	TurnDisplay				
33	386.399	0.75	win-noreward	OutcomeDisplay				
34	387.151		control-reward	ImageDisplay1		0.0		
34	389.141	0.75	control-reward	StartDisplay				
34	389.893		control-reward	ImageDisplay2		0.0		
34	393.153	1.6	control-reward	ChoiceDisplay	1	1.036	1	1
34	394.206	0.564	control-reward	ChosenDisplay		0.0		
34	394.757	0.25	control-reward	TurnDisplay				
34	395.008	0.75	control-reward	OutcomeDisplay				
35	395.76		win-noreward	ImageDisplay1		0.0		
35	398.0	0.75	win-noreward	StartDisplay				
35	398.753		win-noreward	ImageDisplay2		0.0		
35	401.762	1.6	win-noreward	ChoiceDisplay	1	0.793	1	1
35	402.581	0.807	win-noreward	ChosenDisplay		0.0		
35	403.367	0.25	win-noreward	TurnDisplay				
35	403.617	0.75	win-noreward	OutcomeDisplay				
36	404.369		loss-noreward	ImageDisplay1		0.0		
36	406.359	0.75	loss-noreward	StartDisplay				
36	407.111		loss-noreward	ImageDisplay2		0.0		
36	410.371	1.6	loss-noreward	ChoiceDisplay	1	0.872	1	1
36	411.257	0.728	loss-noreward	ChosenDisplay		0.0		
36	411.975	0.25	loss-noreward	TurnDisplay				
36	412.226	0.75	loss-noreward	OutcomeDisplay				
37	412.978		loss-reward	ImageDisplay1		0.0		
37	414.968	0.75	loss-reward	StartDisplay				
37	415.72		loss-reward	ImageDisplay2		0.0		
37	418.98	1.6	loss-reward	ChoiceDisplay	1	1.064	1	1
37	420.066	0.536	loss-reward	ChosenDisplay		0.0		
37	420.584	0.25	loss-reward	TurnDisplay				
37	420.835	0.75	loss-reward	OutcomeDisplay				
38	421.587		loss-reward	ImageDisplay1		0.0		
38	423.577	0.75	loss-reward	StartDisplay				
38	424.329		loss-reward	ImageDisplay2		0.0		
38	427.589	1.6	loss-reward	ChoiceDisplay	1	1.147	1	1
38	428.759	0.453	loss-reward	ChosenDisplay		0.0		
38	429.193	0.25	loss-reward	TurnDisplay				
38	429.444	0.75	loss-reward	OutcomeDisplay				
39	430.196		loss-reward	ImageDisplay1		0.0		
39	432.436	0.75	loss-reward	StartDisplay				
39	433.189		loss-reward	ImageDisplay2		0.0		
39	436.198	1.6	loss-reward	ChoiceDisplay	1	1.133	1	1
39	437.351	0.467	loss-reward	ChosenDisplay		0.0		
39	437.802	0.25	loss-reward	TurnDisplay				
39	438.053	0.75	loss-reward	OutcomeDisplay				
40	438.805		loss-reward	ImageDisplay1		0.0		
40	441.045	0.75	loss-reward	StartDisplay				
40	441.798		loss-reward	ImageDisplay2		0.0		
40	444.807	1.6	loss-reward	ChoiceDisplay	1	1.295	1	1
40	446.127	0.305	loss-reward	ChosenDisplay		0.0		
40	446.411	0.25	loss-reward	TurnDisplay				
40	446.662	0.75	loss-reward	OutcomeDisplay				
41	447.414		control-noreward	ImageDisplay1		0.0		
41	449.404	0.75	control-noreward	StartDisplay				
41	450.156		control-noreward	ImageDisplay2		0.0		
41	453.416	1.6	control-noreward	ChoiceDisplay	1	1.069	1	1
41	454.502	0.531	control-noreward	ChosenDisplay		0.0		
41	455.02	0.25	control-noreward	TurnDisplay				
41	455.271	0.75	control-noreward	OutcomeDisplay				
42	456.023		control-reward	ImageDisplay1		0.0		
42	458.263	0.75	control-reward	StartDisplay				
42	459.016		control-reward	ImageDisplay2		0.0		
42	462.025	1.6	control-reward	ChoiceDisplay	1	1.033	1	1
42	463.078	0.567	control-reward	ChosenDisplay		0.0		
42	463.629	0.25	control-reward	TurnDisplay				
42	463.88	0.75	control-reward	OutcomeDisplay				
43	464.632		control-noreward	ImageDisplay1		0.0		
43	466.873	0.75	control-noreward	StartDisplay				
43	467.625		control-noreward	ImageDisplay2		0.0		
43	470.634	1.6	control-noreward	ChoiceDisplay	1	0.961	1	1
43	471.62	0.639	control-noreward	ChosenDisplay		0.0		
43	472.239	0.25	control-noreward	TurnDisplay				
43	472.489	0.75	control-noreward	OutcomeDisplay				
44	473.241		win-noreward	ImageDisplay1		0.0		
44	475.481	0.75	win-noreward	StartDisplay				
44	476.234		win-noreward	ImageDisplay2		0.0		
44	479.243	1.6	win-noreward	ChoiceDisplay	1	1.138	1	1
44	480.396	0.462	win-noreward	ChosenDisplay		0.0		
44	480.848	0.25	win-noreward	TurnDisplay				
44	481.098	0.75	win-noreward	OutcomeDisplay				
45	481.85		control-noreward	ImageDisplay1		0.0		
45	484.09	0.75	control-noreward	StartDisplay				
45	484.843		control-noreward	ImageDisplay2		0.0		
45	487.852	1.6	control-noreward	ChoiceDisplay	1	0.742	1	1
45	488.621	0.858	control-noreward	ChosenDisplay		0.0		
45	489.456	0.25	control-noreward	TurnDisplay				
45	489.707	0.75	control-noreward	OutcomeDisplay				
46	490.459		win-noreward	ImageDisplay1		0.0		
46	492.449	0.75	win-noreward	StartDisplay				
46	493.201		win-noreward	ImageDisplay2		0.0		
46	496.461	1.6	win-noreward	ChoiceDisplay	1	0.859	1	1
46	497.347	0.741	win-noreward	ChosenDisplay		0.0		
46	498.065	0.25	win-noreward	TurnDisplay				
46	498.316	0.75	win-noreward	OutcomeDisplay				
47	499.068		control-noreward	ImageDisplay1		0.0		
47	501.058	0.75	control-noreward	StartDisplay				
47	501.81		control-noreward	ImageDisplay2		0.0		
47	505.07	1.6	control-noreward	ChoiceDisplay	1	0.939	1	1
47	506.023	0.661	control-noreward	ChosenDisplay		0.0		
47	506.674	0.25	control-noreward	TurnDisplay				
47	506.925	0.75	control-noreward	OutcomeDisplay				
48	507.677		loss-noreward	ImageDisplay1		0.0		
48	509.917	0.75	loss-noreward	StartDisplay				
48	510.67		loss-noreward	ImageDisplay2		0.0		
48	513.679	1.6	loss-noreward	ChoiceDisplay	1	1.079	1	1
48	514.782	0.521	loss-noreward	ChosenDisplay		0.0		
48	515.283	0.25	loss-noreward	TurnDisplay				
48	515.534	0.75	loss-noreward	OutcomeDisplay				
49	516.286		loss-noreward	ImageDisplay1		0.0		
49	518.276	0.75	loss-noreward	StartDisplay				
49	519.028		loss-noreward	ImageDisplay2		0.0		
49	522.288	1.6	loss-noreward	ChoiceDisplay	1	0.871	1	1
49	523.174	0.729	loss-noreward	ChosenDisplay		0.0		
49	523.892	0.25	loss-noreward	TurnDisplay				
49	524.143	0.75	loss-noreward	OutcomeDisplay				
50	524.895		control-noreward	ImageDisplay1		0.0		
50	527.136	0.75	control-noreward	StartDisplay				
50	527.888		control-noreward	ImageDisplay2		0.0		
50	530.897	1.6	control-noreward	ChoiceDisplay	1	1.12	1	1
50	532.033	0.48	control-noreward	ChosenDisplay		0.0		
50	532.501	0.25	control-noreward	TurnDisplay				
50	532.752	0.75	control-noreward	OutcomeDisplay				
51	533.504		control-reward	ImageDisplay1		0.0		
51	535.494	0.75	control-reward	StartDisplay				
51	536.246		control-reward	ImageDisplay2		0.0		
51	539.506	1.6	control-reward	ChoiceDisplay	1	1.038	1	1
51	540.559	0.562	control-reward	ChosenDisplay		0.0		
51	541.11	0.25	control-reward	TurnDisplay				
51	541.361	0.75	control-reward	OutcomeDisplay				
52	542.113		control-noreward	ImageDisplay1		0.0		
52	544.354	0.75	control-noreward	StartDisplay				
52	545.106		control-noreward	ImageDisplay2		0.0		
52	548.115	1.6	control-noreward	ChoiceDisplay	1	1.259	1	1
52	549.385	0.341	control-noreward	ChosenDisplay		0.0		
52	549.719	0.25	control-noreward	TurnDisplay				
52	549.97	0.75	control-noreward	OutcomeDisplay				
53	550.722		loss-noreward	ImageDisplay1		0.0		
53	552.712	0.75	loss-noreward	StartDisplay				
53	553.464		loss-noreward	ImageDisplay2		0.0		
53	556.724	1.6	loss-noreward	ChoiceDisplay	1	0.839	1	1
53	557.576	0.761	loss-noreward	ChosenDisplay		0.0		
53	558.328	0.25	loss-noreward	TurnDisplay				
53	558.579	0.75	loss-noreward	OutcomeDisplay				
54	559.331		control-noreward	ImageDisplay1		0.0		
54	561.321	0.75	control-noreward	StartDisplay				
54	562.073		control-noreward	ImageDisplay2		0.0		
54	565.333	1.6	control-noreward	ChoiceDisplay	1	1.234	1	1
54	566.586	0.366	control-noreward	ChosenDisplay		0.0		
54	566.937	0.25	control-noreward	TurnDisplay				
54	567.188	0.75	control-noreward	OutcomeDisplay				
55	567.94		control-noreward	ImageDisplay1		0.0		
55	570.18	0.75	control-noreward	StartDisplay				
55	570.933		control-noreward	ImageDisplay2		0.0		
55	573.942	1.6	control-noreward	ChoiceDisplay	1	0.976	1	1
55	574.928	0.624	control-noreward	ChosenDisplay		0.0		
55	575.547	0.25	control-noreward	TurnDisplay				
55	575.797	0.75	control-noreward	OutcomeDisplay				
56	576.549		win-reward	ImageDisplay1		0.0		
56	578.79	0.75	win-reward	StartDisplay				
56	579.542		win-reward	ImageDisplay2		0.0		
56	582.551	1.6	win-reward	ChoiceDisplay	1	1.236	1	1
56	583.804	0.364	win-reward	ChosenDisplay		0.0		
56	584.155	0.25	win-reward	TurnDisplay				
56	584.406	0.75	win-reward	OutcomeDisplay				
57	585.158		win-reward	ImageDisplay1		0.0		
57	587.148	0.75	win-reward	StartDisplay				
57	587.9		win-reward	ImageDisplay2		0.0		
57	591.16	1.6	win-reward	ChoiceDisplay	1	1.383	1	1
57	592.564	0.217	win-reward	ChosenDisplay		0.0		
57	592.764	0.25	win-reward	TurnDisplay				
57	593.015	0.75	win-reward	OutcomeDisplay				
58	593.768		win-noreward	ImageDisplay1		0.0		
58	595.757	0.75	win-noreward	StartDisplay				
58	596.509		win-noreward	ImageDisplay2		0.0		
58	599.769	1.6	win-noreward	ChoiceDisplay	1	1.306	1	1
58	601.089	0.294	win-noreward	ChosenDisplay		0.0		
58	601.373	0.25	win-noreward	TurnDisplay				
58	601.624	0.75	win-noreward	OutcomeDisplay				
59	602.376		win-noreward	ImageDisplay1		0.0		
59	604.616	0.75	win-noreward	StartDisplay				
59	605.369		win-noreward	ImageDisplay2		0.0		
59	608.378	1.6	win-noreward	ChoiceDisplay	1	1.285	1	1
59	609.682	0.315	win-noreward	ChosenDisplay		0.0		
59	609.982	0.25	win-noreward	TurnDisplay				
59	610.233	0.75	win-noreward	OutcomeDisplay				
60	610.985		loss-reward	ImageDisplay1		0.0		
60	613.225	0.75	loss-reward	StartDisplay				
60	613.978		loss-reward	ImageDisplay2		0.0		
60	616.987	1.6	loss-reward	ChoiceDisplay	1	1.211	1	1
60	618.224	0.389	loss-reward	ChosenDisplay		0.0		
60	618.591	0.25	loss-reward	TurnDisplay				
60	618.842	0.75	loss-reward	OutcomeDisplay				
61	619.594		control-reward	ImageDisplay1		0.0		
61	621.584	0.75	control-reward	StartDisplay				
61	622.336		control-reward	ImageDisplay2		0.0		
61	625.596	1.6	control-reward	ChoiceDisplay	1	0.594	1	1
61	626.214	1.006	control-reward	ChosenDisplay		0.0		
61	627.2	0.25	control-reward	TurnDisplay				
61	627.451	0.75	control-reward	OutcomeDisplay				
62	628.203		loss-reward	ImageDisplay1		0.0		
62	630.193	0.75	loss-reward	StartDisplay				
62	630.945		loss-reward	ImageDisplay2		0.0		
62	634.205	1.6	loss-reward	ChoiceDisplay	1	0.729	1	1
62	634.957	0.871	loss-reward	ChosenDisplay		0.0		
62	635.809	0.25	loss-reward	TurnDisplay				
62	636.06	0.75	loss-reward	OutcomeDisplay				
63	636.812		control-noreward	ImageDisplay1		0.0		
63	639.052	0.75	control-noreward	StartDisplay				
63	639.805		control-noreward	ImageDisplay2		0.0		
63	642.814	1.6	control-noreward	ChoiceDisplay	1	1.188	1	1
63	644.017	0.412	control-noreward	ChosenDisplay		0.0		
63	644.418	0.25	control-noreward	TurnDisplay				
63	644.669	0.75	control-noreward	OutcomeDisplay				
64	645.421		win-noreward	ImageDisplay1		0.0		
64	647.661	0.75	win-noreward	StartDisplay				
64	648.414		win-noreward	ImageDisplay2		0.0		
64	651.423	1.6	win-noreward	ChoiceDisplay	1	1.288	1	1
64	652.727	0.312	win-noreward	ChosenDisplay		0.0		
64	653.027	0.25	win-noreward	TurnDisplay				
64	653.278	0.75	win-noreward	OutcomeDisplay				
65	654.03		win-reward	ImageDisplay1		0.0		
65	656.02	0.75	win-reward	StartDisplay				
65	656.772		win-reward	ImageDisplay2		0.0		
65	660.032	1.6	win-reward	ChoiceDisplay	1	1.172	1	1
65	661.219	0.428	win-reward	ChosenDisplay		0.0		
65	661.636	0.25	win-reward	TurnDisplay				
65	661.887	0.75	win-reward	OutcomeDisplay				
66	662.639		loss-reward	ImageDisplay1		0.0		
66	664.629	0.75	loss-reward	StartDisplay				
66	665.381		loss-reward	ImageDisplay2		0.0		
66	668.641	1.6	loss-reward	ChoiceDisplay	1	1.08	1	1
66	669.744	0.52	loss-reward	ChosenDisplay		0.0		
66	670.246	0.25	loss-reward	TurnDisplay				
66	670.496	0.75	loss-reward	OutcomeDisplay				
67	671.249		win-reward	ImageDisplay1		0.0		
67	673.238	0.75	win-reward	StartDisplay				
67	673.99		win-reward	ImageDisplay2		0.0		
67	677.25	1.6	win-reward	ChoiceDisplay	1	1.517	1	1
67	678.788	0.0	win-reward	ChosenDisplay		0.0		
67	678.854	0.25	win-reward	TurnDisplay				
67	679.022	0.75	win-reward	OutcomeDisplay				
68	679.774		control-reward	ImageDisplay1		0.0		
68	681.78	0.75	control-reward	StartDisplay				
68	682.515		control-reward	ImageDisplay2		0.0		
68	685.775	1.6	control-reward	ChoiceDisplay	1	1.232	1	1
68	687.029	0.368	control-reward	ChosenDisplay		0.0		
68	687.38	0.25	control-reward	TurnDisplay				
68	687.631	0.75	control-reward	OutcomeDisplay				
69	688.383		control-noreward	ImageDisplay1		0.0		
69	690.372	0.75	control-noreward	StartDisplay				
69	691.124		control-noreward	ImageDisplay2		0.0		
69	694.384	1.6	control-noreward	ChoiceDisplay	1	1.216	1	1
69	695.621	0.384	control-noreward	ChosenDisplay		0.0		
69	695.989	0.25	control-noreward	TurnDisplay				
69	696.24	0.75	control-noreward	OutcomeDisplay				
70	696.992		control-reward	ImageDisplay1		0.0		
70	699.232	0.75	control-reward	StartDisplay				
70	699.984		control-reward	ImageDisplay2		0.0		
70	702.993	1.6	control-reward	ChoiceDisplay	1	1.257	1	1
70	704.264	0.343	control-reward	ChosenDisplay		0.0		
70	704.598	0.25	control-reward	TurnDisplay				
70	704.849	0.75	control-reward	OutcomeDisplay				
71	705.601		control-reward	ImageDisplay1		0.0		
71	707.841	0.75	control-reward	StartDisplay				
71	708.593		control-reward	ImageDisplay2		0.0		
71	711.602	1.6	control-reward	ChoiceDisplay	1	1.072	1	1
71	712.689	0.528	control-reward	ChosenDisplay		0.0		
71	713.207	0.25	control-reward	TurnDisplay				
71	713.458	0.75	control-reward	OutcomeDisplay				
72	714.21		loss-reward	ImageDisplay1		0.0		
72	716.45	0.75	loss-reward	StartDisplay				
72	717.202		loss-reward	ImageDisplay2		0.0		
72	720.211	1.6	loss-reward	ChoiceDisplay	1	0.991	1	1
72	721.214	0.609	loss-reward	ChosenDisplay		0.0		
72	721.816	0.25	loss-reward	TurnDisplay				
72	722.067	0.75	loss-reward	OutcomeDisplay				
73	722.819		control-reward	ImageDisplay1		0.0		
73	724.808	0.75	control-reward	StartDisplay				
73	725.56		control-reward	ImageDisplay2		0.0		
73	728.82	1.6	control-reward	ChoiceDisplay	1	1.541	1	1
73	730.375	0.0	control-reward	ChosenDisplay		0.0		
73	730.425	0.25	control-reward	TurnDisplay				
73	730.609	0.75	control-reward	OutcomeDisplay				
74	731.361		loss-noreward	ImageDisplay1		0.0		
74	733.618	0.75	loss-noreward	StartDisplay				
74	734.37		loss-noreward	ImageDisplay2		0.0		
74	737.362	1.6	loss-noreward	ChoiceDisplay	1	1.102	1	1
74	738.482	0.498	loss-noreward	ChosenDisplay		0.0		
74	738.967	0.25	loss-noreward	TurnDisplay				
74	739.218	0.75	loss-noreward	OutcomeDisplay				
75	739.97		loss-reward	ImageDisplay1		0.0		
75	742.21	0.75	loss-reward	StartDisplay				
75	742.962		loss-reward	ImageDisplay2		0.0		
75	745.971	1.6	loss-reward	ChoiceDisplay	1	0.962	1	1
75	746.958	0.638	loss-reward	ChosenDisplay		0.0		
75	747.576	0.25	loss-reward	TurnDisplay				
75	747.827	0.75	loss-reward	OutcomeDisplay				
76	748.579		loss-noreward	ImageDisplay1		0.0		
76	750.568	0.75	loss-noreward	StartDisplay				
76	751.321		loss-noreward	ImageDisplay2		0.0		
76	754.58	1.6	loss-noreward	ChoiceDisplay	1	1.185	1	1
76	755.784	0.415	loss-noreward	ChosenDisplay		0.0		
76	756.185	0.25	loss-noreward	TurnDisplay				
76	756.436	0.75	loss-noreward	OutcomeDisplay				
77	757.188		control-noreward	ImageDisplay1		0.0		
77	759.177	0.75	control-noreward	StartDisplay				
77	759.93		control-noreward	ImageDisplay2		0.0		
77	763.189	1.6	control-noreward	ChoiceDisplay	1	0.972	1	1
77	764.176	0.628	control-noreward	ChosenDisplay		0.0		
77	764.794	0.25	control-noreward	TurnDisplay				
77	765.045	0.75	control-noreward	OutcomeDisplay				
78	765.797		win-reward	ImageDisplay1		0.0		
78	767.786	0.75	win-reward	StartDisplay				
78	768.539		win-reward	ImageDisplay2		0.0		
78	771.798	1.6	win-reward	ChoiceDisplay	1	1.15	1	1
78	772.968	0.45	win-reward	ChosenDisplay		0.0		
78	773.403	0.25	win-reward	TurnDisplay				
78	773.654	0.75	win-reward	OutcomeDisplay				
79	774.406		win-noreward	ImageDisplay1		0.0		
79	776.395	0.75	win-noreward	StartDisplay				
79	777.148		win-noreward	ImageDisplay2		0.0		
79	780.407	1.6	win-noreward	ChoiceDisplay	1	1.23	1	1
79	781.661	0.37	win-noreward	ChosenDisplay		0.0		
79	782.012	0.25	win-noreward	TurnDisplay				
79	782.263	0.75	win-noreward	OutcomeDisplay				
80	783.015		control-noreward	ImageDisplay1		0.0		
80	785.255	0.75	control-noreward	StartDisplay				
80	786.007		control-noreward	ImageDisplay2		0.0		
80	789.016	1.6	control-noreward	ChoiceDisplay	1	0.992	1	1
80	790.019	0.608	control-noreward	ChosenDisplay		0.0		
80	790.621	0.25	control-noreward	TurnDisplay				
80	790.872	0.75	control-noreward	OutcomeDisplay				
81	791.624		loss-reward	ImageDisplay1		0.0		
81	793.613	0.75	loss-reward	StartDisplay				
81	794.366		loss-reward	ImageDisplay2		0.0		
81	797.625	1.6	loss-reward	ChoiceDisplay	1	0.792	1	1
81	798.428	0.808	loss-reward	ChosenDisplay		0.0		
81	799.23	0.25	loss-reward	TurnDisplay				
81	799.481	0.75	loss-reward	OutcomeDisplay				
82	800.233		win-reward	ImageDisplay1		0.0		
82	802.473	0.75	win-reward	StartDisplay				
82	803.225		win-reward	ImageDisplay2		0.0		
82	806.234	1.6	win-reward	ChoiceDisplay	1	0.962	1	1
82	807.221	0.638	win-reward	ChosenDisplay		0.0		
82	807.839	0.25	win-reward	TurnDisplay				
82	808.09	0.75	win-reward	OutcomeDisplay				
83	808.842		loss-reward	ImageDisplay1		0.0		
83	810.831	0.75	loss-reward	StartDisplay				
83	811.584		loss-reward	ImageDisplay2		0.0		
83	814.843	1.6	loss-reward	ChoiceDisplay	1	0.932	1	1
83	815.796	0.668	loss-reward	ChosenDisplay		0.0		
83	816.448	0.25	loss-reward	TurnDisplay				
83	816.699	0.75	loss-reward	OutcomeDisplay				
84	817.451		control-reward	ImageDisplay1		0.0		
84	819.691	0.75	control-reward	StartDisplay				
84	820.443		control-reward	ImageDisplay2		0.0		
84	823.452	1.6	control-reward	ChoiceDisplay	1	1.11	1	1
84	824.572	0.49	control-reward	ChosenDisplay		0.0		
84	825.057	0.25	control-reward	TurnDisplay				
84	825.308	0.75	control-reward	OutcomeDisplay				
85	826.06		loss-reward	ImageDisplay1		0.0		
85	828.3	0.75	loss-reward	StartDisplay				
85	829.052		loss-reward	ImageDisplay2		0.0		
85	832.061	1.6	loss-reward	ChoiceDisplay	1	1.008	1	1
85	833.081	0.592	loss-reward	ChosenDisplay		0.0		
85	833.666	0.25	loss-reward	TurnDisplay				
85	833.917	0.75	loss-reward	OutcomeDisplay				
86	834.669		loss-noreward	ImageDisplay1		0.0		
86	836.658	0.75	loss-noreward	StartDisplay				
86	837.411		loss-noreward	ImageDisplay2		0.0		
86	840.67	1.6	loss-noreward	ChoiceDisplay	1	1.008	1	1
86	841.69	0.592	loss-noreward	ChosenDisplay		0.0		
86	842.275	0.25	loss-noreward	TurnDisplay				
86	842.526	0.75	loss-noreward	OutcomeDisplay				
87	843.278		win-reward	ImageDisplay1		0.0		
87	845.267	0.75	win-reward	StartDisplay				
87	846.02		win-reward	ImageDisplay2		0.0		
87	849.279	1.6	win-reward	ChoiceDisplay	1	1.156	1	1
87	850.449	0.444	win-reward	ChosenDisplay		0.0		
87	850.884	0.25	win-reward	TurnDisplay				
87	851.135	0.75	win-reward	OutcomeDisplay				
88	851.887		win-reward	ImageDisplay1		0.0		
88	854.127	0.75	win-reward	StartDisplay				
88	854.879		win-reward	ImageDisplay2		0.0		
88	857.888	1.6	win-reward	ChoiceDisplay	1	1.137	1	1
88	859.042	0.463	win-reward	ChosenDisplay		0.0		
88	859.493	0.25	win-reward	TurnDisplay				
88	859.744	0.75	win-reward	OutcomeDisplay				
89	860.496		loss-reward	ImageDisplay1		0.0		
89	862.485	0.75	loss-reward	StartDisplay				
89	863.238		loss-reward	ImageDisplay2		0.0		
89	866.497	1.6	loss-reward	ChoiceDisplay	1	1.166	1	1
89	867.684	0.434	loss-reward	ChosenDisplay		0.0		
89	868.102	0.25	loss-reward	TurnDisplay				
89	868.353	0.75	loss-reward	OutcomeDisplay				
90	869.105		win-reward	ImageDisplay1		0.0		
90	871.345	0.75	win-reward	StartDisplay				
90	872.097		win-reward	ImageDisplay2		0.0		
90	875.106	1.6	win-reward	ChoiceDisplay	1	1.168	1	1
90	876.293	0.432	win-reward	ChosenDisplay		0.0		
90	876.711	0.25	win-reward	TurnDisplay				
90	876.962	0.75	win-reward	OutcomeDisplay				
91	877.714		control-reward	ImageDisplay1		0.0		
91	879.954	0.75	control-reward	StartDisplay				
91	880.706		control-reward	ImageDisplay2		0.0		
91	883.715	1.6	control-reward	ChoiceDisplay	1	1.152	1	1
91	884.885	0.448	control-reward	ChosenDisplay		0.0		
91	885.32	0.25	control-reward	TurnDisplay				
91	885.571	0.75	control-reward	OutcomeDisplay				
92	886.323		win-noreward	ImageDisplay1		0.0		
92	888.312	0.75	win-noreward	StartDisplay				
92	889.065		win-noreward	ImageDisplay2		0.0		
92	892.324	1.6	win-noreward	ChoiceDisplay	1	1.163	1	1
92	893.511	0.437	win-noreward	ChosenDisplay		0.0		
92	893.929	0.25	win-noreward	TurnDisplay				
92	894.18	0.75	win-noreward	OutcomeDisplay				
93	894.932		control-noreward	ImageDisplay1		0.0		
93	897.172	0.75	control-noreward	StartDisplay				
93	897.924		control-noreward	ImageDisplay2		0.0		
93	900.933	1.6	control-noreward	ChoiceDisplay	1	0.904	1	1
93	901.853	0.696	control-noreward	ChosenDisplay		0.0		
93	902.538	0.25	control-noreward	TurnDisplay				
93	902.789	0.75	control-noreward	OutcomeDisplay				
94	903.541		loss-noreward	ImageDisplay1		0.0		
94	905.781	0.75	loss-noreward	StartDisplay				
94	906.533		loss-noreward	ImageDisplay2		0.0		
94	909.542	1.6	loss-noreward	ChoiceDisplay	1	1.142	1	1
94	910.696	0.458	loss-noreward	ChosenDisplay		0.0		
94	911.147	0.25	loss-noreward	TurnDisplay				
94	911.398	0.75	loss-noreward	OutcomeDisplay				
95	912.15		win-noreward	ImageDisplay1		0.0		
95	914.139	0.75	win-noreward	StartDisplay				
95	914.892		win-noreward	ImageDisplay2		0.0		
95	918.151	1.6	win-noreward	ChoiceDisplay	1	1.068	1	1
95	919.238	0.532	win-noreward	ChosenDisplay		0.0		
95	919.756	0.25	win-noreward	TurnDisplay				
95	920.007	0.75	win-noreward	OutcomeDisplay				
