onset	duration	trial_type	response_time	stim_file	accuracy
70.265	1.0	go	0.773	Go_X	1.0
72.856	1.0	go	0.248	Go_O	1.0
75.38	1.0	go	0.306	Go_X	1.0
77.905	1.0	go	0.264	Go_O	1.0
80.429	1.0	go	0.447	Go_O	1.0
82.953	1.0	go	0.3	Go_X	1.0
85.477	0.25	stopfail	0.27	Go_O	0.0
88.001	1.0	go	0.352	Go_O	1.0
90.526	0.2	stopfail	0.295	Go_X	0.0
93.05	1.0	go	0.281	Go_X	1.0
95.574	1.0	go	0.153	Go_X	0.0
98.098	1.0	go	0.259	Go_O	1.0
100.622	0.15	stopsuccess	0.0	Go_O	1.0
103.147	1.0	go	0.355	Go_X	1.0
105.671	1.0	go	0.403	Go_O	1.0
108.195	0.2	stopsuccess	0.0	Go_X	1.0
110.719	0.25	stopfail	0.259	Go_O	0.0
113.243	1.0	go	0.384	Go_X	0.0
115.767	1.0	go	0.329	Go_O	1.0
118.292	0.2	stopfail	0.293	Go_X	0.0
120.816	1.0	go	0.366	Go_X	1.0
123.34	1.0	go	0.285	Go_O	1.0
125.864	0.15	stopsuccess	0.0	Go_O	1.0
128.388	1.0	go	0.388	Go_X	1.0
130.913	1.0	go	0.395	Go_O	1.0
133.437	0.2	stopsuccess	0.0	Go_X	1.0
135.961	1.0	go	0.347	Go_O	1.0
138.485	1.0	go	0.308	Go_X	1.0
141.009	0.25	stopfail	0.272	Go_O	0.0
143.534	1.0	go	0.498	Go_X	1.0
146.058	1.0	go	0.316	Go_O	1.0
148.582	1.0	go	0.401	Go_X	1.0
151.106	1.0	go	0.366	Go_O	1.0
153.63	1.0	go	0.328	Go_O	1.0
156.155	0.2	stopsuccess	0.0	Go_X	1.0
158.679	1.0	go	0.345	Go_X	1.0
161.203	1.0	go	0.372	Go_O	1.0
163.727	1.0	go	0.365	Go_X	1.0
166.251	1.0	go	0.383	Go_X	1.0
168.776	1.0	go	0.383	Go_O	1.0
171.3	0.25	stopfail	0.296	Go_O	0.0
173.824	1.0	go	0.297	Go_O	1.0
176.348	1.0	go	0.283	Go_X	1.0
178.872	1.0	go	0.329	Go_X	1.0
181.396	1.0	go	0.385	Go_O	1.0
183.921	1.0	go	0.326	Go_X	1.0
186.445	1.0	go	0.267	Go_O	0.0
188.969	0.2	stopsuccess	0.0	Go_X	1.0
191.493	1.0	go	0.523	Go_X	1.0
194.017	1.0	go	0.304	Go_O	1.0
196.542	0.25	stopfail	0.304	Go_O	0.0
199.066	1.0	go	0.301	Go_O	1.0
201.59	0.2	stopsuccess	0.0	Go_X	1.0
204.114	0.25	stopsuccess	0.0	Go_O	1.0
206.638	1.0	go	0.425	Go_X	1.0
209.163	1.0	go	0.292	Go_O	1.0
211.687	1.0	go	0.286	Go_X	0.0
214.211	1.0	go	0.327	Go_X	1.0
216.735	0.3	stopfail	0.396	Go_X	0.0
219.259	1.0	go	0.403	Go_O	1.0
221.784	0.25	stopfail	0.38	Go_O	0.0
224.308	1.0	go	0.4	Go_X	1.0
226.832	1.0	go	0.295	Go_O	1.0
229.356	1.0	go	0.394	Go_O	1.0
231.88	1.0	go	0.353	Go_X	1.0
234.405	1.0	go	0.494	Go_O	1.0
236.929	1.0	go	0.47	Go_X	1.0
239.453	1.0	go	0.563	Go_X	1.0
241.977	1.0	go	0.413	Go_O	1.0
244.501	1.0	go	0.358	Go_X	1.0
247.025	0.2	stopsuccess	0.0	Go_X	1.0
249.55	1.0	go	0.341	Go_O	1.0
252.074	1.0	go	0.372	Go_O	1.0
254.598	1.0	go	0.294	Go_X	1.0
257.122	0.25	stopfail	0.306	Go_O	0.0
259.646	1.0	go	0.503	Go_X	1.0
262.171	1.0	go	0.32	Go_O	1.0
264.695	1.0	go	0.429	Go_O	1.0
267.219	1.0	go	0.509	Go_X	1.0
269.743	1.0	go	0.294	Go_O	1.0
272.267	1.0	go	0.351	Go_X	1.0
274.792	0.2	stopfail	0.403	Go_X	0.0
277.316	1.0	go	0.375	Go_X	1.0
279.84	1.0	go	0.346	Go_O	1.0
282.364	0.15	stopsuccess	0.0	Go_O	1.0
284.888	1.0	go	0.403	Go_X	1.0
287.413	1.0	go	0.34	Go_O	1.0
289.937	0.2	stopfail	0.394	Go_X	0.0
292.461	1.0	go	0.371	Go_O	1.0
294.985	0.15	stopfail	0.297	Go_O	0.0
297.509	1.0	go	0.457	Go_X	1.0
300.034	1.0	go	0.503	Go_O	1.0
302.558	1.0	go	0.313	Go_X	1.0
305.082	1.0	go	0.443	Go_X	1.0
307.606	1.0	go	0.276	Go_O	1.0
310.13	0.1	stopsuccess	0.0	Go_X	1.0
312.654	0.15	stopsuccess	0.0	Go_O	1.0
315.179	1.0	go	0.378	Go_O	1.0
317.703	1.0	go	0.231	Go_X	1.0
320.227	0.2	stopsuccess	0.0	Go_X	1.0
322.751	1.0	go	0.343	Go_X	1.0
325.275	1.0	go	0.298	Go_O	1.0
327.8	1.0	go	0.439	Go_X	1.0
330.324	1.0	go	0.331	Go_O	1.0
332.848	1.0	go	0.347	Go_X	1.0
335.372	1.0	go	0.286	Go_O	1.0
337.896	0.25	stopfail	0.337	Go_O	0.0
340.421	1.0	go	0.444	Go_O	1.0
342.945	1.0	go	0.333	Go_X	1.0
345.469	1.0	go	0.292	Go_X	1.0
347.993	1.0	go	0.414	Go_O	1.0
350.517	1.0	go	0.509	Go_X	1.0
353.042	0.2	stopfail	0.361	Go_X	0.0
355.566	1.0	go	0.353	Go_O	1.0
358.09	1.0	go	0.358	Go_X	1.0
360.614	1.0	go	0.56	Go_O	1.0
363.138	1.0	go	0.301	Go_O	1.0
365.663	0.15	stopfail	0.287	Go_O	0.0
368.187	1.0	go	0.337	Go_X	1.0
370.711	1.0	go	0.305	Go_X	1.0
373.235	0.1	stopsuccess	0.0	Go_X	1.0
375.759	1.0	go	0.369	Go_O	1.0
378.283	0.15	stopsuccess	0.0	Go_O	1.0
380.808	1.0	go	0.401	Go_X	1.0
383.332	1.0	go	0.309	Go_O	1.0
385.856	1.0	go	0.319	Go_X	1.0
388.38	1.0	go	0.26	Go_O	1.0
390.904	1.0	go	0.351	Go_O	1.0
393.429	1.0	go	0.329	Go_X	1.0
395.953	1.0	go	0.266	Go_O	1.0
398.477	0.2	stopfail	0.403	Go_X	0.0
401.001	1.0	go	0.326	Go_X	1.0
403.525	1.0	go	0.373	Go_O	1.0
406.05	1.0	go	0.407	Go_X	1.0
408.574	0.15	stopsuccess	0.0	Go_O	1.0
411.098	1.0	go	0.0	Go_X	0.0
413.622	1.0	go	0.484	Go_O	1.0
416.146	1.0	go	0.412	Go_O	1.0
418.671	1.0	go	0.27	Go_X	1.0
421.195	0.2	stopsuccess	0.0	Go_X	1.0
423.719	1.0	go	0.315	Go_O	1.0
426.243	1.0	go	0.367	Go_X	1.0
428.767	0.25	stopfail	0.324	Go_O	0.0
431.292	1.0	go	0.321	Go_X	1.0
433.816	1.0	go	0.252	Go_O	1.0
436.34	0.2	stopsuccess	0.0	Go_X	1.0
438.864	1.0	go	0.362	Go_O	1.0
441.388	1.0	go	0.256	Go_X	0.0
443.912	0.25	stopfail	0.307	Go_O	0.0
446.437	1.0	go	0.51	Go_O	1.0
448.961	1.0	go	0.332	Go_X	1.0
451.485	1.0	go	0.339	Go_X	1.0
454.009	1.0	go	0.301	Go_O	1.0
456.533	1.0	go	0.378	Go_X	1.0
459.058	1.0	go	0.321	Go_O	1.0
461.582	0.2	stopfail	0.335	Go_X	0.0
464.106	1.0	go	0.422	Go_X	1.0
466.63	0.15	stopsuccess	0.0	Go_O	1.0
469.154	1.0	go	0.664	Go_O	1.0
471.679	1.0	go	0.318	Go_X	1.0
474.203	1.0	go	0.31	Go_O	1.0
476.727	1.0	go	0.406	Go_O	1.0
479.251	1.0	go	0.34	Go_X	1.0
481.775	0.2	stopfail	0.352	Go_X	0.0
484.3	1.0	go	0.336	Go_O	1.0
486.824	1.0	go	0.291	Go_X	1.0
489.348	1.0	go	0.286	Go_X	0.0
491.872	0.15	stopfail	0.311	Go_O	0.0
494.396	0.1	stopsuccess	0.0	Go_X	1.0
496.921	0.15	stopsuccess	0.0	Go_O	1.0
499.445	1.0	go	0.449	Go_O	1.0
501.969	0.2	stopfail	0.327	Go_X	0.0
504.493	1.0	go	0.294	Go_X	1.0
507.017	1.0	go	0.317	Go_O	1.0
509.541	1.0	go	0.336	Go_X	1.0
512.066	1.0	go	0.298	Go_O	1.0
514.59	1.0	go	0.428	Go_O	1.0
517.114	1.0	go	0.334	Go_X	1.0
519.638	1.0	go	0.34	Go_O	1.0
522.162	1.0	go	0.361	Go_X	1.0
524.687	0.15	stopsuccess	0.0	Go_O	1.0
527.211	1.0	go	0.366	Go_X	1.0
529.735	1.0	go	0.252	Go_O	1.0
532.259	0.2	stopfail	0.249	Go_X	0.0
534.783	1.0	go	0.251	Go_O	1.0
537.308	1.0	go	0.354	Go_X	1.0
539.832	1.0	go	0.426	Go_X	1.0
542.356	1.0	go	0.338	Go_O	1.0
544.88	1.0	go	0.308	Go_X	1.0
547.404	0.15	stopfail	0.226	Go_O	0.0
549.929	1.0	go	0.356	Go_O	1.0
552.453	1.0	go	0.443	Go_O	1.0
554.977	1.0	go	0.379	Go_X	1.0
557.501	0.1	stopsuccess	0.0	Go_X	1.0
560.025	1.0	go	0.368	Go_O	1.0
562.55	0.15	stopfail	0.336	Go_O	0.0
565.074	1.0	go	0.457	Go_X	1.0
567.598	1.0	go	0.533	Go_O	1.0
570.122	1.0	go	0.329	Go_X	1.0
572.646	1.0	go	0.309	Go_O	1.0
575.17	1.0	go	0.459	Go_X	1.0
577.695	1.0	go	0.468	Go_X	1.0
580.219	1.0	go	0.359	Go_O	1.0
582.743	0.1	stopsuccess	0.0	Go_X	1.0
585.267	1.0	go	0.351	Go_O	1.0
587.791	1.0	go	0.394	Go_X	1.0
590.316	1.0	go	0.355	Go_X	1.0
592.84	1.0	go	0.269	Go_O	1.0
595.364	0.15	stopsuccess	0.0	Go_O	1.0
597.888	1.0	go	0.441	Go_X	1.0
600.412	0.2	stopsuccess	0.0	Go_X	1.0
602.937	1.0	go	0.365	Go_O	1.0
605.461	1.0	go	0.334	Go_X	1.0
607.985	0.25	stopfail	0.346	Go_O	0.0
610.509	1.0	go	0.324	Go_O	1.0
613.033	1.0	go	0.476	Go_O	1.0
615.558	1.0	go	0.43	Go_X	1.0
618.082	1.0	go	0.371	Go_X	1.0
620.606	1.0	go	0.504	Go_O	1.0
623.13	1.0	go	0.33	Go_X	1.0
625.654	1.0	go	0.227	Go_O	1.0
628.178	1.0	go	0.328	Go_O	1.0
630.703	1.0	go	0.39	Go_X	1.0
633.227	1.0	go	0.478	Go_X	1.0
635.751	0.2	stopsuccess	0.0	Go_X	1.0
638.275	1.0	go	0.358	Go_O	1.0
640.799	1.0	go	0.562	Go_O	1.0
643.324	0.25	stopsuccess	0.0	Go_O	1.0
645.848	1.0	go	0.298	Go_X	1.0
648.372	0.3	stopfail	0.361	Go_X	0.0
650.896	1.0	go	0.369	Go_X	1.0
653.42	1.0	go	0.344	Go_O	1.0
655.945	0.25	stopfail	0.308	Go_O	0.0
658.469	1.0	go	0.35	Go_O	1.0
660.993	0.2	stopsuccess	0.0	Go_X	1.0
663.517	1.0	go	0.518	Go_X	1.0
666.041	1.0	go	0.202	Go_O	1.0
668.566	1.0	go	0.374	Go_X	1.0
671.09	0.25	stopfail	0.327	Go_O	0.0
673.614	1.0	go	0.427	Go_X	1.0
676.138	1.0	go	0.504	Go_O	1.0
678.662	1.0	go	0.493	Go_X	1.0
681.187	1.0	go	0.302	Go_O	1.0
683.711	0.2	stopsuccess	0.0	Go_X	1.0
686.235	1.0	go	0.298	Go_X	1.0
688.759	1.0	go	0.279	Go_O	1.0
691.283	0.25	stopfail	0.249	Go_O	0.0
693.807	1.0	go	0.398	Go_X	1.0
696.332	1.0	go	0.35	Go_O	1.0
698.856	1.0	go	0.354	Go_O	1.0
701.38	1.0	go	0.314	Go_X	1.0
703.904	0.2	stopfail	0.247	Go_X	0.0
706.428	1.0	go	0.363	Go_X	1.0
708.953	0.15	stopsuccess	0.0	Go_O	1.0
711.477	1.0	go	0.264	Go_O	1.0
714.001	1.0	go	0.253	Go_X	1.0
716.525	0.2	stopfail	0.388	Go_X	0.0
719.049	1.0	go	0.353	Go_O	1.0
721.574	1.0	go	0.342	Go_X	1.0
724.098	1.0	go	0.344	Go_O	1.0
726.622	1.0	go	0.313	Go_X	1.0
729.146	0.15	stopsuccess	0.0	Go_O	1.0
731.67	1.0	go	0.53	Go_O	1.0
734.195	0.2	stopfail	0.358	Go_X	0.0
736.719	1.0	go	0.5	Go_X	1.0
739.243	1.0	go	0.247	Go_O	1.0
741.767	1.0	go	0.407	Go_O	1.0
744.291	1.0	go	0.542	Go_X	1.0
746.816	1.0	go	0.508	Go_O	1.0
749.34	1.0	go	0.278	Go_X	1.0
751.864	0.15	stopfail	0.313	Go_O	0.0
754.388	1.0	go	0.373	Go_O	1.0
756.912	1.0	go	0.337	Go_X	1.0
759.437	0.1	stopsuccess	0.0	Go_X	1.0
761.961	1.0	go	0.344	Go_O	1.0
764.485	1.0	go	0.303	Go_X	1.0
767.009	0.15	stopfail	0.335	Go_O	0.0
769.533	1.0	go	0.372	Go_O	1.0
772.057	1.0	go	0.401	Go_X	1.0
774.582	1.0	go	0.312	Go_O	1.0
777.106	1.0	go	0.237	Go_X	1.0
779.63	0.1	stopsuccess	0.0	Go_X	1.0
782.154	1.0	go	0.634	Go_X	1.0
784.678	0.15	stopfail	0.249	Go_O	0.0
787.203	1.0	go	0.41	Go_O	1.0
789.727	1.0	go	0.44	Go_O	1.0
792.251	1.0	go	0.358	Go_X	1.0
794.775	1.0	go	0.249	Go_O	1.0
797.299	1.0	go	0.354	Go_X	1.0
799.824	0.1	stopsuccess	0.0	Go_X	1.0
802.348	1.0	go	0.347	Go_O	1.0
804.872	1.0	go	0.369	Go_X	1.0
807.396	0.15	stopfail	0.315	Go_O	0.0
809.92	0.1	stopsuccess	0.0	Go_X	1.0
812.445	1.0	go	0.538	Go_O	1.0
814.969	1.0	go	0.424	Go_X	1.0
817.493	1.0	go	0.556	Go_O	1.0
820.017	1.0	go	0.421	Go_X	1.0
822.541	0.15	stopfail	0.325	Go_O	0.0
825.065	1.0	go	0.601	Go_X	1.0
