onset	duration	trial_type	response_time	stim_file	accuracy
61.827	1.0	go	0.794	Go_O	1.0
64.351	1.0	go	0.406	Go_X	1.0
66.892	1.0	go	0.488	Go_X	1.0
69.433	1.0	go	0.569	Go_O	1.0
71.974	1.0	go	0.683	Go_O	1.0
74.514	1.0	go	0.629	Go_X	1.0
77.055	0.25	stop	0.0	Go_O	1.0
79.596	1.0	go	0.46	Go_X	1.0
82.121	0.3	stop	0.413	Go_X	0.0
84.661	1.0	go	0.483	Go_O	1.0
87.186	1.0	go	0.625	Go_X	1.0
89.727	1.0	go	0.53	Go_O	1.0
92.268	0.25	stop	0.0	Go_O	1.0
94.808	1.0	go	0.525	Go_O	1.0
97.333	1.0	go	0.541	Go_X	1.0
99.874	0.3	stop	0.0	Go_X	1.0
102.415	0.35	stop	0.435	Go_O	0.0
104.955	1.0	go	0.495	Go_X	1.0
107.496	1.0	go	0.573	Go_O	1.0
110.021	0.3	stop	0.0	Go_X	1.0
112.562	1.0	go	0.459	Go_X	1.0
115.102	1.0	go	0.395	Go_O	1.0
117.627	0.35	stop	0.485	Go_O	0.0
120.168	1.0	go	0.436	Go_O	1.0
122.709	1.0	go	0.431	Go_X	1.0
125.249	0.3	stop	0.0	Go_X	1.0
127.79	1.0	go	0.864	Go_O	1.0
130.315	1.0	go	0.619	Go_X	1.0
132.856	0.35	stop	0.0	Go_O	1.0
135.396	1.0	go	0.458	Go_X	1.0
137.937	1.0	go	0.592	Go_O	1.0
140.462	1.0	go	0.571	Go_O	1.0
143.003	1.0	go	0.603	Go_X	1.0
145.544	1.0	go	0.643	Go_X	1.0
148.068	0.4	stop	0.444	Go_X	0.0
150.609	1.0	go	0.506	Go_O	1.0
153.15	1.0	go	0.505	Go_O	1.0
155.69	1.0	go	0.583	Go_X	1.0
158.215	1.0	go	0.534	Go_X	1.0
160.756	1.0	go	0.597	Go_O	1.0
163.297	0.35	stop	0.0	Go_O	1.0
165.837	1.0	go	0.452	Go_O	1.0
168.362	1.0	go	0.553	Go_X	1.0
170.903	1.0	go	0.609	Go_X	1.0
173.444	1.0	go	0.648	Go_O	1.0
175.984	1.0	go	0.669	Go_X	1.0
178.509	1.0	go	0.69	Go_O	1.0
181.05	0.4	stop	0.0	Go_X	1.0
183.591	1.0	go	0.594	Go_X	1.0
186.132	1.0	go	0.602	Go_O	1.0
188.672	0.45	stop	0.0	Go_O	1.0
191.213	1.0	go	0.586	Go_O	1.0
193.738	0.5	stop	0.622	Go_X	0.0
196.279	0.45	stop	0.0	Go_O	1.0
198.819	1.0	go	0.614	Go_X	1.0
201.344	1.0	go	0.597	Go_O	1.0
203.885	1.0	go	0.507	Go_X	1.0
206.426	1.0	go	0.811	Go_O	1.0
208.966	0.5	stop	0.0	Go_X	1.0
211.507	1.0	go	0.611	Go_X	1.0
214.032	0.55	stop	0.62	Go_O	0.0
216.573	1.0	go	0.538	Go_O	1.0
219.113	1.0	go	0.64	Go_X	1.0
221.638	1.0	go	0.666	Go_X	1.0
224.179	1.0	go	0.605	Go_O	1.0
226.72	1.0	go	0.643	Go_X	1.0
229.26	1.0	go	0.614	Go_O	1.0
231.785	1.0	go	0.621	Go_O	1.0
234.326	1.0	go	0.619	Go_X	1.0
236.867	1.0	go	0.613	Go_O	1.0
239.407	0.5	stop	0.0	Go_X	1.0
241.948	1.0	go	0.605	Go_X	1.0
244.473	1.0	go	0.637	Go_X	1.0
247.014	1.0	go	0.54	Go_O	1.0
249.554	0.55	stop	0.603	Go_O	0.0
252.095	1.0	go	0.56	Go_X	1.0
254.62	1.0	go	0.572	Go_O	1.0
257.161	1.0	go	0.597	Go_O	1.0
259.701	1.0	go	0.651	Go_X	1.0
262.226	1.0	go	0.932	Go_O	1.0
264.767	1.0	go	0.59	Go_X	1.0
267.308	0.5	stop	0.0	Go_X	1.0
269.848	1.0	go	0.556	Go_O	1.0
272.373	1.0	go	0.546	Go_X	1.0
274.914	0.55	stop	0.616	Go_O	0.0
277.455	1.0	go	0.39	Go_X	1.0
279.995	1.0	go	0.558	Go_O	1.0
282.52	0.5	stop	0.0	Go_X	1.0
285.061	1.0	go	0.598	Go_O	1.0
287.602	0.55	stop	0.578	Go_O	0.0
290.142	1.0	go	0.511	Go_X	1.0
292.683	1.0	go	0.653	Go_X	1.0
295.208	1.0	go	0.862	Go_O	1.0
297.749	1.0	go	0.632	Go_X	1.0
300.29	1.0	go	0.651	Go_O	1.0
302.83	0.5	stop	0.605	Go_X	0.0
305.371	0.45	stop	0.603	Go_O	0.0
307.912	1.0	go	0.469	Go_X	1.0
310.437	1.0	go	0.581	Go_O	1.0
312.977	0.4	stop	0.0	Go_X	1.0
315.518	1.0	go	0.593	Go_X	1.0
318.043	1.0	go	0.495	Go_O	1.0
320.584	1.0	go	0.54	Go_X	1.0
323.124	1.0	go	0.491	Go_O	1.0
325.649	1.0	go	0.603	Go_O	1.0
328.19	1.0	go	0.626	Go_X	1.0
330.731	0.45	stop	0.526	Go_O	0.0
333.271	1.0	go	0.643	Go_O	1.0
335.796	1.0	go	0.557	Go_X	1.0
338.337	1.0	go	0.943	Go_X	1.0
340.878	1.0	go	0.577	Go_O	1.0
343.418	1.0	go	0.0	Go_X	0.0
345.959	0.4	stop	0.501	Go_X	0.0
348.5	1.0	go	0.468	Go_O	1.0
351.025	1.0	go	0.46	Go_X	1.0
353.565	1.0	go	0.517	Go_O	1.0
356.09	1.0	go	0.477	Go_O	1.0
358.631	0.35	stop	0.0	Go_O	1.0
361.172	1.0	go	0.448	Go_X	1.0
363.712	1.0	go	0.467	Go_X	1.0
366.237	0.4	stop	0.418	Go_X	0.0
368.778	1.0	go	0.988	Go_O	1.0
371.319	0.35	stop	0.43	Go_O	0.0
373.859	1.0	go	0.486	Go_O	1.0
376.384	1.0	go	0.396	Go_X	1.0
378.925	1.0	go	0.53	Go_X	1.0
381.466	1.0	go	0.543	Go_O	1.0
384.006	1.0	go	0.601	Go_X	1.0
386.531	1.0	go	0.414	Go_O	1.0
389.072	1.0	go	0.521	Go_O	1.0
391.613	0.3	stop	0.0	Go_X	1.0
394.153	1.0	go	0.657	Go_X	1.0
396.678	1.0	go	0.443	Go_O	1.0
399.219	1.0	go	0.518	Go_X	1.0
401.743	0.35	stop	0.0	Go_O	1.0
404.284	1.0	go	0.279	Go_X	1.0
406.825	1.0	go	0.652	Go_O	1.0
409.349	1.0	go	0.526	Go_O	1.0
411.89	1.0	go	0.621	Go_X	1.0
414.431	0.4	stop	0.0	Go_X	1.0
416.972	1.0	go	0.474	Go_X	1.0
419.513	1.0	go	0.551	Go_O	1.0
422.054	0.45	stop	0.534	Go_O	0.0
424.594	1.0	go	0.628	Go_O	1.0
427.119	1.0	go	0.604	Go_X	1.0
429.66	0.4	stop	0.535	Go_X	0.0
432.201	1.0	go	0.455	Go_X	1.0
434.741	1.0	go	0.5	Go_O	1.0
437.282	0.35	stop	0.691	Go_O	0.0
439.823	1.0	go	0.501	Go_O	1.0
442.348	1.0	go	0.692	Go_X	1.0
444.889	1.0	go	0.595	Go_O	1.0
447.429	1.0	go	0.524	Go_X	1.0
449.954	1.0	go	0.508	Go_O	1.0
452.495	1.0	go	0.562	Go_X	1.0
455.036	0.3	stop	0.0	Go_X	1.0
457.576	1.0	go	0.413	Go_O	1.0
460.117	0.35	stop	0.0	Go_O	1.0
462.658	1.0	go	0.527	Go_X	1.0
465.199	1.0	go	0.49	Go_O	1.0
467.723	1.0	go	0.437	Go_X	1.0
470.248	1.0	go	0.452	Go_O	1.0
472.789	1.0	go	0.444	Go_X	1.0
475.33	0.4	stop	0.518	Go_X	0.0
477.87	1.0	go	0.502	Go_O	1.0
480.395	1.0	go	0.538	Go_X	1.0
482.936	1.0	go	0.601	Go_X	1.0
485.477	0.35	stop	0.0	Go_O	1.0
488.017	0.4	stop	0.424	Go_X	0.0
490.558	0.35	stop	0.0	Go_O	1.0
493.099	1.0	go	0.567	Go_O	1.0
495.624	0.4	stop	0.451	Go_X	0.0
498.164	1.0	go	0.529	Go_X	1.0
500.689	1.0	go	0.469	Go_O	1.0
503.23	1.0	go	0.634	Go_O	1.0
505.771	1.0	go	0.355	Go_X	1.0
508.311	1.0	go	0.516	Go_O	1.0
510.836	1.0	go	0.249	Go_X	1.0
513.377	1.0	go	0.422	Go_O	1.0
515.918	1.0	go	0.298	Go_X	1.0
518.458	0.35	stop	0.493	Go_O	0.0
520.999	1.0	go	0.747	Go_O	1.0
523.524	1.0	go	0.478	Go_X	1.0
526.065	0.3	stop	0.0	Go_X	1.0
528.605	1.0	go	0.626	Go_O	1.0
531.13	1.0	go	0.612	Go_X	1.0
533.671	1.0	go	0.67	Go_O	1.0
536.212	1.0	go	0.589	Go_X	1.0
538.752	1.0	go	0.67	Go_X	1.0
541.277	0.35	stop	0.0	Go_O	1.0
543.818	1.0	go	0.582	Go_O	1.0
546.359	1.0	go	0.609	Go_O	1.0
548.9	1.0	go	0.651	Go_X	1.0
551.424	0.4	stop	0.46	Go_X	0.0
553.965	1.0	go	0.723	Go_O	1.0
556.506	0.35	stop	0.0	Go_O	1.0
559.047	1.0	go	0.563	Go_X	1.0
561.587	1.0	go	0.666	Go_O	1.0
564.128	1.0	go	0.768	Go_X	1.0
566.653	1.0	go	0.747	Go_O	1.0
569.193	1.0	go	0.77	Go_X	0.0
571.718	1.0	go	0.692	Go_O	1.0
574.259	1.0	go	0.589	Go_X	1.0
576.8	0.4	stop	0.565	Go_X	0.0
579.341	1.0	go	0.553	Go_X	1.0
581.881	1.0	go	0.548	Go_O	1.0
584.406	1.0	go	0.514	Go_X	1.0
586.947	1.0	go	0.622	Go_O	1.0
589.488	0.35	stop	0.0	Go_O	1.0
592.028	1.0	go	0.531	Go_X	1.0
594.553	0.4	stop	0.622	Go_X	0.0
597.094	1.0	go	0.6	Go_O	1.0
599.635	1.0	go	0.486	Go_O	1.0
602.175	0.35	stop	0.0	Go_O	1.0
604.716	1.0	go	0.492	Go_X	1.0
607.241	1.0	go	0.887	Go_O	1.0
609.782	1.0	go	0.677	Go_X	1.0
612.322	1.0	go	0.689	Go_X	1.0
614.847	1.0	go	0.743	Go_O	1.0
617.388	1.0	go	0.64	Go_X	1.0
619.929	1.0	go	0.716	Go_O	1.0
622.469	1.0	go	0.602	Go_X	1.0
624.994	1.0	go	0.649	Go_O	1.0
627.535	1.0	go	0.574	Go_O	1.0
630.076	0.4	stop	0.42	Go_X	0.0
632.616	1.0	go	0.755	Go_X	1.0
635.157	1.0	go	0.5	Go_O	1.0
637.682	0.35	stop	0.0	Go_O	1.0
640.223	1.0	go	0.604	Go_X	1.0
642.763	0.4	stop	0.0	Go_X	1.0
645.304	1.0	go	0.612	Go_X	1.0
647.829	1.0	go	0.513	Go_O	1.0
650.37	0.45	stop	0.543	Go_O	0.0
652.91	1.0	go	0.614	Go_X	1.0
655.435	0.4	stop	0.0	Go_X	1.0
657.976	1.0	go	0.699	Go_O	1.0
660.517	1.0	go	0.728	Go_O	1.0
663.057	1.0	go	0.709	Go_X	1.0
665.598	0.45	stop	0.0	Go_O	1.0
668.139	1.0	go	0.606	Go_X	1.0
670.664	1.0	go	0.586	Go_O	1.0
673.204	1.0	go	0.514	Go_X	1.0
675.729	1.0	go	0.427	Go_O	1.0
678.27	0.5	stop	0.656	Go_X	0.0
680.811	1.0	go	0.536	Go_O	1.0
683.351	1.0	go	0.57	Go_X	1.0
685.876	0.45	stop	0.565	Go_O	0.0
688.417	1.0	go	0.653	Go_X	1.0
690.958	1.0	go	0.607	Go_O	1.0
693.499	1.0	go	0.719	Go_X	1.0
696.039	1.0	go	0.743	Go_O	1.0
698.564	0.4	stop	0.55	Go_X	0.0
701.105	1.0	go	0.554	Go_O	1.0
703.646	0.35	stop	0.0	Go_O	1.0
706.186	1.0	go	0.572	Go_X	1.0
708.711	1.0	go	0.651	Go_X	1.0
711.252	0.4	stop	0.0	Go_X	1.0
713.793	1.0	go	0.521	Go_O	1.0
716.333	1.0	go	0.0	Go_O	0.0
718.858	1.0	go	0.697	Go_X	1.0
721.399	1.0	go	0.824	Go_O	1.0
723.939	0.45	stop	0.687	Go_O	0.0
726.48	1.0	go	0.492	Go_X	1.0
729.005	0.4	stop	0.0	Go_X	1.0
731.546	1.0	go	0.652	Go_X	1.0
734.087	1.0	go	0.562	Go_O	1.0
736.627	1.0	go	0.557	Go_O	1.0
739.168	1.0	go	0.585	Go_X	1.0
741.709	1.0	go	0.682	Go_X	1.0
744.234	1.0	go	0.56	Go_O	1.0
746.774	0.45	stop	0.0	Go_O	1.0
749.315	1.0	go	0.565	Go_O	1.0
751.84	1.0	go	0.564	Go_X	1.0
754.381	0.5	stop	0.649	Go_X	0.0
756.921	1.0	go	0.639	Go_X	1.0
759.446	1.0	go	0.534	Go_O	1.0
761.987	0.45	stop	0.0	Go_O	1.0
764.528	1.0	go	0.585	Go_O	1.0
767.068	1.0	go	0.543	Go_X	1.0
769.593	1.0	go	0.437	Go_X	1.0
772.134	1.0	go	0.622	Go_O	1.0
774.675	0.5	stop	0.0	Go_X	1.0
777.215	1.0	go	0.621	Go_O	1.0
779.74	0.55	stop	0.663	Go_O	0.0
782.281	1.0	go	0.643	Go_X	1.0
784.822	1.0	go	0.691	Go_O	1.0
787.362	1.0	go	0.605	Go_X	1.0
789.887	1.0	go	0.526	Go_O	1.0
792.428	1.0	go	0.699	Go_X	1.0
794.969	0.5	stop	0.0	Go_X	1.0
797.509	1.0	go	0.607	Go_X	1.0
800.05	1.0	go	0.464	Go_O	1.0
802.575	0.55	stop	0.626	Go_O	0.0
805.116	0.5	stop	0.589	Go_X	0.0
807.656	1.0	go	0.538	Go_X	1.0
810.181	1.0	go	0.478	Go_O	1.0
812.722	1.0	go	0.779	Go_X	1.0
815.263	1.0	go	0.524	Go_O	1.0
817.803	0.45	stop	0.0	Go_O	1.0
820.344	1.0	go	0.351	Go_X	1.0
