frame	onset	duration	trial_type	event_type	response_type	response_time	stim_file	accuracy
0	246.666		loss-noreward	ImageDisplay1		0.0		
0	248.655		loss-noreward	StartDisplay		0.0		
0	249.391		loss-noreward	ImageDisplay2		0.0		
0	252.65		loss-noreward	ChoiceDisplay		0.0		
0	254.255		loss-noreward	ChosenDisplay		0.0		
0	254.305		loss-noreward	TurnDisplay				
0	254.506		loss-noreward	OutcomeDisplay				
1	255.241		loss-reward	ImageDisplay1		0.0		
1	257.498		loss-reward	StartDisplay		0.0		
1	258.25		loss-reward	ImageDisplay2		0.0		
1	261.243		loss-reward	ChoiceDisplay	3	0.797	3	3
1	262.062		loss-reward	ChosenDisplay		0.0		
1	262.848		loss-reward	TurnDisplay				
1	263.098		loss-reward	OutcomeDisplay				
2	263.851		control-reward	ImageDisplay1		0.0		
2	266.091		control-reward	StartDisplay		0.0		
2	266.843		control-reward	ImageDisplay2		0.0		
2	269.852		control-reward	ChoiceDisplay	3	0.734	3	3
2	270.604		control-reward	ChosenDisplay		0.0		
2	271.457		control-reward	TurnDisplay				
2	271.707		control-reward	OutcomeDisplay				
3	272.459		loss-noreward	ImageDisplay1		0.0		
3	274.449		loss-noreward	StartDisplay		0.0		
3	275.201		loss-noreward	ImageDisplay2		0.0		
3	278.461		loss-noreward	ChoiceDisplay	3	1.04	3	3
3	279.514		loss-noreward	ChosenDisplay		0.0		
3	280.066		loss-noreward	TurnDisplay				
3	280.316		loss-noreward	OutcomeDisplay				
4	281.069		loss-reward	ImageDisplay1		0.0		
4	283.309		loss-reward	StartDisplay		0.0		
4	284.061		loss-reward	ImageDisplay2		0.0		
4	287.07		loss-reward	ChoiceDisplay	3	0.751	3	3
4	287.839		loss-reward	ChosenDisplay		0.0		
4	288.675		loss-reward	TurnDisplay				
4	288.925		loss-reward	OutcomeDisplay				
5	289.677		loss-reward	ImageDisplay1		0.0		
5	291.918		loss-reward	StartDisplay		0.0		
5	292.67		loss-reward	ImageDisplay2		0.0		
5	295.679		loss-reward	ChoiceDisplay	3	0.774	3	3
5	296.464		loss-reward	ChosenDisplay		0.0		
5	297.284		loss-reward	TurnDisplay				
5	297.534		loss-reward	OutcomeDisplay				
6	298.286		loss-noreward	ImageDisplay1		0.0		
6	300.276		loss-noreward	StartDisplay		0.0		
6	301.028		loss-noreward	ImageDisplay2		0.0		
6	304.288		loss-noreward	ChoiceDisplay	3	0.871	3	3
6	305.174		loss-noreward	ChosenDisplay		0.0		
6	305.893		loss-noreward	TurnDisplay				
6	306.143		loss-noreward	OutcomeDisplay				
7	306.895		loss-reward	ImageDisplay1		0.0		
7	309.136		loss-reward	StartDisplay		0.0		
7	309.888		loss-reward	ImageDisplay2		0.0		
7	312.897		loss-reward	ChoiceDisplay	3	0.772	3	3
7	313.682		loss-reward	ChosenDisplay		0.0		
7	314.502		loss-reward	TurnDisplay				
7	314.752		loss-reward	OutcomeDisplay				
8	315.505		control-noreward	ImageDisplay1		0.0		
8	317.494		control-noreward	StartDisplay		0.0		
8	318.246		control-noreward	ImageDisplay2		0.0		
8	321.506		control-noreward	ChoiceDisplay	3	0.865	3	3
8	322.392		control-noreward	ChosenDisplay		0.0		
8	323.111		control-noreward	TurnDisplay				
8	323.361		control-noreward	OutcomeDisplay				
9	324.113		win-noreward	ImageDisplay1		0.0		
9	326.103		win-noreward	StartDisplay		0.0		
9	326.855		win-noreward	ImageDisplay2		0.0		
9	330.115		win-noreward	ChoiceDisplay	3	0.825	3	3
9	330.951		win-noreward	ChosenDisplay		0.0		
9	331.72		win-noreward	TurnDisplay				
9	331.97		win-noreward	OutcomeDisplay				
10	332.722		win-reward	ImageDisplay1		0.0		
10	334.963		win-reward	StartDisplay		0.0		
10	335.715		win-reward	ImageDisplay2		0.0		
10	338.724		win-reward	ChoiceDisplay	3	0.787	3	3
10	339.526		win-reward	ChosenDisplay		0.0		
10	340.329		win-reward	TurnDisplay				
10	340.579		win-reward	OutcomeDisplay				
11	341.331		control-noreward	ImageDisplay1		0.0		
11	343.321		control-noreward	StartDisplay		0.0		
11	344.073		control-noreward	ImageDisplay2		0.0		
11	347.333		control-noreward	ChoiceDisplay	3	0.803	3	3
11	348.152		control-noreward	ChosenDisplay		0.0		
11	348.938		control-noreward	TurnDisplay				
11	349.188		control-noreward	OutcomeDisplay				
12	349.94		loss-reward	ImageDisplay1		0.0		
12	352.181		loss-reward	StartDisplay		0.0		
12	352.933		loss-reward	ImageDisplay2		0.0		
12	355.942		loss-reward	ChoiceDisplay	3	0.666	3	3
12	356.627		loss-reward	ChosenDisplay		0.0		
12	357.547		loss-reward	TurnDisplay				
12	357.797		loss-reward	OutcomeDisplay				
13	358.55		loss-reward	ImageDisplay1		0.0		
13	360.79		loss-reward	StartDisplay		0.0		
13	361.542		loss-reward	ImageDisplay2		0.0		
13	364.551		loss-reward	ChoiceDisplay	3	0.766	3	3
13	365.336		loss-reward	ChosenDisplay		0.0		
13	366.156		loss-reward	TurnDisplay				
13	366.406		loss-reward	OutcomeDisplay				
14	367.158		control-noreward	ImageDisplay1		0.0		
14	369.148		control-noreward	StartDisplay		0.0		
14	369.9		control-noreward	ImageDisplay2		0.0		
14	373.16		control-noreward	ChoiceDisplay	3	0.793	3	3
14	373.979		control-noreward	ChosenDisplay		0.0		
14	374.765		control-noreward	TurnDisplay				
14	375.015		control-noreward	OutcomeDisplay				
15	375.768		control-noreward	ImageDisplay1		0.0		
15	377.757		control-noreward	StartDisplay		0.0		
15	378.509		control-noreward	ImageDisplay2		0.0		
15	381.769		control-noreward	ChoiceDisplay	3	0.847	3	3
15	382.638		control-noreward	ChosenDisplay		0.0		
15	383.374		control-noreward	TurnDisplay				
15	383.624		control-noreward	OutcomeDisplay				
16	384.376		control-reward	ImageDisplay1		0.0		
16	386.617		control-reward	StartDisplay		0.0		
16	387.369		control-reward	ImageDisplay2		0.0		
16	390.378		control-reward	ChoiceDisplay	3	0.961	3	3
16	391.364		control-reward	ChosenDisplay		0.0		
16	391.983		control-reward	TurnDisplay				
16	392.233		control-reward	OutcomeDisplay				
17	392.985		control-noreward	ImageDisplay1		0.0		
17	394.975		control-noreward	StartDisplay		0.0		
17	395.727		control-noreward	ImageDisplay2		0.0		
17	398.987		control-noreward	ChoiceDisplay	3	0.33	3	3
17	399.338		control-noreward	ChosenDisplay		0.0		
17	400.592		control-noreward	TurnDisplay				
17	400.842		control-noreward	OutcomeDisplay				
18	401.594		win-reward	ImageDisplay1		0.0		
18	403.835		win-reward	StartDisplay		0.0		
18	404.587		win-reward	ImageDisplay2		0.0		
18	407.596		win-reward	ChoiceDisplay	3	0.722	3	3
18	408.331		win-reward	ChosenDisplay		0.0		
18	409.201		win-reward	TurnDisplay				
18	409.451		win-reward	OutcomeDisplay				
19	410.204		loss-noreward	ImageDisplay1		0.0		
19	412.193		loss-noreward	StartDisplay		0.0		
19	412.945		loss-noreward	ImageDisplay2		0.0		
19	416.205		loss-noreward	ChoiceDisplay	3	0.554	3	3
19	416.773		loss-noreward	ChosenDisplay		0.0		
19	417.81		loss-noreward	TurnDisplay				
19	418.06		loss-noreward	OutcomeDisplay				
20	418.813		win-reward	ImageDisplay1		0.0		
20	421.053		win-reward	StartDisplay		0.0		
20	421.805		win-reward	ImageDisplay2		0.0		
20	424.814		win-reward	ChoiceDisplay	3	0.717	3	3
20	425.549		win-reward	ChosenDisplay		0.0		
20	426.419		win-reward	TurnDisplay				
20	426.669		win-reward	OutcomeDisplay				
21	427.421		win-noreward	ImageDisplay1		0.0		
21	429.411		win-noreward	StartDisplay		0.0		
21	430.163		win-noreward	ImageDisplay2		0.0		
21	433.423		win-noreward	ChoiceDisplay	3	0.823	3	3
21	434.259		win-noreward	ChosenDisplay		0.0		
21	435.028		win-noreward	TurnDisplay				
21	435.278		win-noreward	OutcomeDisplay				
22	436.03		win-reward	ImageDisplay1		0.0		
22	438.271		win-reward	StartDisplay		0.0		
22	439.023		win-reward	ImageDisplay2		0.0		
22	442.032		win-reward	ChoiceDisplay	3	0.511	3	3
22	442.567		win-reward	ChosenDisplay		0.0		
22	443.637		win-reward	TurnDisplay				
22	443.887		win-reward	OutcomeDisplay				
23	444.64		win-reward	ImageDisplay1		0.0		
23	446.88		win-reward	StartDisplay		0.0		
23	447.632		win-reward	ImageDisplay2		0.0		
23	450.641		win-reward	ChoiceDisplay	3	0.645	3	3
23	451.309		win-reward	ChosenDisplay		0.0		
23	452.246		win-reward	TurnDisplay				
23	452.496		win-reward	OutcomeDisplay				
24	453.249		control-reward	ImageDisplay1		0.0		
24	455.489		control-reward	StartDisplay		0.0		
24	456.241		control-reward	ImageDisplay2		0.0		
24	459.25		control-reward	ChoiceDisplay	3	0.245	3	3
24	459.517		control-reward	ChosenDisplay		0.0		
24	460.855		control-reward	TurnDisplay				
24	461.105		control-reward	OutcomeDisplay				
25	461.858		win-noreward	ImageDisplay1		0.0		
25	463.847		win-noreward	StartDisplay		0.0		
25	464.599		win-noreward	ImageDisplay2		0.0		
25	467.859		win-noreward	ChoiceDisplay	3	0.774	3	3
25	468.644		win-noreward	ChosenDisplay		0.0		
25	469.464		win-noreward	TurnDisplay				
25	469.714		win-noreward	OutcomeDisplay				
26	470.466		win-reward	ImageDisplay1		0.0		
26	472.707		win-reward	StartDisplay		0.0		
26	473.459		win-reward	ImageDisplay2		0.0		
26	476.468		win-reward	ChoiceDisplay	3	0.564	3	3
26	477.053		win-reward	ChosenDisplay		0.0		
26	478.073		win-reward	TurnDisplay				
26	478.323		win-reward	OutcomeDisplay				
27	479.075		win-noreward	ImageDisplay1		0.0		
27	481.065		win-noreward	StartDisplay		0.0		
27	481.817		win-noreward	ImageDisplay2		0.0		
27	485.077		win-noreward	ChoiceDisplay	3	0.674	3	3
27	485.762		win-noreward	ChosenDisplay		0.0		
27	486.682		win-noreward	TurnDisplay				
27	486.932		win-noreward	OutcomeDisplay				
28	487.684		loss-reward	ImageDisplay1		0.0		
28	489.925		loss-reward	StartDisplay		0.0		
28	490.677		loss-reward	ImageDisplay2		0.0		
28	493.686		loss-reward	ChoiceDisplay	3	0.883	3	3
28	494.588		loss-reward	ChosenDisplay		0.0		
28	495.291		loss-reward	TurnDisplay				
28	495.541		loss-reward	OutcomeDisplay				
29	496.293		control-noreward	ImageDisplay1		0.0		
29	498.283		control-noreward	StartDisplay		0.0		
29	499.035		control-noreward	ImageDisplay2		0.0		
29	502.295		control-noreward	ChoiceDisplay	3	0.464	3	3
29	502.78		control-noreward	ChosenDisplay		0.0		
29	503.9		control-noreward	TurnDisplay				
29	504.15		control-noreward	OutcomeDisplay				
30	504.902		control-noreward	ImageDisplay1		0.0		
30	506.892		control-noreward	StartDisplay		0.0		
30	507.644		control-noreward	ImageDisplay2		0.0		
30	510.904		control-noreward	ChoiceDisplay		0.0		
30	512.492		control-noreward	ChosenDisplay		0.0		
30	512.509		control-noreward	TurnDisplay				
30	512.743		control-noreward	OutcomeDisplay				
31	513.495		control-noreward	ImageDisplay1		0.0		
31	515.501		control-noreward	StartDisplay		0.0		
31	516.253		control-noreward	ImageDisplay2		0.0		
31	519.496		control-noreward	ChoiceDisplay	3	0.407	3	3
31	519.914		control-noreward	ChosenDisplay		0.0		
31	521.101		control-noreward	TurnDisplay				
31	521.352		control-noreward	OutcomeDisplay				
32	522.104		control-reward	ImageDisplay1		0.0		
32	524.344		control-reward	StartDisplay		0.0		
32	525.096		control-reward	ImageDisplay2		0.0		
32	528.105		control-reward	ChoiceDisplay	3	0.908	3	3
32	529.024		control-reward	ChosenDisplay		0.0		
32	529.71		control-reward	TurnDisplay				
32	529.961		control-reward	OutcomeDisplay				
33	530.713		control-reward	ImageDisplay1		0.0		
33	532.953		control-reward	StartDisplay		0.0		
33	533.705		control-reward	ImageDisplay2		0.0		
33	536.714		control-reward	ChoiceDisplay	3	0.742	3	3
33	537.483		control-reward	ChosenDisplay		0.0		
33	538.319		control-reward	TurnDisplay				
33	538.57		control-reward	OutcomeDisplay				
34	539.322		win-noreward	ImageDisplay1		0.0		
34	541.311		win-noreward	StartDisplay		0.0		
34	542.063		win-noreward	ImageDisplay2		0.0		
34	545.323		win-noreward	ChoiceDisplay	3	0.745	3	3
34	546.092		win-noreward	ChosenDisplay		0.0		
34	546.928		win-noreward	TurnDisplay				
34	547.179		win-noreward	OutcomeDisplay				
35	547.931		loss-noreward	ImageDisplay1		0.0		
35	549.92		loss-noreward	StartDisplay		0.0		
35	550.672		loss-noreward	ImageDisplay2		0.0		
35	553.932		loss-noreward	ChoiceDisplay	3	0.86	3	3
35	554.818		loss-noreward	ChosenDisplay		0.0		
35	555.537		loss-noreward	TurnDisplay				
35	555.788		loss-noreward	OutcomeDisplay				
36	556.54		loss-reward	ImageDisplay1		0.0		
36	558.78		loss-reward	StartDisplay		0.0		
36	559.532		loss-reward	ImageDisplay2		0.0		
36	562.541		loss-reward	ChoiceDisplay	3	0.732	3	3
36	563.293		loss-reward	ChosenDisplay		0.0		
36	564.146		loss-reward	TurnDisplay				
36	564.397		loss-reward	OutcomeDisplay				
37	565.149		win-noreward	ImageDisplay1		0.0		
37	567.138		win-noreward	StartDisplay		0.0		
37	567.89		win-noreward	ImageDisplay2		0.0		
37	571.15		win-noreward	ChoiceDisplay	3	0.76	3	3
37	571.936		win-noreward	ChosenDisplay		0.0		
37	572.755		win-noreward	TurnDisplay				
37	573.006		win-noreward	OutcomeDisplay				
38	573.758		loss-noreward	ImageDisplay1		0.0		
38	575.747		loss-noreward	StartDisplay		0.0		
38	576.499		loss-noreward	ImageDisplay2		0.0		
38	579.759		loss-noreward	ChoiceDisplay	3	0.903	3	3
38	580.678		loss-noreward	ChosenDisplay		0.0		
38	581.364		loss-noreward	TurnDisplay				
38	581.615		loss-noreward	OutcomeDisplay				
39	582.367		win-noreward	ImageDisplay1		0.0		
39	584.356		win-noreward	StartDisplay		0.0		
39	585.108		win-noreward	ImageDisplay2		0.0		
39	588.368		win-noreward	ChoiceDisplay	3	0.599	3	3
39	588.987		win-noreward	ChosenDisplay		0.0		
39	589.973		win-noreward	TurnDisplay				
39	590.224		win-noreward	OutcomeDisplay				
40	590.976		control-reward	ImageDisplay1		0.0		
40	593.216		control-reward	StartDisplay		0.0		
40	593.968		control-reward	ImageDisplay2		0.0		
40	596.977		control-reward	ChoiceDisplay	3	0.497	3	3
40	597.495		control-reward	ChosenDisplay		0.0		
40	598.582		control-reward	TurnDisplay				
40	598.833		control-reward	OutcomeDisplay				
41	599.585		control-noreward	ImageDisplay1		0.0		
41	601.574		control-noreward	StartDisplay		0.0		
41	602.326		control-noreward	ImageDisplay2		0.0		
41	605.586		control-noreward	ChoiceDisplay	3	1.016	3	3
41	606.622		control-noreward	ChosenDisplay		0.0		
41	607.191		control-noreward	TurnDisplay				
41	607.442		control-noreward	OutcomeDisplay				
42	608.194		win-reward	ImageDisplay1		0.0		
42	610.434		win-reward	StartDisplay		0.0		
42	611.186		win-reward	ImageDisplay2		0.0		
42	614.195		win-reward	ChoiceDisplay	3	0.808	3	3
42	615.014		win-reward	ChosenDisplay		0.0		
42	615.8		win-reward	TurnDisplay				
42	616.051		win-reward	OutcomeDisplay				
43	616.803		win-noreward	ImageDisplay1		0.0		
43	618.792		win-noreward	StartDisplay		0.0		
43	619.544		win-noreward	ImageDisplay2		0.0		
43	622.804		win-noreward	ChoiceDisplay	3	1.177	3	3
43	624.008		win-noreward	ChosenDisplay		0.0		
43	624.409		win-noreward	TurnDisplay				
43	624.66		win-noreward	OutcomeDisplay				
44	625.412		win-reward	ImageDisplay1		0.0		
44	627.652		win-reward	StartDisplay		0.0		
44	628.404		win-reward	ImageDisplay2		0.0		
44	631.413		win-reward	ChoiceDisplay	3	1.115	3	3
44	632.55		win-reward	ChosenDisplay		0.0		
44	633.018		win-reward	TurnDisplay				
44	633.269		win-reward	OutcomeDisplay				
45	634.021		control-reward	ImageDisplay1		0.0		
45	636.261		control-reward	StartDisplay		0.0		
45	637.013		control-reward	ImageDisplay2		0.0		
45	640.022		control-reward	ChoiceDisplay		0.0		
45	641.61		control-reward	ChosenDisplay		0.0		
45	641.627		control-reward	TurnDisplay				
45	641.861		control-reward	OutcomeDisplay				
46	642.613		win-reward	ImageDisplay1		0.0		
46	644.87		win-reward	StartDisplay		0.0		
46	645.622		win-reward	ImageDisplay2		0.0		
46	648.614		win-reward	ChoiceDisplay	3	0.93	3	3
46	649.567		win-reward	ChosenDisplay		0.0		
46	650.219		win-reward	TurnDisplay				
46	650.47		win-reward	OutcomeDisplay				
47	651.222		win-reward	ImageDisplay1		0.0		
47	653.462		win-reward	StartDisplay		0.0		
47	654.214		win-reward	ImageDisplay2		0.0		
47	657.223		win-reward	ChoiceDisplay	3	0.855	3	3
47	658.093		win-reward	ChosenDisplay		0.0		
47	658.828		win-reward	TurnDisplay				
47	659.079		win-reward	OutcomeDisplay				
48	659.831		loss-reward	ImageDisplay1		0.0		
48	662.071		loss-reward	StartDisplay		0.0		
48	662.823		loss-reward	ImageDisplay2		0.0		
48	665.832		loss-reward	ChoiceDisplay	3	0.802	3	3
48	666.651		loss-reward	ChosenDisplay		0.0		
48	667.437		loss-reward	TurnDisplay				
48	667.688		loss-reward	OutcomeDisplay				
49	668.44		win-reward	ImageDisplay1		0.0		
49	670.68		win-reward	StartDisplay		0.0		
49	671.432		win-reward	ImageDisplay2		0.0		
49	674.441		win-reward	ChoiceDisplay	3	0.874	3	3
49	675.327		win-reward	ChosenDisplay		0.0		
49	676.046		win-reward	TurnDisplay				
49	676.297		win-reward	OutcomeDisplay				
50	677.049		control-reward	ImageDisplay1		0.0		
50	679.289		control-reward	StartDisplay		0.0		
50	680.041		control-reward	ImageDisplay2		0.0		
50	683.05		control-reward	ChoiceDisplay	3	0.405	3	3
50	683.468		control-reward	ChosenDisplay		0.0		
50	684.655		control-reward	TurnDisplay				
50	684.906		control-reward	OutcomeDisplay				
51	685.658		loss-reward	ImageDisplay1		0.0		
51	687.898		loss-reward	StartDisplay		0.0		
51	688.65		loss-reward	ImageDisplay2		0.0		
51	691.659		loss-reward	ChoiceDisplay	3	0.742	3	3
51	692.428		loss-reward	ChosenDisplay		0.0		
51	693.264		loss-reward	TurnDisplay				
51	693.515		loss-reward	OutcomeDisplay				
52	694.267		loss-noreward	ImageDisplay1		0.0		
52	696.256		loss-noreward	StartDisplay		0.0		
52	697.009		loss-noreward	ImageDisplay2		0.0		
52	700.268		loss-noreward	ChoiceDisplay	3	0.958	3	3
52	701.238		loss-noreward	ChosenDisplay		0.0		
52	701.873		loss-noreward	TurnDisplay				
52	702.124		loss-noreward	OutcomeDisplay				
53	702.876		loss-reward	ImageDisplay1		0.0		
53	705.116		loss-reward	StartDisplay		0.0		
53	705.868		loss-reward	ImageDisplay2		0.0		
53	708.877		loss-reward	ChoiceDisplay	3	0.911	3	3
53	709.813		loss-reward	ChosenDisplay		0.0		
53	710.482		loss-reward	TurnDisplay				
53	710.733		loss-reward	OutcomeDisplay				
54	711.485		loss-noreward	ImageDisplay1		0.0		
54	713.474		loss-noreward	StartDisplay		0.0		
54	714.227		loss-noreward	ImageDisplay2		0.0		
54	717.486		loss-noreward	ChoiceDisplay	3	0.359	3	3
54	717.871		loss-noreward	ChosenDisplay		0.0		
54	719.091		loss-noreward	TurnDisplay				
54	719.342		loss-noreward	OutcomeDisplay				
55	720.094		control-reward	ImageDisplay1		0.0		
55	722.334		control-reward	StartDisplay		0.0		
55	723.086		control-reward	ImageDisplay2		0.0		
55	726.095		control-reward	ChoiceDisplay	3	0.389	3	3
55	726.496		control-reward	ChosenDisplay		0.0		
55	727.7		control-reward	TurnDisplay				
55	727.951		control-reward	OutcomeDisplay				
56	728.703		control-noreward	ImageDisplay1		0.0		
56	730.692		control-noreward	StartDisplay		0.0		
56	731.445		control-noreward	ImageDisplay2		0.0		
56	734.704		control-noreward	ChoiceDisplay	3	1.097	3	3
56	735.824		control-noreward	ChosenDisplay		0.0		
56	736.309		control-noreward	TurnDisplay				
56	736.56		control-noreward	OutcomeDisplay				
57	737.312		loss-reward	ImageDisplay1		0.0		
57	739.552		loss-reward	StartDisplay		0.0		
57	740.304		loss-reward	ImageDisplay2		0.0		
57	743.313		loss-reward	ChoiceDisplay	3	0.79	3	3
57	744.116		loss-reward	ChosenDisplay		0.0		
57	744.918		loss-reward	TurnDisplay				
57	745.169		loss-reward	OutcomeDisplay				
58	745.921		win-reward	ImageDisplay1		0.0		
58	748.161		win-reward	StartDisplay		0.0		
58	748.913		win-reward	ImageDisplay2		0.0		
58	751.922		win-reward	ChoiceDisplay	3	1.18	3	3
58	753.126		win-reward	ChosenDisplay		0.0		
58	753.527		win-reward	TurnDisplay				
58	753.778		win-reward	OutcomeDisplay				
59	754.53		win-reward	ImageDisplay1		0.0		
59	756.77		win-reward	StartDisplay		0.0		
59	757.522		win-reward	ImageDisplay2		0.0		
59	760.531		win-reward	ChoiceDisplay	3	0.854	3	3
59	761.401		win-reward	ChosenDisplay		0.0		
59	762.136		win-reward	TurnDisplay				
59	762.387		win-reward	OutcomeDisplay				
60	763.139		control-reward	ImageDisplay1		0.0		
60	765.379		control-reward	StartDisplay		0.0		
60	766.131		control-reward	ImageDisplay2		0.0		
60	769.14		control-reward	ChoiceDisplay	3	1.09	3	3
60	770.244		control-reward	ChosenDisplay		0.0		
60	770.745		control-reward	TurnDisplay				
60	770.996		control-reward	OutcomeDisplay				
61	771.748		loss-noreward	ImageDisplay1		0.0		
61	773.737		loss-noreward	StartDisplay		0.0		
61	774.49		loss-noreward	ImageDisplay2		0.0		
61	777.749		loss-noreward	ChoiceDisplay	3	1.148	3	3
61	778.919		loss-noreward	ChosenDisplay		0.0		
61	779.354		loss-noreward	TurnDisplay				
61	779.605		loss-noreward	OutcomeDisplay				
62	780.357		loss-noreward	ImageDisplay1		0.0		
62	782.346		loss-noreward	StartDisplay		0.0		
62	783.099		loss-noreward	ImageDisplay2		0.0		
62	786.358		loss-noreward	ChoiceDisplay	3	0.754	3	3
62	787.127		loss-noreward	ChosenDisplay		0.0		
62	787.963		loss-noreward	TurnDisplay				
62	788.214		loss-noreward	OutcomeDisplay				
63	788.966		control-reward	ImageDisplay1		0.0		
63	791.206		control-reward	StartDisplay		0.0		
63	791.958		control-reward	ImageDisplay2		0.0		
63	794.967		control-reward	ChoiceDisplay	3	0.282	3	3
63	795.268		control-reward	ChosenDisplay		0.0		
63	796.572		control-reward	TurnDisplay				
63	796.823		control-reward	OutcomeDisplay				
64	797.575		win-noreward	ImageDisplay1		0.0		
64	799.564		win-noreward	StartDisplay		0.0		
64	800.317		win-noreward	ImageDisplay2		0.0		
64	803.576		win-noreward	ChoiceDisplay	3	0.83	3	3
64	804.429		win-noreward	ChosenDisplay		0.0		
64	805.181		win-noreward	TurnDisplay				
64	805.432		win-noreward	OutcomeDisplay				
65	806.184		control-noreward	ImageDisplay1		0.0		
65	808.173		control-noreward	StartDisplay		0.0		
65	808.926		control-noreward	ImageDisplay2		0.0		
65	812.185		control-noreward	ChoiceDisplay	3	0.707	3	3
65	812.904		control-noreward	ChosenDisplay		0.0		
65	813.79		control-noreward	TurnDisplay				
65	814.041		control-noreward	OutcomeDisplay				
66	814.793		control-noreward	ImageDisplay1		0.0		
66	816.782		control-noreward	StartDisplay		0.0		
66	817.535		control-noreward	ImageDisplay2		0.0		
66	820.794		control-noreward	ChoiceDisplay	3	0.301	3	3
66	821.112		control-noreward	ChosenDisplay		0.0		
66	822.399		control-noreward	TurnDisplay				
66	822.65		control-noreward	OutcomeDisplay				
67	823.402		loss-reward	ImageDisplay1		0.0		
67	825.642		loss-reward	StartDisplay		0.0		
67	826.394		loss-reward	ImageDisplay2		0.0		
67	829.403		loss-reward	ChoiceDisplay	3	0.979	3	3
67	830.406		loss-reward	ChosenDisplay		0.0		
67	831.008		loss-reward	TurnDisplay				
67	831.259		loss-reward	OutcomeDisplay				
68	832.011		loss-reward	ImageDisplay1		0.0		
68	834.251		loss-reward	StartDisplay		0.0		
68	835.003		loss-reward	ImageDisplay2		0.0		
68	838.012		loss-reward	ChoiceDisplay	3	0.902	3	3
68	838.932		loss-reward	ChosenDisplay		0.0		
68	839.617		loss-reward	TurnDisplay				
68	839.868		loss-reward	OutcomeDisplay				
69	840.62		win-noreward	ImageDisplay1		0.0		
69	842.609		win-noreward	StartDisplay		0.0		
69	843.362		win-noreward	ImageDisplay2		0.0		
69	846.621		win-noreward	ChoiceDisplay	3	0.934	3	3
69	847.574		win-noreward	ChosenDisplay		0.0		
69	848.226		win-noreward	TurnDisplay				
69	848.477		win-noreward	OutcomeDisplay				
70	849.229		loss-noreward	ImageDisplay1		0.0		
70	851.218		loss-noreward	StartDisplay		0.0		
70	851.971		loss-noreward	ImageDisplay2		0.0		
70	855.23		loss-noreward	ChoiceDisplay	3	0.929	3	3
70	856.183		loss-noreward	ChosenDisplay		0.0		
70	856.835		loss-noreward	TurnDisplay				
70	857.086		loss-noreward	OutcomeDisplay				
71	857.838		control-noreward	ImageDisplay1		0.0		
71	859.827		control-noreward	StartDisplay		0.0		
71	860.58		control-noreward	ImageDisplay2		0.0		
71	863.839		control-noreward	ChoiceDisplay	3	1.367	3	3
71	865.227		control-noreward	ChosenDisplay		0.0		
71	865.444		control-noreward	TurnDisplay				
71	865.695		control-noreward	OutcomeDisplay				
72	866.447		win-reward	ImageDisplay1		0.0		
72	868.687		win-reward	StartDisplay		0.0		
72	869.439		win-reward	ImageDisplay2		0.0		
72	872.448		win-reward	ChoiceDisplay	3	0.825	3	3
72	873.284		win-reward	ChosenDisplay		0.0		
72	874.053		win-reward	TurnDisplay				
72	874.304		win-reward	OutcomeDisplay				
73	875.056		loss-reward	ImageDisplay1		0.0		
73	877.296		loss-reward	StartDisplay		0.0		
73	878.048		loss-reward	ImageDisplay2		0.0		
73	881.057		loss-reward	ChoiceDisplay	3	0.786	3	3
73	881.86		loss-reward	ChosenDisplay		0.0		
73	882.662		loss-reward	TurnDisplay				
73	882.913		loss-reward	OutcomeDisplay				
74	883.665		control-noreward	ImageDisplay1		0.0		
74	885.654		control-noreward	StartDisplay		0.0		
74	886.407		control-noreward	ImageDisplay2		0.0		
74	889.666		control-noreward	ChoiceDisplay	3	0.356	3	3
74	890.034		control-noreward	ChosenDisplay		0.0		
74	891.271		control-noreward	TurnDisplay				
74	891.522		control-noreward	OutcomeDisplay				
75	892.274		loss-noreward	ImageDisplay1		0.0		
75	894.263		loss-noreward	StartDisplay		0.0		
75	895.016		loss-noreward	ImageDisplay2		0.0		
75	898.275		loss-noreward	ChoiceDisplay	3	0.787	3	3
75	899.078		loss-noreward	ChosenDisplay		0.0		
75	899.88		loss-noreward	TurnDisplay				
75	900.131		loss-noreward	OutcomeDisplay				
76	900.883		control-reward	ImageDisplay1		0.0		
76	903.123		control-reward	StartDisplay		0.0		
76	903.875		control-reward	ImageDisplay2		0.0		
76	906.884		control-reward	ChoiceDisplay	3	0.859	3	3
76	907.77		control-reward	ChosenDisplay		0.0		
76	908.489		control-reward	TurnDisplay				
76	908.74		control-reward	OutcomeDisplay				
77	909.492		control-noreward	ImageDisplay1		0.0		
77	911.481		control-noreward	StartDisplay		0.0		
77	912.234		control-noreward	ImageDisplay2		0.0		
77	915.493		control-noreward	ChoiceDisplay	3	1.048	3	3
77	916.563		control-noreward	ChosenDisplay		0.0		
77	917.098		control-noreward	TurnDisplay				
77	917.349		control-noreward	OutcomeDisplay				
78	918.101		loss-reward	ImageDisplay1		0.0		
78	920.341		loss-reward	StartDisplay		0.0		
78	921.093		loss-reward	ImageDisplay2		0.0		
78	924.102		loss-reward	ChoiceDisplay	3	0.784	3	3
78	924.905		loss-reward	ChosenDisplay		0.0		
78	925.707		loss-reward	TurnDisplay				
78	925.958		loss-reward	OutcomeDisplay				
79	926.71		loss-noreward	ImageDisplay1		0.0		
79	928.699		loss-noreward	StartDisplay		0.0		
79	929.452		loss-noreward	ImageDisplay2		0.0		
79	932.711		loss-noreward	ChoiceDisplay	3	1.108	3	3
79	933.831		loss-noreward	ChosenDisplay		0.0		
79	934.316		loss-noreward	TurnDisplay				
79	934.567		loss-noreward	OutcomeDisplay				
80	935.319		win-noreward	ImageDisplay1		0.0		
80	937.308		win-noreward	StartDisplay		0.0		
80	938.061		win-noreward	ImageDisplay2		0.0		
80	941.32		win-noreward	ChoiceDisplay	3	1.093	3	3
80	942.424		win-noreward	ChosenDisplay		0.0		
80	942.925		win-noreward	TurnDisplay				
80	943.176		win-noreward	OutcomeDisplay				
81	943.928		control-reward	ImageDisplay1		0.0		
81	946.168		control-reward	StartDisplay		0.0		
81	946.92		control-reward	ImageDisplay2		0.0		
81	949.929		control-reward	ChoiceDisplay	3	0.731	3	3
81	950.682		control-reward	ChosenDisplay		0.0		
81	951.534		control-reward	TurnDisplay				
81	951.785		control-reward	OutcomeDisplay				
82	952.537		win-noreward	ImageDisplay1		0.0		
82	954.526		win-noreward	StartDisplay		0.0		
82	955.279		win-noreward	ImageDisplay2		0.0		
82	958.538		win-noreward	ChoiceDisplay	3	1.185	3	3
82	959.742		win-noreward	ChosenDisplay		0.0		
82	960.143		win-noreward	TurnDisplay				
82	960.394		win-noreward	OutcomeDisplay				
83	961.146		control-reward	ImageDisplay1		0.0		
83	963.386		control-reward	StartDisplay		0.0		
83	964.138		control-reward	ImageDisplay2		0.0		
83	967.147		control-reward	ChoiceDisplay	3	0.692	3	3
83	967.866		control-reward	ChosenDisplay		0.0		
83	968.752		control-reward	TurnDisplay				
83	969.003		control-reward	OutcomeDisplay				
84	969.755		loss-reward	ImageDisplay1		0.0		
84	971.995		loss-reward	StartDisplay		0.0		
84	972.747		loss-reward	ImageDisplay2		0.0		
84	975.756		loss-reward	ChoiceDisplay	3	0.672	3	3
84	976.442		loss-reward	ChosenDisplay		0.0		
84	977.361		loss-reward	TurnDisplay				
84	977.612		loss-reward	OutcomeDisplay				
85	978.364		control-reward	ImageDisplay1		0.0		
85	980.604		control-reward	StartDisplay		0.0		
85	981.356		control-reward	ImageDisplay2		0.0		
85	984.365		control-reward	ChoiceDisplay	3	0.637	3	3
85	985.017		control-reward	ChosenDisplay		0.0		
85	985.97		control-reward	TurnDisplay				
85	986.221		control-reward	OutcomeDisplay				
86	986.973		win-noreward	ImageDisplay1		0.0		
86	988.962		win-noreward	StartDisplay		0.0		
86	989.715		win-noreward	ImageDisplay2		0.0		
86	992.974		win-noreward	ChoiceDisplay		0.0		
86	994.562		win-noreward	ChosenDisplay		0.0		
86	994.579		win-noreward	TurnDisplay				
86	994.813		win-noreward	OutcomeDisplay				
87	995.565		loss-noreward	ImageDisplay1		0.0		
87	997.571		loss-noreward	StartDisplay		0.0		
87	998.324		loss-noreward	ImageDisplay2		0.0		
87	1001.567		loss-noreward	ChoiceDisplay	3	1.02	3	3
87	1002.603		loss-noreward	ChosenDisplay		0.0		
87	1003.171		loss-noreward	TurnDisplay				
87	1003.422		loss-noreward	OutcomeDisplay				
88	1004.174		control-reward	ImageDisplay1		0.0		
88	1006.414		control-reward	StartDisplay		0.0		
88	1007.167		control-reward	ImageDisplay2		0.0		
88	1010.176		control-reward	ChoiceDisplay	3	0.694	3	3
88	1010.894		control-reward	ChosenDisplay		0.0		
88	1011.78		control-reward	TurnDisplay				
88	1012.031		control-reward	OutcomeDisplay				
89	1012.783		win-reward	ImageDisplay1		0.0		
89	1015.023		win-reward	StartDisplay		0.0		
89	1015.776		win-reward	ImageDisplay2		0.0		
89	1018.785		win-reward	ChoiceDisplay	3	0.579	3	3
89	1019.386		win-reward	ChosenDisplay		0.0		
89	1020.389		win-reward	TurnDisplay				
89	1020.64		win-reward	OutcomeDisplay				
90	1021.392		loss-reward	ImageDisplay1		0.0		
90	1023.632		loss-reward	StartDisplay		0.0		
90	1024.385		loss-reward	ImageDisplay2		0.0		
90	1027.394		loss-reward	ChoiceDisplay	3	0.704	3	3
90	1028.112		loss-reward	ChosenDisplay		0.0		
90	1028.998		loss-reward	TurnDisplay				
90	1029.249		loss-reward	OutcomeDisplay				
91	1030.001		win-reward	ImageDisplay1		0.0		
91	1032.241		win-reward	StartDisplay		0.0		
91	1032.994		win-reward	ImageDisplay2		0.0		
91	1036.003		win-reward	ChoiceDisplay	3	0.809	3	3
91	1036.838		win-reward	ChosenDisplay		0.0		
91	1037.607		win-reward	TurnDisplay				
91	1037.858		win-reward	OutcomeDisplay				
92	1038.61		win-noreward	ImageDisplay1		0.0		
92	1040.6		win-noreward	StartDisplay		0.0		
92	1041.352		win-noreward	ImageDisplay2		0.0		
92	1044.612		win-noreward	ChoiceDisplay	3	0.885	3	3
92	1045.514		win-noreward	ChosenDisplay		0.0		
92	1046.216		win-noreward	TurnDisplay				
92	1046.467		win-noreward	OutcomeDisplay				
93	1047.219		control-noreward	ImageDisplay1		0.0		
93	1049.209		control-noreward	StartDisplay		0.0		
93	1049.961		control-noreward	ImageDisplay2		0.0		
93	1053.221		control-noreward	ChoiceDisplay	3	0.88	3	3
93	1054.123		control-noreward	ChosenDisplay		0.0		
93	1054.825		control-noreward	TurnDisplay				
93	1055.076		control-noreward	OutcomeDisplay				
94	1055.828		win-reward	ImageDisplay1		0.0		
94	1058.068		win-reward	StartDisplay		0.0		
94	1058.821		win-reward	ImageDisplay2		0.0		
94	1061.83		win-reward	ChoiceDisplay	3	0.662	3	3
94	1062.515		win-reward	ChosenDisplay		0.0		
94	1063.434		win-reward	TurnDisplay				
94	1063.685		win-reward	OutcomeDisplay				
95	1064.437		win-reward	ImageDisplay1		0.0		
95	1066.677		win-reward	StartDisplay		0.0		
95	1067.43		win-reward	ImageDisplay2		0.0		
95	1070.439		win-reward	ChoiceDisplay	3	0.765	3	3
95	1071.224		win-reward	ChosenDisplay		0.0		
95	1072.043		win-reward	TurnDisplay				
95	1072.294		win-reward	OutcomeDisplay				
