onset	duration	trial_type	response_time	stim_file	accuracy
58.328	1.0	go	0.526	Go_O	1.0
60.902	1.0	go	0.345	Go_X	1.0
63.426	1.0	go	0.33	Go_O	1.0
65.95	1.0	go	0.365	Go_X	1.0
68.475	1.0	go	0.377	Go_O	1.0
70.999	1.0	go	0.398	Go_X	1.0
73.523	0.25	stopfail	0.305	Go_O	0.0
76.047	1.0	go	0.37	Go_O	1.0
78.571	0.2	stopfail	0.275	Go_X	0.0
81.096	1.0	go	0.412	Go_X	1.0
83.62	1.0	go	0.265	Go_O	1.0
86.144	1.0	go	0.41	Go_X	1.0
88.668	0.15	stopsuccess	0.0	Go_O	1.0
91.192	1.0	go	0.393	Go_O	1.0
93.717	1.0	go	0.392	Go_X	1.0
96.241	0.2	stopsuccess	0.0	Go_X	1.0
98.765	0.25	stopfail	0.296	Go_O	0.0
101.289	1.0	go	0.44	Go_X	1.0
103.813	1.0	go	0.342	Go_O	1.0
106.338	0.2	stopsuccess	0.0	Go_X	1.0
108.862	1.0	go	0.369	Go_X	1.0
111.386	1.0	go	0.352	Go_O	1.0
113.91	0.25	stopfail	0.369	Go_O	0.0
116.434	1.0	go	0.51	Go_X	1.0
118.959	1.0	go	0.466	Go_O	1.0
121.483	0.2	stopsuccess	0.0	Go_X	1.0
124.007	1.0	go	0.371	Go_X	1.0
126.531	1.0	go	0.426	Go_O	1.0
129.055	0.25	stopfail	0.394	Go_O	0.0
131.579	1.0	go	0.482	Go_O	1.0
134.104	1.0	go	0.409	Go_X	1.0
136.628	1.0	go	0.462	Go_O	1.0
139.152	1.0	go	0.306	Go_X	1.0
141.676	1.0	go	0.425	Go_O	1.0
144.2	0.2	stopfail	0.352	Go_X	0.0
146.725	1.0	go	0.468	Go_X	1.0
149.249	1.0	go	0.401	Go_X	1.0
151.773	1.0	go	0.342	Go_O	1.0
154.297	1.0	go	0.416	Go_O	1.0
156.821	1.0	go	0.414	Go_X	1.0
159.346	0.15	stopfail	0.305	Go_O	0.0
161.87	1.0	go	0.52	Go_O	1.0
164.394	1.0	go	0.358	Go_X	1.0
166.918	1.0	go	0.343	Go_O	1.0
169.442	1.0	go	0.393	Go_X	1.0
171.967	1.0	go	0.366	Go_X	1.0
174.491	1.0	go	0.353	Go_O	1.0
177.015	0.1	stopsuccess	0.0	Go_X	1.0
179.539	1.0	go	0.375	Go_O	1.0
182.063	1.0	go	0.296	Go_X	1.0
184.588	0.15	stopfail	0.346	Go_O	0.0
187.112	1.0	go	0.356	Go_X	1.0
189.636	0.1	stopsuccess	0.0	Go_X	1.0
192.16	0.15	stopsuccess	0.0	Go_O	1.0
194.684	1.0	go	0.454	Go_O	1.0
197.208	1.0	go	0.413	Go_O	1.0
199.733	1.0	go	0.376	Go_X	1.0
202.257	1.0	go	0.391	Go_O	1.0
204.781	0.2	stopsuccess	0.0	Go_X	1.0
207.305	1.0	go	0.604	Go_X	1.0
209.829	0.25	stopsuccess	0.0	Go_O	1.0
212.354	1.0	go	0.439	Go_O	1.0
214.878	1.0	go	0.408	Go_X	1.0
217.402	1.0	go	0.397	Go_X	1.0
219.926	1.0	go	0.441	Go_O	1.0
222.45	1.0	go	0.535	Go_X	1.0
224.975	1.0	go	0.491	Go_O	0.0
227.499	1.0	go	0.337	Go_O	1.0
230.023	1.0	go	0.426	Go_X	1.0
232.547	1.0	go	0.333	Go_O	1.0
235.071	0.3	stopfail	0.528	Go_X	0.0
237.596	1.0	go	0.363	Go_X	1.0
240.12	1.0	go	0.367	Go_O	1.0
242.644	1.0	go	0.477	Go_X	1.0
245.168	0.25	stopfail	0.363	Go_O	0.0
247.692	1.0	go	0.456	Go_O	1.0
250.217	1.0	go	0.392	Go_X	1.0
252.741	1.0	go	0.391	Go_X	1.0
255.265	1.0	go	0.447	Go_O	1.0
257.789	1.0	go	0.643	Go_X	1.0
260.313	1.0	go	0.669	Go_O	1.0
262.837	0.2	stopfail	0.414	Go_X	0.0
265.362	1.0	go	0.448	Go_X	1.0
267.886	1.0	go	0.535	Go_O	1.0
270.41	0.15	stopsuccess	0.0	Go_O	1.0
272.934	1.0	go	0.342	Go_O	1.0
275.458	1.0	go	0.322	Go_X	1.0
277.983	0.2	stopfail	0.302	Go_X	0.0
280.507	1.0	go	0.366	Go_O	1.0
283.031	0.15	stopsuccess	0.0	Go_O	1.0
285.555	1.0	go	0.334	Go_X	1.0
288.079	1.0	go	0.315	Go_X	1.0
290.604	1.0	go	0.329	Go_O	1.0
293.128	1.0	go	0.558	Go_X	1.0
295.652	1.0	go	0.653	Go_O	1.0
298.176	0.2	stopsuccess	0.0	Go_X	1.0
300.7	0.25	stopsuccess	0.0	Go_O	1.0
303.225	1.0	go	0.561	Go_X	0.0
305.749	1.0	go	0.439	Go_O	1.0
308.273	0.3	stopsuccess	0.0	Go_X	1.0
310.797	1.0	go	0.488	Go_O	1.0
313.321	1.0	go	0.556	Go_X	1.0
315.845	1.0	go	0.46	Go_O	1.0
318.37	1.0	go	0.396	Go_X	1.0
320.894	1.0	go	0.409	Go_X	1.0
323.418	1.0	go	0.447	Go_O	1.0
325.942	0.35	stopfail	0.448	Go_O	0.0
328.466	1.0	go	0.477	Go_O	1.0
330.991	1.0	go	0.432	Go_X	1.0
333.515	1.0	go	0.42	Go_X	1.0
336.039	1.0	go	0.419	Go_O	1.0
338.563	1.0	go	0.421	Go_O	1.0
341.087	0.3	stopsuccess	0.0	Go_X	1.0
343.612	1.0	go	0.541	Go_X	1.0
346.136	1.0	go	0.481	Go_O	1.0
348.66	1.0	go	0.0	Go_X	0.0
351.184	1.0	go	0.379	Go_X	1.0
353.708	0.35	stopfail	0.403	Go_O	0.0
356.233	1.0	go	0.376	Go_O	1.0
358.757	1.0	go	0.409	Go_O	1.0
361.281	0.3	stopfail	0.509	Go_X	0.0
363.805	1.0	go	0.528	Go_X	1.0
366.329	0.25	stopsuccess	0.0	Go_O	1.0
368.854	1.0	go	0.398	Go_X	1.0
371.378	1.0	go	0.477	Go_O	1.0
373.902	1.0	go	0.369	Go_O	1.0
376.426	1.0	go	0.389	Go_X	1.0
378.95	1.0	go	0.459	Go_X	1.0
381.475	1.0	go	0.325	Go_O	1.0
383.999	1.0	go	0.407	Go_O	1.0
386.523	0.3	stopsuccess	0.0	Go_X	1.0
389.047	1.0	go	0.43	Go_X	1.0
391.571	1.0	go	0.459	Go_O	1.0
394.095	1.0	go	0.392	Go_X	1.0
396.62	0.35	stopfail	0.397	Go_O	0.0
399.144	1.0	go	0.468	Go_X	1.0
401.668	1.0	go	0.383	Go_O	1.0
404.192	1.0	go	0.387	Go_O	1.0
406.716	1.0	go	0.397	Go_X	1.0
409.241	0.3	stopfail	0.413	Go_X	0.0
411.765	1.0	go	0.397	Go_X	1.0
414.289	1.0	go	0.543	Go_O	1.0
416.813	0.25	stopsuccess	0.0	Go_O	1.0
419.337	1.0	go	0.463	Go_X	1.0
421.862	1.0	go	0.468	Go_O	1.0
424.386	0.3	stopsuccess	0.0	Go_X	1.0
426.91	1.0	go	0.412	Go_X	0.0
429.434	1.0	go	0.303	Go_O	1.0
431.958	0.35	stopfail	0.451	Go_O	0.0
434.483	1.0	go	0.413	Go_X	1.0
437.007	1.0	go	0.455	Go_O	1.0
439.531	1.0	go	0.425	Go_X	1.0
442.055	1.0	go	0.542	Go_O	1.0
444.579	1.0	go	0.459	Go_O	1.0
447.104	1.0	go	0.315	Go_X	1.0
449.628	0.3	stopsuccess	0.0	Go_X	1.0
452.152	1.0	go	0.375	Go_X	1.0
454.676	0.35	stopfail	0.636	Go_O	0.0
457.2	1.0	go	0.863	Go_O	1.0
459.724	1.0	go	0.446	Go_O	1.0
462.249	1.0	go	0.403	Go_X	1.0
464.773	1.0	go	0.658	Go_X	0.0
467.297	1.0	go	0.5	Go_O	1.0
469.821	0.3	stopfail	0.415	Go_X	0.0
472.345	1.0	go	0.443	Go_O	1.0
474.87	1.0	go	0.449	Go_X	1.0
477.394	1.0	go	0.519	Go_O	1.0
479.918	0.25	stopsuccess	0.0	Go_O	1.0
482.442	0.3	stopfail	0.413	Go_X	0.0
484.966	0.25	stopsuccess	0.0	Go_O	1.0
487.491	1.0	go	0.478	Go_X	1.0
490.015	0.3	stopfail	0.443	Go_X	0.0
492.539	1.0	go	0.476	Go_X	1.0
495.063	1.0	go	0.382	Go_O	1.0
497.587	1.0	go	0.385	Go_X	1.0
500.112	1.0	go	0.307	Go_O	1.0
502.636	1.0	go	0.433	Go_O	1.0
505.16	1.0	go	0.345	Go_X	1.0
507.684	1.0	go	0.315	Go_O	1.0
510.208	1.0	go	0.434	Go_X	1.0
512.732	0.25	stopsuccess	0.0	Go_O	1.0
515.257	1.0	go	0.403	Go_X	1.0
517.781	1.0	go	0.393	Go_O	1.0
520.305	0.3	stopsuccess	0.0	Go_X	1.0
522.829	1.0	go	0.336	Go_O	1.0
525.353	1.0	go	0.808	Go_X	1.0
527.878	1.0	go	0.317	Go_O	1.0
530.402	1.0	go	0.636	Go_X	1.0
532.926	1.0	go	0.408	Go_X	1.0
535.45	0.35	stopsuccess	0.0	Go_O	1.0
537.974	1.0	go	0.478	Go_O	1.0
540.499	1.0	go	0.408	Go_O	1.0
543.023	1.0	go	0.343	Go_X	1.0
545.547	0.4	stopfail	0.432	Go_X	0.0
548.071	1.0	go	0.569	Go_X	1.0
550.595	0.35	stopfail	0.422	Go_O	0.0
553.12	1.0	go	0.523	Go_O	1.0
555.644	1.0	go	0.554	Go_X	1.0
558.168	1.0	go	0.672	Go_O	1.0
560.692	1.0	go	0.353	Go_O	1.0
563.216	1.0	go	0.364	Go_X	1.0
565.741	1.0	go	0.511	Go_X	1.0
568.265	1.0	go	0.395	Go_O	1.0
570.789	0.3	stopfail	0.544	Go_X	0.0
573.313	1.0	go	0.426	Go_O	1.0
575.837	1.0	go	0.491	Go_X	1.0
578.361	1.0	go	0.372	Go_O	1.0
580.886	1.0	go	0.307	Go_X	1.0
583.41	0.25	stopsuccess	0.0	Go_O	1.0
585.934	1.0	go	0.52	Go_X	1.0
588.458	0.3	stopfail	0.434	Go_X	0.0
590.982	1.0	go	0.537	Go_O	1.0
593.507	1.0	go	0.464	Go_O	1.0
596.031	0.25	stopsuccess	0.0	Go_O	1.0
598.555	1.0	go	0.563	Go_X	1.0
601.079	1.0	go	0.66	Go_O	1.0
603.603	1.0	go	0.738	Go_X	1.0
606.128	1.0	go	0.0	Go_X	0.0
608.652	1.0	go	0.435	Go_O	1.0
611.176	1.0	go	0.657	Go_O	1.0
613.7	1.0	go	0.42	Go_X	1.0
616.224	1.0	go	0.0	Go_O	0.0
618.749	1.0	go	0.5	Go_X	1.0
621.273	1.0	go	0.455	Go_X	1.0
623.797	0.3	stopfail	0.488	Go_X	0.0
626.321	1.0	go	0.515	Go_O	1.0
628.845	1.0	go	0.429	Go_X	1.0
631.37	0.25	stopsuccess	0.0	Go_O	1.0
633.894	1.0	go	0.619	Go_O	1.0
636.418	0.3	stopfail	0.324	Go_X	0.0
638.942	1.0	go	0.399	Go_X	1.0
641.466	1.0	go	0.586	Go_O	1.0
643.99	0.25	stopsuccess	0.0	Go_O	1.0
646.515	1.0	go	0.615	Go_O	1.0
649.039	0.3	stopsuccess	0.0	Go_X	1.0
651.563	1.0	go	0.445	Go_X	1.0
654.087	1.0	go	0.449	Go_X	1.0
656.611	1.0	go	0.551	Go_O	1.0
659.136	0.35	stopfail	0.325	Go_O	0.0
661.66	1.0	go	0.415	Go_X	1.0
664.184	1.0	go	0.463	Go_O	1.0
666.708	1.0	go	0.366	Go_O	1.0
669.232	1.0	go	0.411	Go_X	1.0
671.757	0.3	stopfail	0.452	Go_X	0.0
674.281	1.0	go	0.367	Go_O	1.0
676.805	1.0	go	0.484	Go_X	0.0
679.329	0.25	stopsuccess	0.0	Go_O	1.0
681.853	1.0	go	0.449	Go_O	1.0
684.378	1.0	go	0.389	Go_X	1.0
686.902	1.0	go	0.534	Go_O	1.0
689.426	1.0	go	0.607	Go_X	1.0
691.95	0.3	stopfail	0.648	Go_X	0.0
694.474	1.0	go	0.653	Go_X	1.0
696.999	0.25	stopsuccess	0.0	Go_O	1.0
699.523	1.0	go	0.467	Go_O	1.0
702.047	1.0	go	0.471	Go_X	1.0
704.571	0.3	stopsuccess	0.0	Go_X	1.0
707.095	1.0	go	0.412	Go_O	1.0
709.619	1.0	go	0.364	Go_X	1.0
712.144	1.0	go	0.406	Go_O	1.0
714.668	1.0	go	0.277	Go_X	1.0
717.192	0.35	stopsuccess	0.0	Go_O	1.0
719.716	1.0	go	0.446	Go_O	1.0
722.24	0.4	stopfail	0.647	Go_X	0.0
724.765	1.0	go	0.45	Go_O	1.0
727.289	1.0	go	0.559	Go_X	1.0
729.813	1.0	go	0.755	Go_O	1.0
732.337	1.0	go	0.526	Go_X	1.0
734.861	1.0	go	0.861	Go_O	1.0
737.386	1.0	go	0.413	Go_X	1.0
739.91	0.35	stopsuccess	0.0	Go_O	1.0
742.434	1.0	go	0.361	Go_O	1.0
744.958	1.0	go	0.0	Go_X	0.0
747.482	0.4	stopsuccess	0.0	Go_X	1.0
750.007	1.0	go	0.315	Go_X	1.0
752.531	1.0	go	0.0	Go_O	0.0
755.055	0.45	stopsuccess	0.0	Go_O	1.0
757.579	1.0	go	0.666	Go_X	1.0
760.103	1.0	go	0.396	Go_O	1.0
762.628	1.0	go	0.0	Go_X	0.0
765.152	1.0	go	0.0	Go_O	0.0
767.676	0.5	stopfail	0.383	Go_X	0.0
770.2	1.0	go	0.414	Go_X	1.0
772.724	0.45	stopfail	0.394	Go_O	0.0
775.248	1.0	go	0.482	Go_O	1.0
777.773	1.0	go	0.0	Go_O	0.0
780.297	1.0	go	0.0	Go_X	0.0
782.821	1.0	go	0.567	Go_X	1.0
785.345	1.0	go	0.401	Go_O	1.0
787.869	0.4	stopfail	0.483	Go_X	0.0
790.394	1.0	go	0.414	Go_X	1.0
792.918	1.0	go	0.457	Go_O	1.0
795.442	0.35	stopfail	0.441	Go_O	0.0
797.966	0.3	stopfail	0.479	Go_X	0.0
800.49	1.0	go	0.42	Go_O	1.0
803.015	1.0	go	0.648	Go_X	1.0
805.539	1.0	go	0.43	Go_O	1.0
808.063	1.0	go	0.468	Go_X	1.0
810.587	0.25	stopfail	0.383	Go_O	0.0
813.111	1.0	go	0.449	Go_X	1.0
