onset	duration	trial_type	response_time	stim_file	accuracy
58.111	1.0	go	0.0	Go_O	0.0
60.644	1.0	go	0.818	Go_X	0.0
63.178	1.0	go	0.505	Go_X	1.0
65.711	1.0	go	0.406	Go_O	1.0
68.244	1.0	go	0.637	Go_X	1.0
70.778	1.0	go	0.398	Go_O	1.0
73.311	0.25	stopsuccess	0.0	Go_O	1.0
75.844	1.0	go	0.417	Go_X	1.0
78.377	0.3	stopsuccess	0.0	Go_X	1.0
80.911	1.0	go	0.371	Go_O	1.0
83.444	1.0	go	0.507	Go_X	1.0
85.977	1.0	go	0.485	Go_O	1.0
88.511	0.35	stopfail	0.484	Go_O	0.0
91.06	1.0	go	0.482	Go_O	1.0
93.594	1.0	go	0.444	Go_X	1.0
96.127	0.3	stopsuccess	0.0	Go_X	1.0
98.66	0.35	stopfail	0.507	Go_O	0.0
101.194	1.0	go	0.527	Go_X	1.0
103.727	1.0	go	0.526	Go_O	1.0
106.26	0.3	stopsuccess	0.0	Go_X	1.0
108.793	1.0	go	0.539	Go_X	1.0
111.327	1.0	go	0.517	Go_O	1.0
113.86	0.35	stopsuccess	0.0	Go_O	1.0
116.393	1.0	go	0.481	Go_X	1.0
118.926	1.0	go	0.627	Go_O	1.0
121.46	0.4	stopfail	0.527	Go_X	0.0
123.993	1.0	go	0.499	Go_X	1.0
126.526	1.0	go	0.556	Go_O	1.0
129.06	0.35	stopsuccess	0.0	Go_O	1.0
131.593	1.0	go	0.605	Go_X	1.0
134.126	1.0	go	0.645	Go_O	1.0
136.659	1.0	go	0.709	Go_X	1.0
139.193	1.0	go	0.618	Go_O	1.0
141.726	1.0	go	0.484	Go_X	1.0
144.259	0.4	stopsuccess	0.0	Go_X	1.0
146.792	1.0	go	0.504	Go_O	1.0
149.326	1.0	go	0.67	Go_X	1.0
151.859	1.0	go	0.545	Go_O	1.0
154.392	1.0	go	0.633	Go_O	1.0
156.926	1.0	go	0.622	Go_X	1.0
159.459	0.45	stopfail	0.519	Go_O	0.0
161.992	1.0	go	0.476	Go_X	1.0
164.525	1.0	go	0.595	Go_O	1.0
167.059	1.0	go	0.52	Go_X	1.0
169.592	1.0	go	0.524	Go_O	1.0
172.125	1.0	go	0.524	Go_O	1.0
174.659	1.0	go	0.842	Go_X	1.0
177.208	0.4	stopfail	0.421	Go_X	0.0
179.742	1.0	go	0.639	Go_O	1.0
182.275	1.0	go	0.53	Go_X	1.0
184.808	0.35	stopsuccess	0.0	Go_O	1.0
187.342	1.0	go	0.726	Go_O	1.0
189.875	0.4	stopfail	0.508	Go_X	0.0
192.408	0.35	stopsuccess	0.0	Go_O	1.0
194.941	1.0	go	0.394	Go_X	1.0
197.475	1.0	go	0.557	Go_X	1.0
200.008	1.0	go	0.587	Go_O	1.0
202.541	1.0	go	0.448	Go_O	1.0
205.074	0.4	stopfail	0.475	Go_X	0.0
207.608	1.0	go	0.477	Go_X	1.0
210.141	0.35	stopfail	0.494	Go_O	0.0
212.674	1.0	go	0.589	Go_O	1.0
215.208	1.0	go	0.521	Go_X	1.0
217.741	1.0	go	0.454	Go_X	1.0
220.274	1.0	go	0.508	Go_O	1.0
222.807	1.0	go	0.705	Go_O	1.0
225.341	1.0	go	0.493	Go_X	1.0
227.874	1.0	go	0.523	Go_O	1.0
230.407	1.0	go	0.558	Go_X	1.0
232.94	1.0	go	0.511	Go_X	1.0
235.474	0.3	stopsuccess	0.0	Go_X	1.0
238.007	1.0	go	0.538	Go_O	1.0
240.54	1.0	go	0.711	Go_X	1.0
243.074	1.0	go	0.506	Go_O	1.0
245.607	0.35	stopfail	0.437	Go_O	0.0
248.14	1.0	go	0.444	Go_O	1.0
250.673	1.0	go	0.584	Go_X	1.0
253.207	1.0	go	0.544	Go_X	1.0
255.74	1.0	go	0.631	Go_O	1.0
258.273	1.0	go	0.457	Go_O	1.0
260.807	1.0	go	0.547	Go_X	1.0
263.356	0.3	stopsuccess	0.0	Go_X	1.0
265.89	1.0	go	0.531	Go_X	1.0
268.423	1.0	go	0.402	Go_O	1.0
270.956	0.35	stopsuccess	0.0	Go_O	1.0
273.49	1.0	go	0.549	Go_X	1.0
276.023	1.0	go	0.578	Go_O	1.0
278.556	0.4	stopfail	0.52	Go_X	0.0
281.089	1.0	go	0.539	Go_O	1.0
283.623	0.35	stopsuccess	0.0	Go_O	1.0
286.156	1.0	go	0.4	Go_X	1.0
288.689	1.0	go	0.603	Go_O	1.0
291.222	1.0	go	0.694	Go_X	1.0
293.756	1.0	go	0.456	Go_O	1.0
296.289	1.0	go	0.674	Go_X	0.0
298.822	0.4	stopfail	0.451	Go_X	0.0
301.356	0.35	stopfail	0.431	Go_O	0.0
303.889	1.0	go	0.513	Go_O	1.0
306.422	1.0	go	0.428	Go_X	1.0
308.955	0.3	stopsuccess	0.0	Go_X	1.0
311.489	1.0	go	0.517	Go_X	1.0
314.022	1.0	go	0.523	Go_O	1.0
316.555	1.0	go	0.505	Go_O	1.0
319.088	1.0	go	0.604	Go_X	1.0
321.622	1.0	go	0.549	Go_X	1.0
324.155	1.0	go	0.435	Go_O	1.0
326.688	0.35	stopfail	0.505	Go_O	0.0
329.222	1.0	go	0.536	Go_O	1.0
331.755	1.0	go	0.511	Go_X	1.0
334.288	1.0	go	0.461	Go_O	1.0
336.821	1.0	go	0.503	Go_X	1.0
339.355	1.0	go	0.507	Go_O	1.0
341.888	0.3	stopsuccess	0.0	Go_X	1.0
344.421	1.0	go	0.54	Go_X	1.0
346.954	1.0	go	0.591	Go_O	1.0
349.488	1.0	go	0.54	Go_X	1.0
352.021	1.0	go	0.58	Go_X	1.0
354.554	0.35	stopsuccess	0.0	Go_O	1.0
357.088	1.0	go	0.531	Go_O	1.0
359.621	1.0	go	0.499	Go_X	1.0
362.154	0.4	stopfail	0.449	Go_X	0.0
364.687	1.0	go	0.662	Go_O	1.0
367.221	0.35	stopfail	0.478	Go_O	0.0
369.754	1.0	go	0.634	Go_O	1.0
372.287	1.0	go	0.404	Go_X	1.0
374.821	1.0	go	0.591	Go_O	1.0
377.37	1.0	go	0.614	Go_X	1.0
379.904	1.0	go	0.726	Go_O	1.0
382.437	1.0	go	0.427	Go_X	1.0
384.97	1.0	go	0.476	Go_O	1.0
387.504	0.3	stopfail	0.446	Go_X	0.0
390.037	1.0	go	0.306	Go_X	1.0
392.57	1.0	go	0.371	Go_X	1.0
395.103	1.0	go	0.573	Go_O	1.0
397.637	0.25	stopfail	0.391	Go_O	0.0
400.17	1.0	go	0.45	Go_O	1.0
402.703	1.0	go	0.578	Go_X	1.0
405.236	1.0	go	0.478	Go_O	1.0
407.77	1.0	go	0.488	Go_X	1.0
410.303	0.2	stopsuccess	0.0	Go_X	1.0
412.836	1.0	go	0.435	Go_X	1.0
415.37	1.0	go	0.476	Go_O	1.0
417.903	0.25	stopsuccess	0.0	Go_O	1.0
420.436	1.0	go	0.801	Go_X	1.0
422.969	1.0	go	0.544	Go_O	1.0
425.503	0.3	stopsuccess	0.0	Go_X	1.0
428.036	1.0	go	0.497	Go_X	1.0
430.569	1.0	go	0.518	Go_O	1.0
433.103	0.35	stopfail	0.53	Go_O	0.0
435.652	1.0	go	0.465	Go_O	1.0
438.186	1.0	go	0.453	Go_X	1.0
440.719	1.0	go	0.488	Go_O	1.0
443.252	1.0	go	0.606	Go_X	1.0
445.786	1.0	go	0.408	Go_O	1.0
448.319	1.0	go	0.611	Go_X	1.0
450.852	0.3	stopfail	0.41	Go_X	0.0
453.385	1.0	go	0.387	Go_X	1.0
455.919	0.25	stopsuccess	0.0	Go_O	1.0
458.452	1.0	go	0.489	Go_O	1.0
460.985	1.0	go	0.555	Go_O	1.0
463.518	1.0	go	0.399	Go_X	1.0
466.052	1.0	go	0.462	Go_X	1.0
468.585	1.0	go	0.453	Go_O	1.0
471.118	0.3	stopfail	0.39	Go_X	0.0
473.652	1.0	go	0.341	Go_O	1.0
476.185	1.0	go	0.333	Go_X	1.0
478.718	1.0	go	0.413	Go_O	1.0
481.251	0.25	stopsuccess	0.0	Go_O	1.0
483.785	0.3	stopfail	0.509	Go_X	0.0
486.318	0.25	stopsuccess	0.0	Go_O	1.0
488.851	1.0	go	0.452	Go_X	1.0
491.384	0.3	stopfail	0.368	Go_X	0.0
493.918	1.0	go	0.442	Go_X	1.0
496.451	1.0	go	0.518	Go_O	1.0
498.984	1.0	go	0.329	Go_X	1.0
501.518	1.0	go	0.291	Go_O	1.0
504.051	1.0	go	0.488	Go_O	1.0
506.584	1.0	go	0.596	Go_X	1.0
509.117	1.0	go	0.669	Go_X	1.0
511.651	1.0	go	0.276	Go_O	1.0
514.184	0.25	stopsuccess	0.0	Go_O	1.0
516.717	1.0	go	0.288	Go_X	1.0
519.251	1.0	go	0.404	Go_O	1.0
521.8	0.3	stopfail	0.263	Go_X	0.0
524.334	1.0	go	0.404	Go_O	1.0
526.867	1.0	go	0.499	Go_X	1.0
529.4	1.0	go	0.332	Go_O	1.0
531.934	1.0	go	0.367	Go_X	1.0
534.483	1.0	go	0.659	Go_X	1.0
537.017	0.25	stopsuccess	0.0	Go_O	1.0
539.55	1.0	go	0.487	Go_O	1.0
542.083	1.0	go	0.354	Go_O	1.0
544.617	1.0	go	0.302	Go_X	1.0
547.15	0.3	stopfail	0.39	Go_X	0.0
549.683	1.0	go	0.388	Go_X	1.0
552.216	0.25	stopsuccess	0.0	Go_O	1.0
554.75	1.0	go	0.351	Go_O	1.0
557.283	1.0	go	0.375	Go_O	1.0
559.816	1.0	go	0.494	Go_X	1.0
562.349	1.0	go	0.515	Go_X	1.0
564.883	1.0	go	0.508	Go_O	1.0
567.416	1.0	go	0.685	Go_O	1.0
569.949	1.0	go	0.363	Go_X	1.0
572.483	0.3	stopfail	0.378	Go_X	0.0
575.016	1.0	go	0.422	Go_X	1.0
577.549	1.0	go	0.468	Go_O	1.0
580.082	1.0	go	0.342	Go_X	1.0
582.616	1.0	go	0.238	Go_O	1.0
585.149	0.25	stopsuccess	0.0	Go_O	1.0
587.682	1.0	go	0.409	Go_O	1.0
590.216	0.3	stopsuccess	0.0	Go_X	1.0
592.765	1.0	go	0.648	Go_X	1.0
595.299	1.0	go	0.388	Go_X	1.0
597.832	0.35	stopsuccess	0.0	Go_O	1.0
600.365	1.0	go	0.405	Go_O	1.0
602.899	1.0	go	0.601	Go_X	1.0
605.432	1.0	go	0.557	Go_O	1.0
607.965	1.0	go	0.584	Go_O	1.0
610.498	1.0	go	0.604	Go_X	1.0
613.032	1.0	go	0.522	Go_O	1.0
615.565	1.0	go	0.539	Go_X	1.0
618.098	1.0	go	0.641	Go_O	1.0
620.631	1.0	go	0.468	Go_X	1.0
623.165	1.0	go	0.545	Go_X	1.0
625.698	0.4	stopfail	0.425	Go_X	0.0
628.231	1.0	go	0.458	Go_O	1.0
630.765	1.0	go	0.55	Go_O	1.0
633.298	0.35	stopfail	0.429	Go_O	0.0
635.831	1.0	go	0.496	Go_X	1.0
638.364	0.3	stopfail	0.477	Go_X	0.0
640.898	1.0	go	0.571	Go_O	1.0
643.431	1.0	go	0.481	Go_X	1.0
645.964	0.25	stopsuccess	0.0	Go_O	1.0
648.497	1.0	go	0.745	Go_X	1.0
651.031	0.3	stopfail	0.426	Go_X	0.0
653.564	1.0	go	0.358	Go_O	1.0
656.097	1.0	go	0.514	Go_O	1.0
658.631	1.0	go	0.518	Go_X	1.0
661.164	0.25	stopsuccess	0.0	Go_O	1.0
663.697	1.0	go	0.0	Go_X	0.0
666.23	1.0	go	0.366	Go_O	1.0
668.764	1.0	go	0.521	Go_O	1.0
671.297	1.0	go	0.564	Go_X	1.0
673.83	0.3	stopfail	0.478	Go_X	0.0
676.363	1.0	go	0.706	Go_O	1.0
678.897	1.0	go	0.5	Go_X	1.0
681.43	0.25	stopsuccess	0.0	Go_O	1.0
683.963	1.0	go	0.908	Go_X	1.0
686.497	1.0	go	0.523	Go_O	1.0
689.03	1.0	go	0.403	Go_O	1.0
691.563	1.0	go	0.483	Go_X	1.0
694.096	0.3	stopsuccess	0.0	Go_X	1.0
696.63	1.0	go	0.562	Go_X	1.0
699.163	0.35	stopfail	0.426	Go_O	0.0
701.696	1.0	go	0.467	Go_O	1.0
704.23	1.0	go	0.47	Go_O	1.0
706.779	0.3	stopsuccess	0.0	Go_X	1.0
709.313	1.0	go	0.509	Go_X	1.0
711.846	1.0	go	0.289	Go_O	1.0
714.379	1.0	go	0.359	Go_X	1.0
716.913	1.0	go	0.387	Go_X	1.0
719.446	0.35	stopfail	0.365	Go_O	0.0
721.979	1.0	go	0.593	Go_O	1.0
724.512	0.3	stopsuccess	0.0	Go_X	1.0
727.046	1.0	go	0.456	Go_X	1.0
729.579	1.0	go	0.505	Go_O	1.0
732.112	1.0	go	0.908	Go_O	1.0
734.645	1.0	go	0.649	Go_X	1.0
737.179	1.0	go	0.65	Go_X	1.0
739.712	1.0	go	0.422	Go_O	1.0
742.245	0.35	stopsuccess	0.0	Go_O	1.0
744.779	1.0	go	0.652	Go_O	1.0
747.312	1.0	go	0.452	Go_X	1.0
749.845	0.4	stopfail	0.336	Go_X	0.0
752.378	1.0	go	0.321	Go_O	1.0
754.912	1.0	go	0.526	Go_X	1.0
757.445	0.35	stopfail	0.405	Go_O	0.0
759.978	1.0	go	0.4	Go_X	1.0
762.511	1.0	go	0.482	Go_O	1.0
765.045	1.0	go	0.411	Go_O	1.0
767.578	1.0	go	0.327	Go_X	1.0
770.111	0.3	stopfail	0.439	Go_X	0.0
772.645	1.0	go	0.602	Go_X	1.0
775.178	0.25	stopsuccess	0.0	Go_O	1.0
777.711	1.0	go	0.496	Go_O	1.0
780.244	1.0	go	0.622	Go_X	1.0
782.778	1.0	go	0.0	Go_O	0.0
785.311	1.0	go	0.487	Go_X	1.0
787.844	1.0	go	0.0	Go_O	0.0
790.378	0.3	stopfail	0.356	Go_X	0.0
792.927	1.0	go	0.743	Go_X	1.0
795.461	1.0	go	0.325	Go_O	1.0
797.994	0.25	stopsuccess	0.0	Go_O	1.0
800.527	0.3	stopsuccess	0.0	Go_X	1.0
803.061	1.0	go	0.65	Go_X	1.0
805.594	1.0	go	0.553	Go_O	1.0
808.127	1.0	go	0.376	Go_O	1.0
810.66	1.0	go	0.543	Go_X	1.0
813.194	0.35	stopsuccess	0.0	Go_O	1.0
815.727	1.0	go	0.482	Go_O	1.0
