onset	duration	trial_type	response_time	stim_file	accuracy
549.949	1.0	go	0.618	Go_O	1.0
552.557	1.0	go	0.268	Go_X	1.0
555.081	1.0	go	0.237	Go_X	1.0
557.605	1.0	go	0.212	Go_O	1.0
560.129	1.0	go	0.203	Go_X	1.0
562.653	1.0	go	0.299	Go_O	1.0
565.178	0.25	stop	0.222	Go_O	0.0
567.702	1.0	go	0.321	Go_X	1.0
570.226	0.2	stop	0.353	Go_X	0.0
572.75	1.0	go	0.644	Go_O	1.0
575.275	1.0	go	0.233	Go_X	1.0
577.799	1.0	go	0.305	Go_O	1.0
580.323	0.15	stop	0.344	Go_O	0.0
582.864	1.0	go	0.369	Go_O	1.0
585.388	1.0	go	0.547	Go_X	1.0
587.912	0.1	stop	0.0	Go_X	1.0
590.437	0.15	stop	0.0	Go_O	1.0
592.961	1.0	go	0.378	Go_O	1.0
595.485	1.0	go	0.264	Go_X	1.0
598.009	0.2	stop	0.371	Go_X	0.0
600.534	1.0	go	0.525	Go_X	1.0
603.058	1.0	go	0.451	Go_O	1.0
605.582	0.15	stop	0.0	Go_O	1.0
608.106	1.0	go	0.305	Go_X	1.0
610.63	1.0	go	0.534	Go_O	1.0
613.155	0.2	stop	0.459	Go_X	0.0
615.679	1.0	go	0.559	Go_O	1.0
618.203	1.0	go	0.401	Go_X	0.0
620.727	0.15	stop	0.0	Go_O	1.0
623.252	1.0	go	0.543	Go_X	1.0
625.776	1.0	go	0.371	Go_O	1.0
628.3	1.0	go	0.751	Go_X	1.0
630.824	1.0	go	0.384	Go_O	1.0
633.348	1.0	go	0.481	Go_O	1.0
635.873	0.2	stop	0.0	Go_X	1.0
638.397	1.0	go	0.447	Go_X	1.0
640.921	1.0	go	0.463	Go_X	1.0
643.445	1.0	go	0.407	Go_O	1.0
645.97	1.0	go	0.388	Go_O	1.0
648.494	1.0	go	0.427	Go_X	1.0
651.018	0.25	stop	0.0	Go_O	1.0
653.542	1.0	go	0.406	Go_X	1.0
656.066	1.0	go	0.483	Go_O	1.0
658.591	1.0	go	0.504	Go_X	1.0
661.115	1.0	go	0.373	Go_O	1.0
663.639	1.0	go	0.419	Go_O	1.0
666.163	1.0	go	0.552	Go_X	1.0
668.688	0.3	stop	0.0	Go_X	1.0
671.212	1.0	go	0.5	Go_O	1.0
673.736	1.0	go	0.47	Go_X	1.0
676.26	0.35	stop	0.0	Go_O	1.0
678.784	1.0	go	0.487	Go_O	0.0
681.309	0.4	stop	0.454	Go_X	0.0
683.833	0.35	stop	0.0	Go_O	1.0
686.357	1.0	go	0.313	Go_X	0.0
688.881	1.0	go	0.427	Go_X	1.0
691.406	1.0	go	0.364	Go_O	1.0
693.93	1.0	go	0.367	Go_O	1.0
696.454	0.4	stop	0.324	Go_X	0.0
698.978	1.0	go	0.392	Go_X	1.0
701.503	0.35	stop	0.469	Go_O	0.0
704.027	1.0	go	0.386	Go_X	1.0
706.551	1.0	go	0.594	Go_O	1.0
709.075	1.0	go	0.513	Go_X	1.0
711.599	1.0	go	0.0	Go_O	0.0
714.124	1.0	go	0.365	Go_X	1.0
716.648	1.0	go	0.462	Go_O	1.0
719.172	1.0	go	0.532	Go_O	1.0
721.696	1.0	go	0.482	Go_X	1.0
724.221	1.0	go	0.509	Go_X	1.0
726.745	0.3	stop	0.0	Go_X	1.0
729.269	1.0	go	0.386	Go_O	1.0
731.793	1.0	go	0.5	Go_X	1.0
734.317	1.0	go	0.337	Go_O	1.0
736.842	0.35	stop	0.435	Go_O	0.0
739.366	1.0	go	0.644	Go_O	1.0
741.89	1.0	go	0.464	Go_X	1.0
744.414	1.0	go	0.449	Go_X	1.0
746.939	1.0	go	0.39	Go_O	1.0
749.463	1.0	go	0.597	Go_X	1.0
751.987	1.0	go	0.413	Go_O	1.0
754.511	0.3	stop	0.321	Go_X	0.0
757.035	1.0	go	0.529	Go_O	0.0
759.56	1.0	go	0.367	Go_X	1.0
762.084	0.25	stop	0.443	Go_O	0.0
764.608	1.0	go	0.452	Go_O	1.0
767.132	1.0	go	0.402	Go_X	1.0
769.657	0.2	stop	0.0	Go_X	1.0
772.181	1.0	go	0.415	Go_X	1.0
774.705	0.25	stop	0.0	Go_O	1.0
777.229	1.0	go	0.519	Go_O	1.0
779.753	1.0	go	0.462	Go_O	1.0
782.278	1.0	go	0.429	Go_X	1.0
784.802	1.0	go	0.41	Go_X	1.0
787.326	1.0	go	0.429	Go_O	1.0
789.85	0.3	stop	0.431	Go_X	0.0
792.375	0.25	stop	0.0	Go_O	1.0
794.899	1.0	go	0.519	Go_O	1.0
797.423	1.0	go	0.383	Go_X	1.0
799.947	0.3	stop	0.0	Go_X	1.0
802.471	1.0	go	0.472	Go_O	1.0
804.996	1.0	go	0.734	Go_X	1.0
807.52	1.0	go	0.629	Go_X	1.0
810.044	1.0	go	0.382	Go_O	1.0
812.568	1.0	go	0.62	Go_O	1.0
815.093	1.0	go	0.452	Go_X	1.0
817.617	0.35	stop	0.577	Go_O	0.0
820.141	1.0	go	0.583	Go_X	1.0
822.665	1.0	go	0.481	Go_O	1.0
825.19	1.0	go	0.477	Go_O	1.0
827.714	1.0	go	0.381	Go_X	1.0
830.238	1.0	go	0.549	Go_O	1.0
832.762	0.3	stop	0.444	Go_X	0.0
835.286	1.0	go	0.363	Go_X	1.0
837.811	1.0	go	0.398	Go_O	1.0
840.335	1.0	go	0.531	Go_X	1.0
842.859	1.0	go	0.544	Go_O	1.0
845.383	0.25	stop	0.0	Go_O	1.0
847.908	1.0	go	0.365	Go_X	1.0
850.432	1.0	go	0.403	Go_O	1.0
852.956	0.3	stop	0.466	Go_X	0.0
855.48	1.0	go	0.735	Go_X	1.0
858.004	0.25	stop	0.0	Go_O	1.0
860.529	1.0	go	0.691	Go_X	0.0
863.053	1.0	go	0.445	Go_O	0.0
865.577	1.0	go	0.436	Go_X	1.0
868.101	1.0	go	0.364	Go_O	1.0
870.626	1.0	go	0.433	Go_O	1.0
873.15	1.0	go	0.533	Go_X	1.0
875.674	1.0	go	0.451	Go_O	1.0
878.198	0.3	stop	0.42	Go_X	0.0
880.722	1.0	go	0.466	Go_X	1.0
883.247	1.0	go	0.419	Go_X	1.0
885.771	1.0	go	0.505	Go_O	1.0
888.295	0.25	stop	0.0	Go_O	1.0
890.819	1.0	go	0.377	Go_O	1.0
893.344	1.0	go	0.525	Go_X	0.0
895.868	1.0	go	0.349	Go_O	1.0
898.392	1.0	go	0.485	Go_X	1.0
900.916	0.3	stop	0.493	Go_X	0.0
903.44	1.0	go	0.419	Go_O	1.0
905.965	1.0	go	0.787	Go_X	1.0
908.489	0.25	stop	0.0	Go_O	1.0
911.013	1.0	go	0.556	Go_X	1.0
913.537	1.0	go	0.606	Go_O	1.0
916.062	0.3	stop	0.461	Go_X	0.0
918.586	1.0	go	0.682	Go_O	1.0
921.11	1.0	go	0.619	Go_X	1.0
923.634	0.25	stop	0.0	Go_O	1.0
926.159	1.0	go	0.382	Go_X	1.0
928.683	1.0	go	0.651	Go_O	0.0
931.207	1.0	go	0.612	Go_O	1.0
933.731	1.0	go	0.516	Go_X	1.0
936.255	1.0	go	0.506	Go_O	1.0
938.78	1.0	go	0.54	Go_X	1.0
941.304	0.3	stop	0.467	Go_X	0.0
943.828	1.0	go	0.526	Go_O	1.0
946.352	0.25	stop	0.0	Go_O	1.0
948.877	1.0	go	0.42	Go_X	1.0
951.401	1.0	go	0.485	Go_O	1.0
953.925	1.0	go	0.593	Go_X	1.0
956.449	1.0	go	0.446	Go_X	1.0
958.973	1.0	go	0.447	Go_O	1.0
961.498	0.3	stop	0.325	Go_X	0.0
964.022	1.0	go	0.491	Go_X	1.0
966.546	1.0	go	0.403	Go_O	1.0
969.07	1.0	go	0.434	Go_X	1.0
971.595	0.25	stop	0.447	Go_O	0.0
974.119	0.2	stop	0.303	Go_X	0.0
976.643	0.15	stop	0.0	Go_O	1.0
979.167	1.0	go	0.493	Go_O	1.0
981.691	0.2	stop	0.326	Go_X	0.0
984.216	1.0	go	0.64	Go_X	1.0
986.74	1.0	go	0.408	Go_O	1.0
989.264	1.0	go	0.449	Go_O	1.0
991.788	1.0	go	0.526	Go_X	1.0
994.313	1.0	go	0.511	Go_X	1.0
996.837	1.0	go	0.505	Go_O	1.0
999.361	1.0	go	0.39	Go_X	1.0
1001.885	1.0	go	0.405	Go_O	1.0
1004.409	0.15	stop	0.0	Go_O	1.0
1006.934	1.0	go	0.665	Go_O	1.0
1009.458	1.0	go	0.571	Go_X	1.0
1011.982	0.2	stop	0.0	Go_X	1.0
1014.506	1.0	go	0.49	Go_X	1.0
1017.031	1.0	go	0.471	Go_O	1.0
1019.555	1.0	go	0.292	Go_X	0.0
1022.079	1.0	go	0.457	Go_O	1.0
1024.603	1.0	go	0.415	Go_O	1.0
1027.127	0.25	stop	0.518	Go_O	0.0
1029.652	1.0	go	0.499	Go_X	1.0
1032.176	1.0	go	0.447	Go_O	1.0
1034.7	1.0	go	0.538	Go_X	1.0
1037.224	0.2	stop	0.0	Go_X	1.0
1039.749	1.0	go	0.722	Go_O	1.0
1042.273	0.25	stop	0.0	Go_O	1.0
1044.797	1.0	go	0.648	Go_X	1.0
1047.321	1.0	go	0.534	Go_O	1.0
1049.846	1.0	go	0.6	Go_X	1.0
1052.37	1.0	go	0.51	Go_X	1.0
1054.894	1.0	go	0.549	Go_O	1.0
1057.418	1.0	go	0.505	Go_X	1.0
1059.942	1.0	go	0.888	Go_O	1.0
1062.467	0.3	stop	0.0	Go_X	1.0
1065.008	1.0	go	0.621	Go_X	1.0
1067.532	1.0	go	0.643	Go_O	1.0
1070.056	1.0	go	0.709	Go_O	1.0
1072.58	1.0	go	0.635	Go_X	1.0
1075.104	0.35	stop	0.405	Go_O	0.0
1077.629	1.0	go	0.515	Go_O	1.0
1080.153	0.3	stop	0.483	Go_X	0.0
1082.677	1.0	go	0.502	Go_X	1.0
1085.201	1.0	go	0.512	Go_O	1.0
1087.726	0.25	stop	0.0	Go_O	1.0
1090.25	1.0	go	0.551	Go_X	1.0
1092.774	1.0	go	0.63	Go_X	0.0
1095.298	1.0	go	0.0	Go_O	0.0
1097.822	1.0	go	0.509	Go_X	1.0
1100.347	1.0	go	0.497	Go_O	1.0
1102.871	1.0	go	0.446	Go_X	1.0
1105.395	1.0	go	0.685	Go_O	1.0
1107.919	1.0	go	0.463	Go_X	1.0
1110.444	1.0	go	0.444	Go_O	1.0
1112.968	1.0	go	0.661	Go_X	1.0
1115.492	0.3	stop	0.0	Go_X	1.0
1118.016	1.0	go	0.505	Go_O	1.0
1120.541	1.0	go	0.723	Go_X	1.0
1123.065	0.35	stop	0.402	Go_O	0.0
1125.589	1.0	go	0.426	Go_O	1.0
1128.113	0.3	stop	0.0	Go_X	1.0
1130.637	1.0	go	0.57	Go_X	1.0
1133.162	1.0	go	0.519	Go_O	1.0
1135.686	0.35	stop	0.0	Go_O	1.0
1138.21	1.0	go	0.0	Go_O	0.0
1140.734	0.4	stop	0.515	Go_X	0.0
1143.259	1.0	go	0.457	Go_X	1.0
1145.783	1.0	go	0.533	Go_O	1.0
1148.307	1.0	go	0.785	Go_X	1.0
1150.831	0.35	stop	0.0	Go_O	1.0
1153.355	1.0	go	0.0	Go_O	0.0
1155.88	1.0	go	0.72	Go_X	1.0
1158.404	1.0	go	0.476	Go_O	1.0
1160.928	1.0	go	0.458	Go_X	1.0
1163.452	0.4	stop	0.346	Go_X	0.0
1165.977	1.0	go	0.607	Go_X	1.0
1168.501	1.0	go	0.519	Go_O	1.0
1171.025	0.35	stop	0.679	Go_O	0.0
1173.549	1.0	go	0.632	Go_X	1.0
1176.073	1.0	go	0.0	Go_O	0.0
1178.598	1.0	go	0.545	Go_O	1.0
1181.122	1.0	go	0.799	Go_X	1.0
1183.646	0.3	stop	0.423	Go_X	0.0
1186.17	1.0	go	0.684	Go_X	1.0
1188.695	0.25	stop	0.0	Go_O	1.0
1191.219	1.0	go	0.338	Go_O	1.0
1193.743	1.0	go	0.633	Go_O	1.0
1196.267	0.3	stop	0.453	Go_X	0.0
1198.791	1.0	go	0.555	Go_X	1.0
1201.316	1.0	go	0.629	Go_X	1.0
1203.84	1.0	go	0.567	Go_O	1.0
1206.364	1.0	go	0.428	Go_O	1.0
1208.888	0.25	stop	0.477	Go_O	0.0
1211.413	1.0	go	0.641	Go_X	1.0
1213.937	0.2	stop	0.0	Go_X	1.0
1216.461	1.0	go	0.456	Go_X	1.0
1218.985	1.0	go	0.456	Go_O	1.0
1221.509	1.0	go	0.445	Go_X	1.0
1224.034	1.0	go	0.459	Go_O	1.0
1226.558	1.0	go	0.35	Go_O	1.0
1229.082	1.0	go	0.461	Go_X	1.0
1231.606	0.25	stop	0.634	Go_O	0.0
1234.131	1.0	go	0.53	Go_X	1.0
1236.655	1.0	go	0.516	Go_O	0.0
1239.179	0.2	stop	0.0	Go_X	1.0
1241.703	1.0	go	0.495	Go_X	0.0
1244.228	1.0	go	0.452	Go_O	0.0
1246.752	0.25	stop	0.581	Go_O	0.0
1249.276	1.0	go	0.366	Go_O	1.0
1251.8	1.0	go	0.637	Go_X	1.0
1254.324	1.0	go	0.627	Go_X	1.0
1256.849	1.0	go	0.371	Go_O	1.0
1259.373	0.2	stop	0.336	Go_X	0.0
1261.897	1.0	go	0.417	Go_O	1.0
1264.421	0.15	stop	0.0	Go_O	1.0
1266.946	1.0	go	0.564	Go_X	1.0
1269.47	1.0	go	0.569	Go_O	0.0
1271.994	1.0	go	0.512	Go_X	1.0
1274.518	1.0	go	0.469	Go_O	1.0
1277.042	1.0	go	0.506	Go_X	1.0
1279.567	0.2	stop	0.0	Go_X	1.0
1282.091	1.0	go	0.942	Go_O	1.0
1284.615	1.0	go	0.866	Go_X	1.0
1287.139	0.25	stop	0.392	Go_O	0.0
1289.664	0.2	stop	0.0	Go_X	1.0
1292.188	1.0	go	0.631	Go_O	1.0
1294.712	1.0	go	0.0	Go_X	0.0
1297.236	1.0	go	0.471	Go_X	1.0
1299.76	1.0	go	0.518	Go_O	1.0
1302.285	0.25	stop	0.434	Go_O	0.0
1304.809	1.0	go	0.438	Go_X	1.0
