onset	duration	trial_type	response_time	stim_file	accuracy
61.792	1.0	go	0.0	Go_O	0.0
64.367	1.0	go	0.056	Go_X	1.0
66.891	1.0	go	0.445	Go_X	1.0
69.415	1.0	go	0.346	Go_O	1.0
71.939	1.0	go	0.323	Go_X	1.0
74.463	1.0	go	0.225	Go_O	1.0
76.988	0.25	stop	0.404	Go_O	0.0
79.512	1.0	go	0.666	Go_O	1.0
82.036	0.2	stop	0.297	Go_X	0.0
84.56	1.0	go	0.578	Go_X	1.0
87.084	1.0	go	0.592	Go_O	1.0
89.608	1.0	go	0.515	Go_X	1.0
92.133	0.15	stop	0.0	Go_O	1.0
94.657	1.0	go	0.534	Go_X	1.0
97.181	1.0	go	0.523	Go_O	1.0
99.705	0.2	stop	0.0	Go_X	1.0
102.229	0.25	stop	0.296	Go_O	0.0
104.754	1.0	go	0.613	Go_O	1.0
107.278	1.0	go	0.689	Go_X	1.0
109.802	0.2	stop	0.0	Go_X	1.0
112.326	1.0	go	0.572	Go_O	1.0
114.85	1.0	go	0.641	Go_X	1.0
117.374	0.25	stop	0.0	Go_O	1.0
119.899	1.0	go	0.562	Go_O	1.0
122.423	1.0	go	0.616	Go_X	1.0
124.947	0.3	stop	0.0	Go_X	1.0
127.471	1.0	go	0.54	Go_O	1.0
129.995	1.0	go	0.728	Go_X	1.0
132.519	0.35	stop	0.0	Go_O	1.0
135.044	1.0	go	0.421	Go_O	1.0
137.568	1.0	go	0.695	Go_X	1.0
140.092	1.0	go	0.661	Go_O	1.0
142.616	1.0	go	0.613	Go_X	1.0
145.14	1.0	go	0.569	Go_X	1.0
147.681	0.4	stop	0.0	Go_X	1.0
150.205	1.0	go	0.43	Go_O	1.0
152.729	1.0	go	0.583	Go_O	1.0
155.254	1.0	go	0.568	Go_X	1.0
157.778	1.0	go	0.587	Go_O	1.0
160.302	1.0	go	0.578	Go_X	1.0
162.826	0.45	stop	0.451	Go_O	0.0
165.35	1.0	go	0.501	Go_O	1.0
167.875	1.0	go	0.623	Go_X	1.0
170.399	1.0	go	0.605	Go_O	1.0
172.923	1.0	go	0.341	Go_X	1.0
175.447	1.0	go	0.599	Go_O	1.0
177.971	1.0	go	0.869	Go_X	1.0
180.495	0.4	stop	0.435	Go_X	0.0
183.02	1.0	go	0.524	Go_O	1.0
185.544	1.0	go	0.601	Go_X	1.0
188.068	0.35	stop	0.442	Go_O	0.0
190.592	1.0	go	0.695	Go_X	1.0
193.116	0.3	stop	0.0	Go_X	1.0
195.64	0.35	stop	0.0	Go_O	1.0
198.165	1.0	go	0.59	Go_O	1.0
200.689	1.0	go	0.591	Go_O	1.0
203.213	1.0	go	0.701	Go_X	1.0
205.737	1.0	go	0.497	Go_O	1.0
208.278	0.4	stop	0.0	Go_X	1.0
210.802	1.0	go	0.615	Go_X	1.0
213.326	0.45	stop	0.0	Go_O	1.0
215.851	1.0	go	0.452	Go_X	1.0
218.375	1.0	go	0.627	Go_O	1.0
220.899	1.0	go	0.639	Go_O	1.0
223.423	1.0	go	0.589	Go_X	1.0
225.947	1.0	go	0.678	Go_X	1.0
228.471	1.0	go	0.611	Go_O	1.0
230.996	1.0	go	0.722	Go_O	1.0
233.52	1.0	go	0.689	Go_X	1.0
236.044	1.0	go	0.528	Go_O	1.0
238.568	0.5	stop	0.738	Go_X	0.0
241.092	1.0	go	0.737	Go_X	1.0
243.616	1.0	go	0.667	Go_X	1.0
246.143	1.0	go	0.684	Go_O	1.0
248.665	0.45	stop	0.0	Go_O	1.0
251.189	1.0	go	0.6	Go_O	1.0
253.713	1.0	go	0.588	Go_X	1.0
256.237	1.0	go	0.38	Go_X	1.0
258.761	1.0	go	0.46	Go_O	1.0
261.286	1.0	go	0.532	Go_O	1.0
263.81	1.0	go	0.495	Go_X	1.0
266.334	0.5	stop	0.591	Go_X	0.0
268.858	1.0	go	0.644	Go_X	1.0
271.382	1.0	go	0.666	Go_O	1.0
273.906	0.45	stop	0.552	Go_O	0.0
276.431	1.0	go	0.577	Go_X	1.0
278.955	1.0	go	0.601	Go_O	1.0
281.479	0.4	stop	0.0	Go_X	1.0
284.003	1.0	go	0.679	Go_X	1.0
286.527	0.45	stop	0.0	Go_O	1.0
289.051	1.0	go	0.613	Go_O	1.0
291.576	1.0	go	0.759	Go_X	1.0
294.1	1.0	go	0.617	Go_O	1.0
296.624	1.0	go	0.653	Go_X	1.0
299.148	1.0	go	0.6	Go_O	1.0
301.672	0.5	stop	0.461	Go_X	0.0
304.197	0.45	stop	0.516	Go_O	0.0
306.721	1.0	go	0.685	Go_O	1.0
309.245	1.0	go	0.714	Go_X	1.0
311.769	0.4	stop	0.488	Go_X	0.0
314.293	1.0	go	0.602	Go_O	1.0
316.817	1.0	go	0.802	Go_X	1.0
319.342	1.0	go	0.697	Go_X	1.0
321.866	1.0	go	0.69	Go_O	1.0
324.39	1.0	go	0.581	Go_O	1.0
326.914	1.0	go	0.432	Go_X	1.0
329.438	0.35	stop	0.0	Go_O	1.0
331.962	1.0	go	0.646	Go_X	0.0
334.487	1.0	go	0.652	Go_O	1.0
337.011	1.0	go	0.504	Go_X	1.0
339.535	1.0	go	0.68	Go_O	1.0
342.059	1.0	go	0.598	Go_X	1.0
344.583	0.4	stop	0.0	Go_X	1.0
347.107	1.0	go	0.543	Go_O	1.0
349.632	1.0	go	0.652	Go_X	1.0
352.156	1.0	go	0.628	Go_O	1.0
354.68	1.0	go	0.523	Go_X	1.0
357.204	0.45	stop	0.47	Go_O	0.0
359.728	1.0	go	0.606	Go_O	1.0
362.252	1.0	go	0.677	Go_X	1.0
364.777	0.4	stop	0.0	Go_X	1.0
367.301	1.0	go	0.564	Go_O	1.0
369.825	0.45	stop	0.0	Go_O	1.0
372.349	1.0	go	0.537	Go_X	1.0
374.873	1.0	go	0.649	Go_O	1.0
377.397	1.0	go	0.0	Go_O	0.0
379.922	1.0	go	0.395	Go_X	1.0
382.446	1.0	go	0.574	Go_O	1.0
384.97	1.0	go	0.601	Go_X	1.0
387.494	1.0	go	0.556	Go_X	1.0
390.018	0.5	stop	0.0	Go_X	1.0
392.543	1.0	go	0.449	Go_O	1.0
395.067	1.0	go	0.634	Go_X	1.0
397.591	1.0	go	0.56	Go_O	1.0
400.115	0.55	stop	0.464	Go_O	0.0
402.639	1.0	go	0.672	Go_O	1.0
405.163	1.0	go	0.665	Go_X	1.0
407.688	1.0	go	0.647	Go_O	1.0
410.212	1.0	go	0.566	Go_X	1.0
412.736	0.5	stop	0.617	Go_X	0.0
415.26	1.0	go	0.542	Go_O	1.0
417.784	1.0	go	0.617	Go_X	1.0
420.308	0.45	stop	0.587	Go_O	0.0
422.833	1.0	go	0.636	Go_X	1.0
425.357	1.0	go	0.615	Go_O	1.0
427.881	0.4	stop	0.541	Go_X	0.0
430.405	1.0	go	0.81	Go_O	1.0
432.929	1.0	go	0.729	Go_X	1.0
435.453	0.35	stop	0.0	Go_O	1.0
437.978	1.0	go	0.64	Go_O	1.0
440.502	1.0	go	0.893	Go_X	1.0
443.026	1.0	go	0.636	Go_O	1.0
445.55	1.0	go	0.721	Go_X	1.0
448.074	1.0	go	0.827	Go_X	1.0
450.598	1.0	go	0.88	Go_O	1.0
453.123	0.4	stop	0.0	Go_X	1.0
455.647	1.0	go	0.802	Go_X	1.0
458.171	0.45	stop	0.727	Go_O	0.0
460.695	1.0	go	0.864	Go_O	1.0
463.219	1.0	go	0.706	Go_O	1.0
465.743	1.0	go	0.654	Go_X	1.0
468.268	1.0	go	0.68	Go_X	1.0
470.792	1.0	go	0.586	Go_O	1.0
473.316	0.4	stop	0.0	Go_X	1.0
475.84	1.0	go	0.595	Go_X	1.0
478.364	1.0	go	0.588	Go_O	1.0
480.889	1.0	go	0.737	Go_X	1.0
483.413	0.45	stop	0.618	Go_O	0.0
485.937	0.4	stop	0.0	Go_X	1.0
488.461	0.45	stop	0.51	Go_O	0.0
490.985	1.0	go	0.627	Go_O	1.0
493.509	0.4	stop	0.0	Go_X	1.0
496.034	1.0	go	0.763	Go_X	1.0
498.558	1.0	go	0.716	Go_O	1.0
501.082	1.0	go	0.775	Go_O	1.0
503.606	1.0	go	0.818	Go_X	1.0
506.13	1.0	go	0.637	Go_O	1.0
508.671	1.0	go	0.591	Go_X	1.0
511.195	1.0	go	0.633	Go_O	1.0
513.719	1.0	go	0.674	Go_X	1.0
516.244	0.45	stop	0.0	Go_O	1.0
518.768	1.0	go	0.527	Go_O	1.0
521.292	1.0	go	0.543	Go_X	1.0
523.816	0.5	stop	0.626	Go_X	0.0
526.34	1.0	go	0.729	Go_X	1.0
528.865	1.0	go	0.727	Go_O	1.0
531.389	1.0	go	0.759	Go_X	1.0
533.913	1.0	go	0.759	Go_O	1.0
536.437	1.0	go	0.725	Go_O	1.0
538.961	0.45	stop	0.0	Go_O	1.0
541.485	1.0	go	0.612	Go_X	1.0
544.01	1.0	go	0.775	Go_X	1.0
546.534	1.0	go	0.723	Go_O	1.0
549.058	0.5	stop	0.0	Go_X	1.0
551.582	1.0	go	0.652	Go_X	1.0
554.106	0.55	stop	0.0	Go_O	1.0
556.63	1.0	go	0.778	Go_O	1.0
559.155	1.0	go	0.814	Go_X	1.0
561.679	1.0	go	0.636	Go_O	1.0
564.203	1.0	go	0.578	Go_O	1.0
566.727	1.0	go	0.624	Go_X	1.0
569.268	1.0	go	0.901	Go_O	1.0
571.792	1.0	go	0.752	Go_X	1.0
574.316	0.6	stop	0.0	Go_X	1.0
576.84	1.0	go	0.608	Go_X	1.0
579.365	1.0	go	0.699	Go_O	1.0
581.889	1.0	go	0.715	Go_O	1.0
584.413	1.0	go	0.632	Go_X	1.0
586.937	0.65	stop	0.677	Go_O	0.0
589.461	1.0	go	0.732	Go_X	1.0
591.986	0.6	stop	0.709	Go_X	0.0
594.51	1.0	go	0.859	Go_O	1.0
597.034	1.0	go	0.911	Go_O	1.0
599.558	0.55	stop	0.0	Go_O	1.0
602.082	1.0	go	0.546	Go_X	1.0
604.606	1.0	go	0.819	Go_X	1.0
607.131	1.0	go	0.78	Go_O	1.0
609.655	1.0	go	0.778	Go_X	1.0
612.179	1.0	go	0.708	Go_O	1.0
614.703	1.0	go	0.486	Go_X	1.0
617.227	1.0	go	0.728	Go_O	1.0
619.751	1.0	go	0.484	Go_X	1.0
622.276	1.0	go	0.544	Go_O	1.0
624.8	1.0	go	0.586	Go_O	1.0
627.324	0.6	stop	0.816	Go_X	0.0
629.848	1.0	go	0.699	Go_X	1.0
632.372	1.0	go	0.0	Go_X	0.0
634.896	0.55	stop	0.647	Go_O	0.0
637.421	1.0	go	0.562	Go_O	1.0
639.945	0.5	stop	0.556	Go_X	0.0
642.469	1.0	go	0.627	Go_X	1.0
644.993	1.0	go	0.512	Go_O	1.0
647.517	0.45	stop	0.477	Go_O	0.0
650.041	1.0	go	0.623	Go_O	1.0
652.566	0.4	stop	0.0	Go_X	1.0
655.09	1.0	go	0.614	Go_X	1.0
657.614	1.0	go	0.682	Go_O	1.0
660.138	1.0	go	0.603	Go_X	1.0
662.662	0.45	stop	0.0	Go_O	1.0
665.187	1.0	go	0.567	Go_O	1.0
667.711	1.0	go	0.461	Go_X	1.0
670.235	1.0	go	0.714	Go_O	1.0
672.759	1.0	go	0.514	Go_X	1.0
675.283	0.5	stop	0.0	Go_X	1.0
677.807	1.0	go	0.553	Go_O	1.0
680.332	1.0	go	0.0	Go_X	0.0
682.856	0.55	stop	0.587	Go_O	0.0
685.38	1.0	go	0.538	Go_O	1.0
687.904	1.0	go	0.727	Go_X	1.0
690.428	1.0	go	0.688	Go_O	1.0
692.952	1.0	go	0.48	Go_X	1.0
695.477	0.5	stop	0.58	Go_X	0.0
698.001	1.0	go	0.573	Go_O	1.0
700.525	0.45	stop	0.0	Go_O	1.0
703.049	1.0	go	0.652	Go_X	1.0
705.573	1.0	go	0.765	Go_O	1.0
708.097	0.5	stop	0.577	Go_X	0.0
710.622	1.0	go	0.634	Go_X	1.0
713.146	1.0	go	0.743	Go_X	1.0
715.67	1.0	go	0.691	Go_O	1.0
718.194	1.0	go	0.506	Go_X	1.0
720.718	0.45	stop	0.0	Go_O	1.0
723.242	1.0	go	0.64	Go_O	1.0
725.767	0.5	stop	0.595	Go_X	0.0
728.291	1.0	go	0.599	Go_X	1.0
730.815	1.0	go	0.558	Go_O	1.0
733.339	1.0	go	0.493	Go_X	1.0
735.863	1.0	go	0.535	Go_O	1.0
738.387	1.0	go	0.605	Go_X	1.0
740.912	1.0	go	0.483	Go_O	1.0
743.436	0.45	stop	0.586	Go_O	0.0
745.96	1.0	go	0.577	Go_O	1.0
748.484	1.0	go	0.423	Go_X	1.0
751.008	0.4	stop	0.0	Go_X	1.0
753.533	1.0	go	0.525	Go_X	1.0
756.057	1.0	go	0.681	Go_O	1.0
758.581	0.45	stop	0.0	Go_O	1.0
761.105	1.0	go	0.487	Go_O	1.0
763.629	1.0	go	0.786	Go_X	1.0
766.153	1.0	go	0.0	Go_X	0.0
768.678	1.0	go	0.555	Go_O	1.0
771.202	0.5	stop	0.425	Go_X	0.0
773.726	1.0	go	0.687	Go_X	1.0
776.25	0.45	stop	0.54	Go_O	0.0
778.774	1.0	go	0.655	Go_O	1.0
781.298	1.0	go	0.637	Go_O	1.0
783.823	1.0	go	0.891	Go_X	1.0
786.347	1.0	go	0.955	Go_X	1.0
788.871	1.0	go	0.815	Go_O	1.0
791.395	0.4	stop	0.0	Go_X	1.0
793.919	1.0	go	0.549	Go_O	1.0
796.443	1.0	go	0.859	Go_X	1.0
798.968	0.45	stop	0.0	Go_O	1.0
801.492	0.5	stop	0.591	Go_X	0.0
804.016	1.0	go	0.97	Go_O	1.0
806.54	1.0	go	0.72	Go_X	1.0
809.064	1.0	go	0.904	Go_O	1.0
811.588	1.0	go	0.955	Go_X	1.0
814.113	0.45	stop	0.0	Go_O	1.0
816.637	1.0	go	0.761	Go_X	1.0
