onset	duration	trial_type	response_time	stim_file	accuracy
79.519	1.0	go	0.941	Go_X	1.0
82.043	1.0	go	0.514	Go_O	1.0
84.567	1.0	go	0.589	Go_O	1.0
87.091	1.0	go	0.567	Go_X	1.0
89.615	1.0	go	0.975	Go_X	1.0
92.139	1.0	go	0.389	Go_O	1.0
94.664	0.25	stopsuccess	0.0	Go_O	1.0
97.188	1.0	go	0.305	Go_X	1.0
99.712	0.3	stopsuccess	0.0	Go_X	1.0
102.236	1.0	go	0.357	Go_O	1.0
104.76	1.0	go	0.474	Go_O	1.0
107.285	1.0	go	0.664	Go_X	1.0
109.809	0.35	stopsuccess	0.0	Go_O	1.0
112.333	1.0	go	0.368	Go_O	1.0
114.857	1.0	go	0.464	Go_X	1.0
117.381	0.4	stopfail	0.455	Go_X	0.0
119.905	0.35	stopfail	0.311	Go_O	0.0
122.43	1.0	go	0.349	Go_O	1.0
124.954	1.0	go	0.612	Go_X	1.0
127.478	0.3	stopsuccess	0.0	Go_X	1.0
130.002	1.0	go	0.357	Go_O	1.0
132.526	1.0	go	0.417	Go_X	1.0
135.051	0.35	stopfail	0.355	Go_O	0.0
137.575	1.0	go	0.365	Go_O	1.0
140.099	1.0	go	0.405	Go_X	1.0
142.623	0.3	stopsuccess	0.0	Go_X	1.0
145.147	1.0	go	0.365	Go_O	1.0
147.671	1.0	go	0.969	Go_X	1.0
150.196	0.35	stopfail	0.315	Go_O	0.0
152.72	1.0	go	0.463	Go_X	1.0
155.244	1.0	go	0.444	Go_O	1.0
157.768	1.0	go	0.432	Go_X	1.0
160.292	1.0	go	0.348	Go_O	1.0
162.817	1.0	go	0.523	Go_X	1.0
165.341	0.3	stopsuccess	0.0	Go_X	1.0
167.865	1.0	go	0.458	Go_O	1.0
170.389	1.0	go	0.489	Go_X	1.0
172.913	1.0	go	0.412	Go_O	1.0
175.437	1.0	go	0.406	Go_O	1.0
177.962	1.0	go	0.432	Go_X	1.0
180.486	0.35	stopfail	0.387	Go_O	0.0
183.01	1.0	go	0.566	Go_O	1.0
185.534	1.0	go	0.504	Go_X	1.0
188.058	1.0	go	0.456	Go_X	1.0
190.583	1.0	go	0.218	Go_O	1.0
193.107	1.0	go	0.478	Go_O	1.0
195.631	1.0	go	0.356	Go_X	1.0
198.155	0.3	stopfail	0.488	Go_X	0.0
200.679	1.0	go	0.515	Go_X	1.0
203.203	1.0	go	0.43	Go_O	1.0
205.728	0.25	stopsuccess	0.0	Go_O	1.0
208.252	1.0	go	0.324	Go_O	1.0
210.776	0.3	stopfail	0.325	Go_X	0.0
213.3	0.25	stopfail	0.352	Go_O	0.0
215.824	1.0	go	0.493	Go_X	1.0
218.349	1.0	go	0.661	Go_O	1.0
220.873	1.0	go	0.817	Go_X	1.0
223.397	1.0	go	0.461	Go_X	1.0
225.921	0.2	stopsuccess	0.0	Go_X	1.0
228.445	1.0	go	0.324	Go_O	1.0
230.97	0.25	stopsuccess	0.0	Go_O	1.0
233.51	1.0	go	0.519	Go_O	1.0
236.035	1.0	go	0.385	Go_X	1.0
238.559	1.0	go	0.32	Go_O	1.0
241.083	1.0	go	0.536	Go_X	1.0
243.607	1.0	go	0.235	Go_X	0.0
246.131	1.0	go	0.414	Go_O	1.0
248.656	1.0	go	0.467	Go_O	1.0
251.18	1.0	go	0.56	Go_X	1.0
253.704	1.0	go	0.455	Go_O	1.0
256.228	0.3	stopfail	0.563	Go_X	0.0
258.752	1.0	go	0.45	Go_X	1.0
261.276	1.0	go	0.465	Go_X	1.0
263.801	1.0	go	0.401	Go_O	0.0
266.325	0.25	stopsuccess	0.0	Go_O	1.0
268.849	1.0	go	0.508	Go_X	1.0
271.373	1.0	go	0.357	Go_O	1.0
273.897	1.0	go	0.577	Go_X	1.0
276.422	1.0	go	0.398	Go_O	1.0
278.946	1.0	go	0.438	Go_X	1.0
281.47	1.0	go	0.35	Go_O	1.0
283.994	0.3	stopfail	0.44	Go_X	0.0
286.518	1.0	go	0.533	Go_X	1.0
289.042	1.0	go	0.337	Go_O	1.0
291.567	0.25	stopsuccess	0.0	Go_O	1.0
294.091	1.0	go	0.66	Go_O	1.0
296.615	1.0	go	0.498	Go_X	1.0
299.139	0.3	stopsuccess	0.0	Go_X	1.0
301.663	1.0	go	0.305	Go_O	1.0
304.188	0.35	stopsuccess	0.0	Go_O	1.0
306.712	1.0	go	0.448	Go_X	1.0
309.236	1.0	go	0.387	Go_X	1.0
311.76	1.0	go	0.382	Go_O	1.0
314.284	1.0	go	0.201	Go_O	1.0
316.808	1.0	go	0.174	Go_X	1.0
319.333	0.4	stopfail	0.364	Go_X	0.0
321.857	0.35	stopfail	0.389	Go_O	0.0
324.381	1.0	go	0.474	Go_X	1.0
326.905	1.0	go	0.43	Go_O	1.0
329.429	0.3	stopfail	0.4	Go_X	0.0
331.954	1.0	go	0.247	Go_X	0.0
334.478	1.0	go	0.34	Go_O	1.0
337.002	1.0	go	0.322	Go_O	0.0
339.526	1.0	go	0.336	Go_X	1.0
342.05	1.0	go	0.609	Go_O	1.0
344.574	1.0	go	0.497	Go_X	1.0
347.099	0.25	stopfail	0.27	Go_O	0.0
349.64	1.0	go	0.529	Go_O	1.0
352.164	1.0	go	0.0	Go_X	0.0
354.688	1.0	go	0.219	Go_O	1.0
357.212	1.0	go	0.54	Go_X	1.0
359.736	1.0	go	0.526	Go_X	1.0
362.26	0.2	stopsuccess	0.0	Go_X	1.0
364.785	1.0	go	0.378	Go_O	1.0
367.309	1.0	go	0.331	Go_O	1.0
369.833	1.0	go	0.514	Go_X	1.0
372.357	1.0	go	0.388	Go_O	1.0
374.881	0.25	stopfail	0.437	Go_O	0.0
377.406	1.0	go	0.467	Go_X	1.0
379.93	1.0	go	0.514	Go_X	1.0
382.454	0.2	stopsuccess	0.0	Go_X	1.0
384.978	1.0	go	0.386	Go_O	1.0
387.502	0.25	stopfail	0.409	Go_O	0.0
390.026	1.0	go	0.458	Go_X	1.0
392.551	1.0	go	0.455	Go_O	1.0
395.075	1.0	go	0.297	Go_X	1.0
397.599	1.0	go	0.241	Go_O	1.0
400.123	1.0	go	0.358	Go_O	1.0
402.647	1.0	go	0.417	Go_X	1.0
405.172	1.0	go	0.422	Go_X	0.0
407.696	0.2	stopsuccess	0.0	Go_X	1.0
410.22	1.0	go	0.271	Go_O	1.0
412.744	1.0	go	0.45	Go_O	1.0
415.268	1.0	go	0.554	Go_X	1.0
417.792	0.25	stopfail	0.423	Go_O	0.0
420.317	1.0	go	0.622	Go_O	1.0
422.841	1.0	go	0.538	Go_X	1.0
425.365	1.0	go	0.588	Go_X	1.0
427.889	1.0	go	0.373	Go_O	1.0
430.413	0.2	stopsuccess	0.0	Go_X	1.0
432.938	1.0	go	0.445	Go_O	1.0
435.462	1.0	go	0.367	Go_X	1.0
437.986	0.25	stopsuccess	0.0	Go_O	1.0
440.51	1.0	go	0.475	Go_X	1.0
443.034	1.0	go	0.376	Go_O	1.0
445.558	0.3	stopfail	0.469	Go_X	0.0
448.083	1.0	go	0.292	Go_O	1.0
450.607	1.0	go	0.576	Go_X	1.0
453.131	0.25	stopsuccess	0.0	Go_O	1.0
455.655	1.0	go	0.288	Go_O	1.0
458.179	1.0	go	0.0	Go_X	0.0
460.704	1.0	go	0.218	Go_O	1.0
463.228	1.0	go	0.501	Go_X	1.0
465.752	1.0	go	0.468	Go_X	1.0
468.276	1.0	go	0.32	Go_O	1.0
470.8	0.3	stopfail	0.387	Go_X	0.0
473.324	1.0	go	0.338	Go_O	1.0
475.849	0.25	stopsuccess	0.0	Go_O	1.0
478.373	1.0	go	0.559	Go_X	1.0
480.897	1.0	go	0.523	Go_X	1.0
483.421	1.0	go	0.492	Go_O	1.0
485.945	1.0	go	0.536	Go_X	1.0
488.47	1.0	go	0.379	Go_O	1.0
490.994	0.3	stopfail	0.502	Go_X	0.0
493.518	1.0	go	0.292	Go_O	1.0
496.042	1.0	go	0.305	Go_X	1.0
498.566	1.0	go	0.552	Go_X	1.0
501.09	0.25	stopsuccess	0.0	Go_O	1.0
503.615	0.3	stopfail	0.324	Go_X	0.0
506.139	0.25	stopfail	0.483	Go_O	0.0
508.663	1.0	go	0.251	Go_O	0.0
511.187	0.2	stopfail	0.346	Go_X	0.0
513.711	1.0	go	0.213	Go_X	0.0
516.236	1.0	go	0.253	Go_O	1.0
518.76	1.0	go	0.36	Go_X	1.0
521.284	1.0	go	0.365	Go_O	1.0
523.808	1.0	go	0.418	Go_X	1.0
526.332	1.0	go	0.473	Go_O	1.0
528.856	1.0	go	0.633	Go_X	1.0
531.381	1.0	go	0.415	Go_O	1.0
533.905	0.15	stopsuccess	0.0	Go_O	1.0
536.429	1.0	go	0.266	Go_X	1.0
538.953	1.0	go	0.294	Go_O	1.0
541.477	0.2	stopsuccess	0.0	Go_X	1.0
544.002	1.0	go	0.396	Go_O	1.0
546.526	1.0	go	0.461	Go_X	1.0
549.05	1.0	go	0.477	Go_X	1.0
551.574	1.0	go	0.247	Go_O	1.0
554.098	1.0	go	0.641	Go_X	1.0
556.622	0.25	stopfail	0.228	Go_O	0.0
559.147	1.0	go	0.224	Go_O	1.0
561.671	1.0	go	0.525	Go_O	1.0
564.195	1.0	go	0.568	Go_X	1.0
566.719	0.2	stopfail	0.438	Go_X	0.0
569.243	1.0	go	0.351	Go_X	1.0
571.768	0.15	stopsuccess	0.0	Go_O	1.0
574.292	1.0	go	0.21	Go_O	1.0
576.816	1.0	go	0.272	Go_O	1.0
579.34	1.0	go	0.492	Go_X	1.0
581.864	1.0	go	0.41	Go_X	1.0
584.389	1.0	go	0.368	Go_O	1.0
586.913	1.0	go	0.247	Go_O	0.0
589.437	1.0	go	0.508	Go_X	1.0
591.961	0.2	stopsuccess	0.0	Go_X	1.0
594.485	1.0	go	0.32	Go_X	1.0
597.009	1.0	go	0.537	Go_O	1.0
599.534	1.0	go	0.65	Go_X	1.0
602.058	1.0	go	0.829	Go_O	1.0
604.582	0.25	stopfail	0.552	Go_O	0.0
607.106	1.0	go	0.28	Go_O	1.0
609.63	0.2	stopfail	0.504	Go_X	0.0
612.155	1.0	go	0.529	Go_X	1.0
614.679	1.0	go	0.406	Go_O	1.0
617.203	0.15	stopsuccess	0.0	Go_O	1.0
619.727	1.0	go	0.479	Go_X	1.0
622.251	1.0	go	0.229	Go_O	1.0
624.775	1.0	go	0.46	Go_X	1.0
627.3	1.0	go	0.569	Go_O	1.0
629.824	1.0	go	0.526	Go_X	1.0
632.348	1.0	go	0.249	Go_X	0.0
634.872	1.0	go	0.601	Go_O	1.0
637.396	1.0	go	0.781	Go_O	1.0
639.921	1.0	go	0.608	Go_X	1.0
642.445	1.0	go	0.382	Go_O	1.0
644.969	0.2	stopfail	0.397	Go_X	0.0
647.493	1.0	go	0.542	Go_X	0.0
650.017	1.0	go	0.464	Go_O	1.0
652.541	0.15	stopfail	0.244	Go_O	0.0
655.066	1.0	go	0.569	Go_X	1.0
657.59	0.1	stopsuccess	0.0	Go_X	1.0
660.114	1.0	go	0.441	Go_O	1.0
662.638	1.0	go	0.467	Go_X	1.0
665.162	0.15	stopsuccess	0.0	Go_O	1.0
667.687	1.0	go	0.532	Go_X	1.0
670.211	0.2	stopsuccess	0.0	Go_X	1.0
672.735	1.0	go	0.349	Go_O	1.0
675.259	1.0	go	0.54	Go_O	1.0
677.783	1.0	go	0.552	Go_X	1.0
680.307	0.25	stopsuccess	0.0	Go_O	1.0
682.832	1.0	go	0.505	Go_O	1.0
685.356	1.0	go	0.78	Go_X	1.0
687.88	1.0	go	0.343	Go_O	1.0
690.404	1.0	go	0.231	Go_X	1.0
692.928	0.3	stopfail	0.43	Go_X	0.0
695.453	1.0	go	0.411	Go_O	1.0
697.977	1.0	go	0.716	Go_X	0.0
700.501	0.25	stopfail	0.501	Go_O	0.0
703.025	1.0	go	0.672	Go_O	1.0
705.549	1.0	go	0.873	Go_X	1.0
708.073	1.0	go	0.393	Go_X	1.0
710.598	1.0	go	0.48	Go_O	1.0
713.122	0.2	stopsuccess	0.0	Go_X	1.0
715.646	1.0	go	0.362	Go_O	1.0
718.17	0.25	stopsuccess	0.0	Go_O	1.0
720.694	1.0	go	0.456	Go_X	1.0
723.219	1.0	go	0.537	Go_O	1.0
725.743	0.3	stopfail	0.545	Go_X	0.0
728.284	1.0	go	0.0	Go_X	0.0
730.808	1.0	go	0.396	Go_X	1.0
733.332	1.0	go	0.332	Go_O	1.0
735.856	1.0	go	0.365	Go_O	1.0
738.38	0.25	stopfail	0.44	Go_O	0.0
740.905	1.0	go	0.466	Go_X	1.0
743.429	0.2	stopsuccess	0.0	Go_X	1.0
745.97	1.0	go	0.371	Go_O	1.0
748.494	1.0	go	0.752	Go_X	1.0
751.018	1.0	go	0.494	Go_X	1.0
753.542	1.0	go	0.403	Go_O	1.0
756.066	1.0	go	0.396	Go_O	1.0
758.591	1.0	go	0.456	Go_X	1.0
761.115	0.25	stopsuccess	0.0	Go_O	1.0
763.656	1.0	go	0.493	Go_O	1.0
766.18	1.0	go	0.515	Go_X	1.0
768.704	0.3	stopsuccess	0.0	Go_X	1.0
771.228	1.0	go	0.35	Go_O	1.0
773.752	1.0	go	0.382	Go_X	1.0
776.277	0.35	stopfail	0.194	Go_O	0.0
778.817	1.0	go	0.272	Go_X	0.0
781.342	1.0	go	0.0	Go_O	0.0
783.866	1.0	go	0.467	Go_O	1.0
786.39	1.0	go	0.0	Go_X	0.0
788.914	0.3	stopsuccess	0.0	Go_X	1.0
791.438	1.0	go	0.426	Go_X	1.0
793.963	0.35	stopfail	0.291	Go_O	0.0
796.487	1.0	go	0.679	Go_O	1.0
799.011	1.0	go	0.42	Go_O	1.0
801.535	1.0	go	0.4	Go_X	1.0
804.059	1.0	go	0.411	Go_X	1.0
806.583	1.0	go	0.969	Go_O	1.0
809.108	0.3	stopsuccess	0.0	Go_X	1.0
811.632	1.0	go	0.481	Go_X	1.0
814.156	1.0	go	0.448	Go_O	1.0
816.68	0.35	stopfail	0.469	Go_O	0.0
819.204	0.3	stopfail	0.366	Go_X	0.0
821.729	1.0	go	0.291	Go_O	1.0
824.253	1.0	go	0.469	Go_X	1.0
826.777	1.0	go	0.44	Go_O	1.0
829.301	1.0	go	0.73	Go_X	1.0
831.825	0.25	stopfail	0.504	Go_O	0.0
834.349	1.0	go	0.589	Go_O	1.0
