frame	onset	duration	trial_type	event_type	response_type	response_time	stim_file	accuracy
0	54.107		loss-reward	ImageDisplay1		0.0		
0	56.347		loss-reward	StartDisplay		0.0		
0	57.099		loss-reward	ImageDisplay2		0.0		
0	60.091		loss-reward	ChoiceDisplay		0.0		
0	61.696		loss-reward	ChosenDisplay		0.0		
0	61.763		loss-reward	TurnDisplay				
0	61.947		loss-reward	OutcomeDisplay				
1	62.699		win-noreward	ImageDisplay1		0.0		
1	64.705		win-noreward	StartDisplay		0.0		
1	65.44		win-noreward	ImageDisplay2		0.0		
1	68.7		win-noreward	ChoiceDisplay	3	0.412	3	3
1	69.135		win-noreward	ChosenDisplay		0.0		
1	70.305		win-noreward	TurnDisplay				
1	70.556		win-noreward	OutcomeDisplay				
2	71.308		win-reward	ImageDisplay1		0.0		
2	73.548		win-reward	StartDisplay		0.0		
2	74.3		win-reward	ImageDisplay2		0.0		
2	77.309		win-reward	ChoiceDisplay	3	0.447	3	3
2	77.777		win-reward	ChosenDisplay		0.0		
2	78.914		win-reward	TurnDisplay				
2	79.165		win-reward	OutcomeDisplay				
3	79.917		win-noreward	ImageDisplay1		0.0		
3	81.906		win-noreward	StartDisplay		0.0		
3	82.659		win-noreward	ImageDisplay2		0.0		
3	85.918		win-noreward	ChoiceDisplay	3	0.985	3	3
3	86.921		win-noreward	ChosenDisplay		0.0		
3	87.523		win-noreward	TurnDisplay				
3	87.774		win-noreward	OutcomeDisplay				
4	88.526		control-reward	ImageDisplay1		0.0		
4	90.766		control-reward	StartDisplay		0.0		
4	91.518		control-reward	ImageDisplay2		0.0		
4	94.527		control-reward	ChoiceDisplay	3	0.308	3	3
4	94.862		control-reward	ChosenDisplay		0.0		
4	96.132		control-reward	TurnDisplay				
4	96.383		control-reward	OutcomeDisplay				
5	97.135		control-noreward	ImageDisplay1		0.0		
5	99.124		control-noreward	StartDisplay		0.0		
5	99.877		control-noreward	ImageDisplay2		0.0		
5	103.136		control-noreward	ChoiceDisplay	3	0.967	3	3
5	104.123		control-noreward	ChosenDisplay		0.0		
5	104.741		control-noreward	TurnDisplay				
5	104.992		control-noreward	OutcomeDisplay				
6	105.744		control-reward	ImageDisplay1		0.0		
6	107.984		control-reward	StartDisplay		0.0		
6	108.737		control-reward	ImageDisplay2		0.0		
6	111.746		control-reward	ChoiceDisplay	3	0.703	3	3
6	112.464		control-reward	ChosenDisplay		0.0		
6	113.35		control-reward	TurnDisplay				
6	113.601		control-reward	OutcomeDisplay				
7	114.353		loss-noreward	ImageDisplay1		0.0		
7	116.343		loss-noreward	StartDisplay		0.0		
7	117.095		loss-noreward	ImageDisplay2		0.0		
7	120.355		loss-noreward	ChoiceDisplay	3	0.664	3	3
7	121.04		loss-noreward	ChosenDisplay		0.0		
7	121.959		loss-noreward	TurnDisplay				
7	122.21		loss-noreward	OutcomeDisplay				
8	122.962		loss-reward	ImageDisplay1		0.0		
8	125.202		loss-reward	StartDisplay		0.0		
8	125.955		loss-reward	ImageDisplay2		0.0		
8	128.964		loss-reward	ChoiceDisplay	3	0.759	3	3
8	129.749		loss-reward	ChosenDisplay		0.0		
8	130.568		loss-reward	TurnDisplay				
8	130.819		loss-reward	OutcomeDisplay				
9	131.571		win-reward	ImageDisplay1		0.0		
9	133.811		win-reward	StartDisplay		0.0		
9	134.564		win-reward	ImageDisplay2		0.0		
9	137.573		win-reward	ChoiceDisplay	3	0.986	3	3
9	138.576		win-reward	ChosenDisplay		0.0		
9	139.178		win-reward	TurnDisplay				
9	139.428		win-reward	OutcomeDisplay				
10	140.181		loss-reward	ImageDisplay1		0.0		
10	142.421		loss-reward	StartDisplay		0.0		
10	143.173		loss-reward	ImageDisplay2		0.0		
10	146.182		loss-reward	ChoiceDisplay	3	0.735	3	3
10	146.934		loss-reward	ChosenDisplay		0.0		
10	147.787		loss-reward	TurnDisplay				
10	148.037		loss-reward	OutcomeDisplay				
11	148.79		loss-reward	ImageDisplay1		0.0		
11	151.03		loss-reward	StartDisplay		0.0		
11	151.782		loss-reward	ImageDisplay2		0.0		
11	154.791		loss-reward	ChoiceDisplay	3	0.961	3	3
11	155.777		loss-reward	ChosenDisplay		0.0		
11	156.396		loss-reward	TurnDisplay				
11	156.646		loss-reward	OutcomeDisplay				
12	157.399		control-reward	ImageDisplay1		0.0		
12	159.639		control-reward	StartDisplay		0.0		
12	160.391		control-reward	ImageDisplay2		0.0		
12	163.4		control-reward	ChoiceDisplay	3	0.741	3	3
12	164.169		control-reward	ChosenDisplay		0.0		
12	165.005		control-reward	TurnDisplay				
12	165.256		control-reward	OutcomeDisplay				
13	166.008		loss-noreward	ImageDisplay1		0.0		
13	167.997		loss-noreward	StartDisplay		0.0		
13	168.749		loss-noreward	ImageDisplay2		0.0		
13	172.009		loss-noreward	ChoiceDisplay	3	0.84	3	3
13	172.862		loss-noreward	ChosenDisplay		0.0		
13	173.614		loss-noreward	TurnDisplay				
13	173.865		loss-noreward	OutcomeDisplay				
14	174.617		control-reward	ImageDisplay1		0.0		
14	176.857		control-reward	StartDisplay		0.0		
14	177.609		control-reward	ImageDisplay2		0.0		
14	180.618		control-reward	ChoiceDisplay	3	1.086	3	3
14	181.721		control-reward	ChosenDisplay		0.0		
14	182.223		control-reward	TurnDisplay				
14	182.474		control-reward	OutcomeDisplay				
15	183.226		loss-reward	ImageDisplay1		0.0		
15	185.466		loss-reward	StartDisplay		0.0		
15	186.218		loss-reward	ImageDisplay2		0.0		
15	189.227		loss-reward	ChoiceDisplay	3	0.859	3	3
15	190.113		loss-reward	ChosenDisplay		0.0		
15	190.832		loss-reward	TurnDisplay				
15	191.083		loss-reward	OutcomeDisplay				
16	191.835		control-reward	ImageDisplay1		0.0		
16	194.075		control-reward	StartDisplay		0.0		
16	194.827		control-reward	ImageDisplay2		0.0		
16	197.836		control-reward	ChoiceDisplay	3	0.993	3	3
16	198.856		control-reward	ChosenDisplay		0.0		
16	199.441		control-reward	TurnDisplay				
16	199.692		control-reward	OutcomeDisplay				
17	200.444		win-reward	ImageDisplay1		0.0		
17	202.684		win-reward	StartDisplay		0.0		
17	203.436		win-reward	ImageDisplay2		0.0		
17	206.445		win-reward	ChoiceDisplay	3	1.034	3	3
17	207.498		win-reward	ChosenDisplay		0.0		
17	208.05		win-reward	TurnDisplay				
17	208.301		win-reward	OutcomeDisplay				
18	209.053		win-noreward	ImageDisplay1		0.0		
18	211.042		win-noreward	StartDisplay		0.0		
18	211.795		win-noreward	ImageDisplay2		0.0		
18	215.054		win-noreward	ChoiceDisplay	3	0.961	3	3
18	216.041		win-noreward	ChosenDisplay		0.0		
18	216.659		win-noreward	TurnDisplay				
18	216.91		win-noreward	OutcomeDisplay				
19	217.662		win-reward	ImageDisplay1		0.0		
19	219.902		win-reward	StartDisplay		0.0		
19	220.654		win-reward	ImageDisplay2		0.0		
19	223.663		win-reward	ChoiceDisplay	3	1.066	3	3
19	224.75		win-reward	ChosenDisplay		0.0		
19	225.268		win-reward	TurnDisplay				
19	225.519		win-reward	OutcomeDisplay				
20	226.271		loss-noreward	ImageDisplay1		0.0		
20	228.261		loss-noreward	StartDisplay		0.0		
20	229.013		loss-noreward	ImageDisplay2		0.0		
20	232.273		loss-noreward	ChoiceDisplay	3	0.485	3	3
20	232.774		loss-noreward	ChosenDisplay		0.0		
20	233.877		loss-noreward	TurnDisplay				
20	234.128		loss-noreward	OutcomeDisplay				
21	234.88		win-reward	ImageDisplay1		0.0		
21	237.12		win-reward	StartDisplay		0.0		
21	237.873		win-reward	ImageDisplay2		0.0		
21	240.882		win-reward	ChoiceDisplay	3	0.9	3	3
21	241.801		win-reward	ChosenDisplay		0.0		
21	242.486		win-reward	TurnDisplay				
21	242.737		win-reward	OutcomeDisplay				
22	243.489		loss-noreward	ImageDisplay1		0.0		
22	245.479		loss-noreward	StartDisplay		0.0		
22	246.231		loss-noreward	ImageDisplay2		0.0		
22	249.491		loss-noreward	ChoiceDisplay	3	0.797	3	3
22	250.31		loss-noreward	ChosenDisplay		0.0		
22	251.096		loss-noreward	TurnDisplay				
22	251.346		loss-noreward	OutcomeDisplay				
23	252.098		loss-reward	ImageDisplay1		0.0		
23	254.339		loss-reward	StartDisplay		0.0		
23	255.091		loss-reward	ImageDisplay2		0.0		
23	258.1		loss-reward	ChoiceDisplay	3	0.34	3	3
23	258.468		loss-reward	ChosenDisplay		0.0		
23	259.705		loss-reward	TurnDisplay				
23	259.955		loss-reward	OutcomeDisplay				
24	260.708		loss-noreward	ImageDisplay1		0.0		
24	262.697		loss-noreward	StartDisplay		0.0		
24	263.449		loss-noreward	ImageDisplay2		0.0		
24	266.709		loss-noreward	ChoiceDisplay	3	0.948	3	3
24	267.678		loss-noreward	ChosenDisplay		0.0		
24	268.314		loss-noreward	TurnDisplay				
24	268.564		loss-noreward	OutcomeDisplay				
25	269.317		control-reward	ImageDisplay1		0.0		
25	271.557		control-reward	StartDisplay		0.0		
25	272.309		control-reward	ImageDisplay2		0.0		
25	275.318		control-reward	ChoiceDisplay	3	0.85	3	3
25	276.187		control-reward	ChosenDisplay		0.0		
25	276.923		control-reward	TurnDisplay				
25	277.173		control-reward	OutcomeDisplay				
26	277.926		control-noreward	ImageDisplay1		0.0		
26	279.915		control-noreward	StartDisplay		0.0		
26	280.667		control-noreward	ImageDisplay2		0.0		
26	283.927		control-noreward	ChoiceDisplay	3	1.148	3	3
26	285.097		control-noreward	ChosenDisplay		0.0		
26	285.532		control-noreward	TurnDisplay				
26	285.783		control-noreward	OutcomeDisplay				
27	286.535		loss-reward	ImageDisplay1		0.0		
27	288.775		loss-reward	StartDisplay		0.0		
27	289.527		loss-reward	ImageDisplay2		0.0		
27	292.536		loss-reward	ChoiceDisplay	3	1.108	3	3
27	293.656		loss-reward	ChosenDisplay		0.0		
27	294.141		loss-reward	TurnDisplay				
27	294.392		loss-reward	OutcomeDisplay				
28	295.144		win-noreward	ImageDisplay1		0.0		
28	297.133		win-noreward	StartDisplay		0.0		
28	297.885		win-noreward	ImageDisplay2		0.0		
28	301.145		win-noreward	ChoiceDisplay	3	0.695	3	3
28	301.864		win-noreward	ChosenDisplay		0.0		
28	302.75		win-noreward	TurnDisplay				
28	303.001		win-noreward	OutcomeDisplay				
29	303.753		loss-reward	ImageDisplay1		0.0		
29	305.993		loss-reward	StartDisplay		0.0		
29	306.745		loss-reward	ImageDisplay2		0.0		
29	309.754		loss-reward	ChoiceDisplay	3	0.719	3	3
29	310.49		loss-reward	ChosenDisplay		0.0		
29	311.359		loss-reward	TurnDisplay				
29	311.61		loss-reward	OutcomeDisplay				
30	312.362		control-reward	ImageDisplay1		0.0		
30	314.602		control-reward	StartDisplay		0.0		
30	315.354		control-reward	ImageDisplay2		0.0		
30	318.363		control-reward	ChoiceDisplay	3	0.747	3	3
30	319.132		control-reward	ChosenDisplay		0.0		
30	319.968		control-reward	TurnDisplay				
30	320.219		control-reward	OutcomeDisplay				
31	320.971		control-reward	ImageDisplay1		0.0		
31	323.211		control-reward	StartDisplay		0.0		
31	323.963		control-reward	ImageDisplay2		0.0		
31	326.972		control-reward	ChoiceDisplay	3	0.744	3	3
31	327.741		control-reward	ChosenDisplay		0.0		
31	328.577		control-reward	TurnDisplay				
31	328.828		control-reward	OutcomeDisplay				
32	329.58		control-noreward	ImageDisplay1		0.0		
32	331.569		control-noreward	StartDisplay		0.0		
32	332.322		control-noreward	ImageDisplay2		0.0		
32	335.581		control-noreward	ChoiceDisplay	3	0.672	3	3
32	336.267		control-noreward	ChosenDisplay		0.0		
32	337.186		control-noreward	TurnDisplay				
32	337.437		control-noreward	OutcomeDisplay				
33	338.189		loss-noreward	ImageDisplay1		0.0		
33	340.179		loss-noreward	StartDisplay		0.0		
33	340.931		loss-noreward	ImageDisplay2		0.0		
33	344.191		loss-noreward	ChoiceDisplay	3	0.998	3	3
33	345.21		loss-noreward	ChosenDisplay		0.0		
33	345.795		loss-noreward	TurnDisplay				
33	346.046		loss-noreward	OutcomeDisplay				
34	346.798		win-noreward	ImageDisplay1		0.0		
34	348.788		win-noreward	StartDisplay		0.0		
34	349.54		win-noreward	ImageDisplay2		0.0		
34	352.8		win-noreward	ChoiceDisplay	3	0.631	3	3
34	353.452		win-noreward	ChosenDisplay		0.0		
34	354.404		win-noreward	TurnDisplay				
34	354.655		win-noreward	OutcomeDisplay				
35	355.407		win-reward	ImageDisplay1		0.0		
35	357.647		win-reward	StartDisplay		0.0		
35	358.4		win-reward	ImageDisplay2		0.0		
35	361.409		win-reward	ChoiceDisplay	3	0.679	3	3
35	362.111		win-reward	ChosenDisplay		0.0		
35	363.013		win-reward	TurnDisplay				
35	363.264		win-reward	OutcomeDisplay				
36	364.016		loss-reward	ImageDisplay1		0.0		
36	366.256		loss-reward	StartDisplay		0.0		
36	367.009		loss-reward	ImageDisplay2		0.0		
36	370.018		loss-reward	ChoiceDisplay	3	0.85	3	3
36	370.887		loss-reward	ChosenDisplay		0.0		
36	371.623		loss-reward	TurnDisplay				
36	371.873		loss-reward	OutcomeDisplay				
37	372.626		win-noreward	ImageDisplay1		0.0		
37	374.615		win-noreward	StartDisplay		0.0		
37	375.367		win-noreward	ImageDisplay2		0.0		
37	378.627		win-noreward	ChoiceDisplay	3	0.497	3	3
37	379.145		win-noreward	ChosenDisplay		0.0		
37	380.232		win-noreward	TurnDisplay				
37	380.482		win-noreward	OutcomeDisplay				
38	381.235		loss-noreward	ImageDisplay1		0.0		
38	383.224		loss-noreward	StartDisplay		0.0		
38	383.976		loss-noreward	ImageDisplay2		0.0		
38	387.236		loss-noreward	ChoiceDisplay	3	0.992	3	3
38	388.256		loss-noreward	ChosenDisplay		0.0		
38	388.841		loss-noreward	TurnDisplay				
38	389.091		loss-noreward	OutcomeDisplay				
39	389.844		loss-noreward	ImageDisplay1		0.0		
39	391.833		loss-noreward	StartDisplay		0.0		
39	392.585		loss-noreward	ImageDisplay2		0.0		
39	395.845		loss-noreward	ChoiceDisplay	3	0.921	3	3
39	396.781		loss-noreward	ChosenDisplay		0.0		
39	397.45		loss-noreward	TurnDisplay				
39	397.701		loss-noreward	OutcomeDisplay				
40	398.453		win-noreward	ImageDisplay1		0.0		
40	400.442		win-noreward	StartDisplay		0.0		
40	401.194		win-noreward	ImageDisplay2		0.0		
40	404.454		win-noreward	ChoiceDisplay	3	0.708	3	3
40	405.19		win-noreward	ChosenDisplay		0.0		
40	406.059		win-noreward	TurnDisplay				
40	406.31		win-noreward	OutcomeDisplay				
41	407.062		loss-reward	ImageDisplay1		0.0		
41	409.302		loss-reward	StartDisplay		0.0		
41	410.054		loss-reward	ImageDisplay2		0.0		
41	413.063		loss-reward	ChoiceDisplay	3	0.638	3	3
41	413.715		loss-reward	ChosenDisplay		0.0		
41	414.668		loss-reward	TurnDisplay				
41	414.919		loss-reward	OutcomeDisplay				
42	415.671		loss-reward	ImageDisplay1		0.0		
42	417.911		loss-reward	StartDisplay		0.0		
42	418.663		loss-reward	ImageDisplay2		0.0		
42	421.672		loss-reward	ChoiceDisplay	3	0.758	3	3
42	422.458		loss-reward	ChosenDisplay		0.0		
42	423.277		loss-reward	TurnDisplay				
42	423.528		loss-reward	OutcomeDisplay				
43	424.28		loss-noreward	ImageDisplay1		0.0		
43	426.269		loss-noreward	StartDisplay		0.0		
43	427.021		loss-noreward	ImageDisplay2		0.0		
43	430.281		loss-noreward	ChoiceDisplay	3	0.734	3	3
43	431.034		loss-noreward	ChosenDisplay		0.0		
43	431.886		loss-noreward	TurnDisplay				
43	432.137		loss-noreward	OutcomeDisplay				
44	432.889		win-noreward	ImageDisplay1		0.0		
44	434.878		win-noreward	StartDisplay		0.0		
44	435.631		win-noreward	ImageDisplay2		0.0		
44	438.89		win-noreward	ChoiceDisplay	3	0.533	3	3
44	439.442		win-noreward	ChosenDisplay		0.0		
44	440.495		win-noreward	TurnDisplay				
44	440.746		win-noreward	OutcomeDisplay				
45	441.498		control-noreward	ImageDisplay1		0.0		
45	443.487		control-noreward	StartDisplay		0.0		
45	444.24		control-noreward	ImageDisplay2		0.0		
45	447.499		control-noreward	ChoiceDisplay	3	1.092	3	3
45	448.603		control-noreward	ChosenDisplay		0.0		
45	449.104		control-noreward	TurnDisplay				
45	449.355		control-noreward	OutcomeDisplay				
46	450.107		control-noreward	ImageDisplay1		0.0		
46	452.096		control-noreward	StartDisplay		0.0		
46	452.849		control-noreward	ImageDisplay2		0.0		
46	456.108		control-noreward	ChoiceDisplay	3	0.883	3	3
46	457.011		control-noreward	ChosenDisplay		0.0		
46	457.713		control-noreward	TurnDisplay				
46	457.964		control-noreward	OutcomeDisplay				
47	458.716		win-noreward	ImageDisplay1		0.0		
47	460.706		win-noreward	StartDisplay		0.0		
47	461.458		win-noreward	ImageDisplay2		0.0		
47	464.718		win-noreward	ChoiceDisplay	3	1.28	3	3
47	466.021		win-noreward	ChosenDisplay		0.0		
47	466.322		win-noreward	TurnDisplay				
47	466.573		win-noreward	OutcomeDisplay				
48	467.325		win-reward	ImageDisplay1		0.0		
48	469.565		win-reward	StartDisplay		0.0		
48	470.318		win-reward	ImageDisplay2		0.0		
48	473.327		win-reward	ChoiceDisplay	3	1.214	3	3
48	474.564		win-reward	ChosenDisplay		0.0		
48	474.931		win-reward	TurnDisplay				
48	475.182		win-reward	OutcomeDisplay				
49	475.934		control-noreward	ImageDisplay1		0.0		
49	477.924		control-noreward	StartDisplay		0.0		
49	478.676		control-noreward	ImageDisplay2		0.0		
49	481.936		control-noreward	ChoiceDisplay	3	0.677	3	3
49	482.638		control-noreward	ChosenDisplay		0.0		
49	483.54		control-noreward	TurnDisplay				
49	483.791		control-noreward	OutcomeDisplay				
50	484.543		control-noreward	ImageDisplay1		0.0		
50	486.533		control-noreward	StartDisplay		0.0		
50	487.285		control-noreward	ImageDisplay2		0.0		
50	490.545		control-noreward	ChoiceDisplay	3	0.85	3	3
50	491.414		control-noreward	ChosenDisplay		0.0		
50	492.15		control-noreward	TurnDisplay				
50	492.4		control-noreward	OutcomeDisplay				
51	493.153		win-reward	ImageDisplay1		0.0		
51	495.393		win-reward	StartDisplay		0.0		
51	496.145		win-reward	ImageDisplay2		0.0		
51	499.154		win-reward	ChoiceDisplay	3	1.358	3	3
51	500.525		win-reward	ChosenDisplay		0.0		
51	500.759		win-reward	TurnDisplay				
51	501.009		win-reward	OutcomeDisplay				
52	501.762		win-noreward	ImageDisplay1		0.0		
52	503.751		win-noreward	StartDisplay		0.0		
52	504.503		win-noreward	ImageDisplay2		0.0		
52	507.763		win-noreward	ChoiceDisplay	3	0.478	3	3
52	508.264		win-noreward	ChosenDisplay		0.0		
52	509.368		win-noreward	TurnDisplay				
52	509.618		win-noreward	OutcomeDisplay				
53	510.371		loss-noreward	ImageDisplay1		0.0		
53	512.36		loss-noreward	StartDisplay		0.0		
53	513.112		loss-noreward	ImageDisplay2		0.0		
53	516.372		loss-noreward	ChoiceDisplay	3	1.239	3	3
53	517.626		loss-noreward	ChosenDisplay		0.0		
53	517.977		loss-noreward	TurnDisplay				
53	518.228		loss-noreward	OutcomeDisplay				
54	518.98		control-noreward	ImageDisplay1		0.0		
54	520.969		control-noreward	StartDisplay		0.0		
54	521.721		control-noreward	ImageDisplay2		0.0		
54	524.981		control-noreward	ChoiceDisplay	3	0.726	3	3
54	525.733		control-noreward	ChosenDisplay		0.0		
54	526.586		control-noreward	TurnDisplay				
54	526.837		control-noreward	OutcomeDisplay				
55	527.589		win-reward	ImageDisplay1		0.0		
55	529.829		win-reward	StartDisplay		0.0		
55	530.581		win-reward	ImageDisplay2		0.0		
55	533.59		win-reward	ChoiceDisplay	3	0.597	3	3
55	534.209		win-reward	ChosenDisplay		0.0		
55	535.195		win-reward	TurnDisplay				
55	535.446		win-reward	OutcomeDisplay				
56	536.198		loss-noreward	ImageDisplay1		0.0		
56	538.187		loss-noreward	StartDisplay		0.0		
56	538.939		loss-noreward	ImageDisplay2		0.0		
56	542.199		loss-noreward	ChoiceDisplay	3	0.623	3	3
56	542.834		loss-noreward	ChosenDisplay		0.0		
56	543.804		loss-noreward	TurnDisplay				
56	544.055		loss-noreward	OutcomeDisplay				
57	544.807		loss-noreward	ImageDisplay1		0.0		
57	546.796		loss-noreward	StartDisplay		0.0		
57	547.549		loss-noreward	ImageDisplay2		0.0		
57	550.808		loss-noreward	ChoiceDisplay	3	1.235	3	3
57	552.062		loss-noreward	ChosenDisplay		0.0		
57	552.413		loss-noreward	TurnDisplay				
57	552.664		loss-noreward	OutcomeDisplay				
58	553.416		loss-reward	ImageDisplay1		0.0		
58	555.656		loss-reward	StartDisplay		0.0		
58	556.408		loss-reward	ImageDisplay2		0.0		
58	559.417		loss-reward	ChoiceDisplay	3	0.982	3	3
58	560.42		loss-reward	ChosenDisplay		0.0		
58	561.022		loss-reward	TurnDisplay				
58	561.273		loss-reward	OutcomeDisplay				
59	562.025		loss-noreward	ImageDisplay1		0.0		
59	564.014		loss-noreward	StartDisplay		0.0		
59	564.767		loss-noreward	ImageDisplay2		0.0		
59	568.026		loss-noreward	ChoiceDisplay	3	1.107	3	3
59	569.146		loss-noreward	ChosenDisplay		0.0		
59	569.631		loss-noreward	TurnDisplay				
59	569.882		loss-noreward	OutcomeDisplay				
60	570.634		win-noreward	ImageDisplay1		0.0		
60	572.624		win-noreward	StartDisplay		0.0		
60	573.376		win-noreward	ImageDisplay2		0.0		
60	576.635		win-noreward	ChoiceDisplay	3	0.875	3	3
60	577.521		win-noreward	ChosenDisplay		0.0		
60	578.24		win-noreward	TurnDisplay				
60	578.491		win-noreward	OutcomeDisplay				
61	579.243		control-reward	ImageDisplay1		0.0		
61	581.483		control-reward	StartDisplay		0.0		
61	582.236		control-reward	ImageDisplay2		0.0		
61	585.245		control-reward	ChoiceDisplay	3	0.633	3	3
61	585.897		control-reward	ChosenDisplay		0.0		
61	586.849		control-reward	TurnDisplay				
61	587.1		control-reward	OutcomeDisplay				
62	587.852		control-noreward	ImageDisplay1		0.0		
62	589.842		control-noreward	StartDisplay		0.0		
62	590.594		control-noreward	ImageDisplay2		0.0		
62	593.854		control-noreward	ChoiceDisplay	3	1.183	3	3
62	595.057		control-noreward	ChosenDisplay		0.0		
62	595.458		control-noreward	TurnDisplay				
62	595.709		control-noreward	OutcomeDisplay				
63	596.461		win-noreward	ImageDisplay1		0.0		
63	598.451		win-noreward	StartDisplay		0.0		
63	599.203		win-noreward	ImageDisplay2		0.0		
63	602.463		win-noreward	ChoiceDisplay	3	0.687	3	3
63	603.165		win-noreward	ChosenDisplay		0.0		
63	604.068		win-noreward	TurnDisplay				
63	604.318		win-noreward	OutcomeDisplay				
64	605.071		win-reward	ImageDisplay1		0.0		
64	607.311		win-reward	StartDisplay		0.0		
64	608.063		win-reward	ImageDisplay2		0.0		
64	611.072		win-reward	ChoiceDisplay	3	1.302	3	3
64	612.392		win-reward	ChosenDisplay		0.0		
64	612.677		win-reward	TurnDisplay				
64	612.927		win-reward	OutcomeDisplay				
65	613.68		loss-reward	ImageDisplay1		0.0		
65	615.92		loss-reward	StartDisplay		0.0		
65	616.672		loss-reward	ImageDisplay2		0.0		
65	619.681		loss-reward	ChoiceDisplay	3	0.781	3	3
65	620.483		loss-reward	ChosenDisplay		0.0		
65	621.286		loss-reward	TurnDisplay				
65	621.536		loss-reward	OutcomeDisplay				
66	622.289		win-reward	ImageDisplay1		0.0		
66	624.529		win-reward	StartDisplay		0.0		
66	625.281		win-reward	ImageDisplay2		0.0		
66	628.29		win-reward	ChoiceDisplay	3	0.92	3	3
66	629.226		win-reward	ChosenDisplay		0.0		
66	629.895		win-reward	TurnDisplay				
66	630.146		win-reward	OutcomeDisplay				
67	630.898		win-reward	ImageDisplay1		0.0		
67	633.138		win-reward	StartDisplay		0.0		
67	633.89		win-reward	ImageDisplay2		0.0		
67	636.899		win-reward	ChoiceDisplay	3	0.883	3	3
67	637.802		win-reward	ChosenDisplay		0.0		
67	638.504		win-reward	TurnDisplay				
67	638.755		win-reward	OutcomeDisplay				
68	639.507		control-reward	ImageDisplay1		0.0		
68	641.747		control-reward	StartDisplay		0.0		
68	642.499		control-reward	ImageDisplay2		0.0		
68	645.508		control-reward	ChoiceDisplay	3	0.917	3	3
68	646.444		control-reward	ChosenDisplay		0.0		
68	647.113		control-reward	TurnDisplay				
68	647.364		control-reward	OutcomeDisplay				
69	648.116		control-reward	ImageDisplay1		0.0		
69	650.356		control-reward	StartDisplay		0.0		
69	651.108		control-reward	ImageDisplay2		0.0		
69	654.117		control-reward	ChoiceDisplay	3	0.904	3	3
69	655.037		control-reward	ChosenDisplay		0.0		
69	655.722		control-reward	TurnDisplay				
69	655.973		control-reward	OutcomeDisplay				
70	656.725		control-reward	ImageDisplay1		0.0		
70	658.965		control-reward	StartDisplay		0.0		
70	659.717		control-reward	ImageDisplay2		0.0		
70	662.726		control-reward	ChoiceDisplay	3	0.655	3	3
70	663.395		control-reward	ChosenDisplay		0.0		
70	664.331		control-reward	TurnDisplay				
70	664.582		control-reward	OutcomeDisplay				
71	665.334		win-reward	ImageDisplay1		0.0		
71	667.574		win-reward	StartDisplay		0.0		
71	668.326		win-reward	ImageDisplay2		0.0		
71	671.335		win-reward	ChoiceDisplay	3	1.129	3	3
71	672.489		win-reward	ChosenDisplay		0.0		
71	672.94		win-reward	TurnDisplay				
71	673.191		win-reward	OutcomeDisplay				
72	673.943		loss-reward	ImageDisplay1		0.0		
72	676.183		loss-reward	StartDisplay		0.0		
72	676.935		loss-reward	ImageDisplay2		0.0		
72	679.944		loss-reward	ChoiceDisplay	3	1.152	3	3
72	681.115		loss-reward	ChosenDisplay		0.0		
72	681.549		loss-reward	TurnDisplay				
72	681.8		loss-reward	OutcomeDisplay				
73	682.552		control-reward	ImageDisplay1		0.0		
73	684.792		control-reward	StartDisplay		0.0		
73	685.544		control-reward	ImageDisplay2		0.0		
73	688.553		control-reward	ChoiceDisplay	3	0.917	3	3
73	689.49		control-reward	ChosenDisplay		0.0		
73	690.158		control-reward	TurnDisplay				
73	690.409		control-reward	OutcomeDisplay				
74	691.161		control-reward	ImageDisplay1		0.0		
74	693.401		control-reward	StartDisplay		0.0		
74	694.154		control-reward	ImageDisplay2		0.0		
74	697.163		control-reward	ChoiceDisplay	3	1.319	3	3
74	698.5		control-reward	ChosenDisplay		0.0		
74	698.767		control-reward	TurnDisplay				
74	699.018		control-reward	OutcomeDisplay				
75	699.77		control-noreward	ImageDisplay1		0.0		
75	701.76		control-noreward	StartDisplay		0.0		
75	702.512		control-noreward	ImageDisplay2		0.0		
75	705.772		control-noreward	ChoiceDisplay	3	0.798	3	3
75	706.591		control-noreward	ChosenDisplay		0.0		
75	707.376		control-noreward	TurnDisplay				
75	707.627		control-noreward	OutcomeDisplay				
76	708.379		loss-reward	ImageDisplay1		0.0		
76	710.619		loss-reward	StartDisplay		0.0		
76	711.372		loss-reward	ImageDisplay2		0.0		
76	714.381		loss-reward	ChoiceDisplay	3	1.018	3	3
76	715.417		loss-reward	ChosenDisplay		0.0		
76	715.985		loss-reward	TurnDisplay				
76	716.236		loss-reward	OutcomeDisplay				
77	716.988		control-reward	ImageDisplay1		0.0		
77	719.228		control-reward	StartDisplay		0.0		
77	719.981		control-reward	ImageDisplay2		0.0		
77	722.99		control-reward	ChoiceDisplay	3	0.893	3	3
77	723.909		control-reward	ChosenDisplay		0.0		
77	724.595		control-reward	TurnDisplay				
77	724.845		control-reward	OutcomeDisplay				
78	725.598		win-reward	ImageDisplay1		0.0		
78	727.838		win-reward	StartDisplay		0.0		
78	728.59		win-reward	ImageDisplay2		0.0		
78	731.599		win-reward	ChoiceDisplay	3	0.944	3	3
78	732.568		win-reward	ChosenDisplay		0.0		
78	733.204		win-reward	TurnDisplay				
78	733.454		win-reward	OutcomeDisplay				
79	734.207		control-noreward	ImageDisplay1		0.0		
79	736.196		control-noreward	StartDisplay		0.0		
79	736.948		control-noreward	ImageDisplay2		0.0		
79	740.208		control-noreward	ChoiceDisplay	3	0.268	3	3
79	740.492		control-noreward	ChosenDisplay		0.0		
79	741.813		control-noreward	TurnDisplay				
79	742.063		control-noreward	OutcomeDisplay				
80	742.816		win-reward	ImageDisplay1		0.0		
80	745.056		win-reward	StartDisplay		0.0		
80	745.808		win-reward	ImageDisplay2		0.0		
80	748.817		win-reward	ChoiceDisplay	3	1.072	3	3
80	749.904		win-reward	ChosenDisplay		0.0		
80	750.422		win-reward	TurnDisplay				
80	750.673		win-reward	OutcomeDisplay				
81	751.425		control-noreward	ImageDisplay1		0.0		
81	753.414		control-noreward	StartDisplay		0.0		
81	754.166		control-noreward	ImageDisplay2		0.0		
81	757.426		control-noreward	ChoiceDisplay	3	1.131	3	3
81	758.579		control-noreward	ChosenDisplay		0.0		
81	759.031		control-noreward	TurnDisplay				
81	759.282		control-noreward	OutcomeDisplay				
82	760.034		win-noreward	ImageDisplay1		0.0		
82	762.023		win-noreward	StartDisplay		0.0		
82	762.775		win-noreward	ImageDisplay2		0.0		
82	766.035		win-noreward	ChoiceDisplay	3	0.9	3	3
82	766.955		win-noreward	ChosenDisplay		0.0		
82	767.64		win-noreward	TurnDisplay				
82	767.891		win-noreward	OutcomeDisplay				
83	768.643		control-reward	ImageDisplay1		0.0		
83	770.883		control-reward	StartDisplay		0.0		
83	771.635		control-reward	ImageDisplay2		0.0		
83	774.644		control-reward	ChoiceDisplay	3	0.741	3	3
83	775.396		control-reward	ChosenDisplay		0.0		
83	776.249		control-reward	TurnDisplay				
83	776.5		control-reward	OutcomeDisplay				
84	777.252		loss-reward	ImageDisplay1		0.0		
84	779.492		loss-reward	StartDisplay		0.0		
84	780.244		loss-reward	ImageDisplay2		0.0		
84	783.253		loss-reward	ChoiceDisplay	3	1.087	3	3
84	784.357		loss-reward	ChosenDisplay		0.0		
84	784.858		loss-reward	TurnDisplay				
84	785.109		loss-reward	OutcomeDisplay				
85	785.861		loss-reward	ImageDisplay1		0.0		
85	788.101		loss-reward	StartDisplay		0.0		
85	788.853		loss-reward	ImageDisplay2		0.0		
85	791.862		loss-reward	ChoiceDisplay	3	0.995	3	3
85	792.882		loss-reward	ChosenDisplay		0.0		
85	793.467		loss-reward	TurnDisplay				
85	793.718		loss-reward	OutcomeDisplay				
86	794.47		loss-reward	ImageDisplay1		0.0		
86	796.71		loss-reward	StartDisplay		0.0		
86	797.462		loss-reward	ImageDisplay2		0.0		
86	800.471		loss-reward	ChoiceDisplay	3	0.672	3	3
86	801.157		loss-reward	ChosenDisplay		0.0		
86	802.076		loss-reward	TurnDisplay				
86	802.327		loss-reward	OutcomeDisplay				
87	803.079		control-noreward	ImageDisplay1		0.0		
87	805.068		control-noreward	StartDisplay		0.0		
87	805.821		control-noreward	ImageDisplay2		0.0		
87	809.08		control-noreward	ChoiceDisplay	3	1.314	3	3
87	810.418		control-noreward	ChosenDisplay		0.0		
87	810.685		control-noreward	TurnDisplay				
87	810.936		control-noreward	OutcomeDisplay				
88	811.688		control-noreward	ImageDisplay1		0.0		
88	813.678		control-noreward	StartDisplay		0.0		
88	814.43		control-noreward	ImageDisplay2		0.0		
88	817.69		control-noreward	ChoiceDisplay	3	0.722	3	3
88	818.425		control-noreward	ChosenDisplay		0.0		
88	819.294		control-noreward	TurnDisplay				
88	819.545		control-noreward	OutcomeDisplay				
89	820.297		win-noreward	ImageDisplay1		0.0		
89	822.287		win-noreward	StartDisplay		0.0		
89	823.039		win-noreward	ImageDisplay2		0.0		
89	826.299		win-noreward	ChoiceDisplay	3	0.849	3	3
89	827.168		win-noreward	ChosenDisplay		0.0		
89	827.903		win-noreward	TurnDisplay				
89	828.154		win-noreward	OutcomeDisplay				
90	828.906		control-noreward	ImageDisplay1		0.0		
90	830.896		control-noreward	StartDisplay		0.0		
90	831.648		control-noreward	ImageDisplay2		0.0		
90	834.908		control-noreward	ChoiceDisplay	3	0.755	3	3
90	835.677		control-noreward	ChosenDisplay		0.0		
90	836.512		control-noreward	TurnDisplay				
90	836.763		control-noreward	OutcomeDisplay				
91	837.516		win-reward	ImageDisplay1		0.0		
91	839.756		win-reward	StartDisplay		0.0		
91	840.508		win-reward	ImageDisplay2		0.0		
91	843.517		win-reward	ChoiceDisplay		0.0		
91	845.105		win-reward	ChosenDisplay		0.0		
91	845.122		win-reward	TurnDisplay				
91	845.356		win-reward	OutcomeDisplay				
92	846.108		win-reward	ImageDisplay1		0.0		
92	848.365		win-reward	StartDisplay		0.0		
92	849.117		win-reward	ImageDisplay2		0.0		
92	852.109		win-reward	ChoiceDisplay	3	0.73	3	3
92	852.861		win-reward	ChosenDisplay		0.0		
92	853.714		win-reward	TurnDisplay				
92	853.965		win-reward	OutcomeDisplay				
93	854.717		loss-noreward	ImageDisplay1		0.0		
93	856.706		loss-noreward	StartDisplay		0.0		
93	857.458		loss-noreward	ImageDisplay2		0.0		
93	860.718		loss-noreward	ChoiceDisplay	3	0.801	3	3
93	861.537		loss-noreward	ChosenDisplay		0.0		
93	862.323		loss-noreward	TurnDisplay				
93	862.574		loss-noreward	OutcomeDisplay				
94	863.326		win-reward	ImageDisplay1		0.0		
94	865.566		win-reward	StartDisplay		0.0		
94	866.318		win-reward	ImageDisplay2		0.0		
94	869.327		win-reward	ChoiceDisplay	3	0.857	3	3
94	870.197		win-reward	ChosenDisplay		0.0		
94	870.932		win-reward	TurnDisplay				
94	871.183		win-reward	OutcomeDisplay				
95	871.935		control-noreward	ImageDisplay1		0.0		
95	873.924		control-noreward	StartDisplay		0.0		
95	874.677		control-noreward	ImageDisplay2		0.0		
95	877.936		control-noreward	ChoiceDisplay	3	0.691	3	3
95	878.638		control-noreward	ChosenDisplay		0.0		
95	879.541		control-noreward	TurnDisplay				
95	879.792		control-noreward	OutcomeDisplay				
