onset	duration	trial_type	response_time	stim_file	accuracy
64.127	1.0	go	0.0	Go_X	0.0
66.651	1.0	go	0.493	Go_O	1.0
69.176	1.0	go	0.563	Go_O	1.0
71.7	1.0	go	0.56	Go_X	1.0
74.224	1.0	go	0.557	Go_O	1.0
76.748	1.0	go	0.777	Go_X	1.0
79.272	0.25	stop	0.0	Go_O	1.0
81.797	1.0	go	0.519	Go_O	1.0
84.321	0.3	stop	0.0	Go_X	1.0
86.845	1.0	go	0.717	Go_X	1.0
89.369	1.0	go	0.769	Go_X	1.0
91.894	1.0	go	0.771	Go_O	1.0
94.418	0.35	stop	0.426	Go_O	0.0
96.942	1.0	go	0.575	Go_X	1.0
99.466	1.0	go	0.659	Go_O	1.0
101.99	0.3	stop	0.0	Go_X	1.0
104.515	0.35	stop	0.482	Go_O	0.0
107.056	1.0	go	0.445	Go_O	1.0
109.58	1.0	go	0.698	Go_X	1.0
112.104	0.3	stop	0.0	Go_X	1.0
114.628	1.0	go	0.675	Go_O	1.0
117.152	1.0	go	0.866	Go_X	1.0
119.677	0.35	stop	0.0	Go_O	1.0
122.201	1.0	go	0.564	Go_O	1.0
124.725	1.0	go	0.95	Go_X	1.0
127.249	0.4	stop	0.0	Go_X	1.0
129.773	1.0	go	0.719	Go_X	1.0
132.298	1.0	go	0.901	Go_O	1.0
134.822	0.45	stop	0.0	Go_O	1.0
137.346	1.0	go	0.524	Go_O	1.0
139.87	1.0	go	0.712	Go_X	1.0
142.395	1.0	go	0.808	Go_O	1.0
144.919	1.0	go	0.721	Go_X	1.0
147.443	1.0	go	0.733	Go_O	1.0
149.967	0.5	stop	0.0	Go_X	1.0
152.491	1.0	go	0.749	Go_X	1.0
155.016	1.0	go	0.611	Go_O	1.0
157.54	1.0	go	0.851	Go_X	1.0
160.064	1.0	go	0.765	Go_X	1.0
162.588	1.0	go	0.841	Go_O	1.0
165.112	0.55	stop	0.722	Go_O	0.0
167.637	1.0	go	0.643	Go_X	1.0
170.161	1.0	go	0.647	Go_O	1.0
172.685	1.0	go	0.962	Go_X	1.0
175.209	1.0	go	0.63	Go_O	1.0
177.734	1.0	go	0.725	Go_O	1.0
180.258	1.0	go	0.619	Go_X	1.0
182.782	0.5	stop	0.0	Go_X	1.0
185.306	1.0	go	0.58	Go_X	1.0
187.83	1.0	go	0.491	Go_O	1.0
190.355	0.55	stop	0.623	Go_O	0.0
192.879	1.0	go	0.975	Go_O	1.0
195.403	0.5	stop	0.0	Go_X	1.0
197.927	0.55	stop	0.0	Go_O	1.0
200.451	1.0	go	0.779	Go_X	1.0
202.976	1.0	go	0.0	Go_X	0.0
205.5	1.0	go	0.695	Go_O	1.0
208.024	1.0	go	0.695	Go_X	1.0
210.548	0.6	stop	0.0	Go_X	1.0
213.073	1.0	go	0.955	Go_O	1.0
215.597	0.65	stop	0.723	Go_O	0.0
218.121	1.0	go	0.896	Go_X	1.0
220.645	1.0	go	0.821	Go_O	1.0
223.169	1.0	go	0.93	Go_O	1.0
225.694	1.0	go	0.0	Go_X	0.0
228.218	1.0	go	0.807	Go_X	1.0
230.742	1.0	go	0.769	Go_O	1.0
233.266	1.0	go	0.915	Go_O	1.0
235.79	1.0	go	0.765	Go_X	1.0
238.315	1.0	go	0.594	Go_O	1.0
240.839	0.6	stop	0.674	Go_X	0.0
243.363	1.0	go	0.882	Go_X	1.0
245.887	1.0	go	0.719	Go_X	1.0
248.412	1.0	go	0.923	Go_O	1.0
250.936	0.55	stop	0.599	Go_O	0.0
253.46	1.0	go	0.636	Go_X	1.0
255.984	1.0	go	0.645	Go_O	1.0
258.508	1.0	go	0.572	Go_X	1.0
261.033	1.0	go	0.777	Go_O	1.0
263.557	1.0	go	0.528	Go_X	1.0
266.081	1.0	go	0.667	Go_O	1.0
268.605	0.5	stop	0.617	Go_X	0.0
271.129	1.0	go	0.821	Go_X	1.0
273.654	1.0	go	0.86	Go_O	1.0
276.178	0.45	stop	0.776	Go_O	0.0
278.702	1.0	go	0.698	Go_O	1.0
281.226	1.0	go	0.501	Go_X	1.0
283.75	0.4	stop	0.0	Go_X	1.0
286.275	1.0	go	0.598	Go_O	1.0
288.799	0.45	stop	0.482	Go_O	0.0
291.323	1.0	go	0.508	Go_X	1.0
293.847	1.0	go	0.575	Go_X	1.0
296.372	1.0	go	0.621	Go_O	1.0
298.896	1.0	go	0.585	Go_X	1.0
301.42	1.0	go	0.573	Go_O	1.0
303.944	0.4	stop	0.527	Go_X	0.0
306.468	0.35	stop	0.528	Go_O	0.0
308.993	1.0	go	0.559	Go_O	1.0
311.517	1.0	go	0.805	Go_X	1.0
314.041	0.3	stop	0.0	Go_X	1.0
316.565	1.0	go	0.428	Go_X	1.0
319.089	1.0	go	0.63	Go_O	1.0
321.614	1.0	go	0.78	Go_X	1.0
324.138	1.0	go	0.531	Go_O	1.0
326.662	1.0	go	0.556	Go_X	1.0
329.186	1.0	go	0.627	Go_O	1.0
331.711	0.35	stop	0.0	Go_O	1.0
334.235	1.0	go	0.602	Go_X	1.0
336.759	1.0	go	0.696	Go_O	1.0
339.283	1.0	go	0.808	Go_X	1.0
341.807	1.0	go	0.857	Go_O	1.0
344.332	1.0	go	0.0	Go_X	0.0
346.856	0.4	stop	0.0	Go_X	1.0
349.38	1.0	go	0.469	Go_O	1.0
351.904	1.0	go	0.721	Go_X	0.0
354.428	1.0	go	0.0	Go_O	0.0
356.953	1.0	go	0.569	Go_O	1.0
359.477	0.45	stop	0.431	Go_O	0.0
362.001	1.0	go	0.448	Go_X	1.0
364.525	1.0	go	0.572	Go_O	1.0
367.05	0.4	stop	0.506	Go_X	0.0
369.574	1.0	go	0.503	Go_X	1.0
372.098	0.35	stop	0.554	Go_O	0.0
374.622	1.0	go	0.988	Go_X	1.0
377.146	1.0	go	0.887	Go_O	1.0
379.671	1.0	go	0.898	Go_X	1.0
382.195	1.0	go	0.764	Go_O	1.0
384.719	1.0	go	0.0	Go_O	0.0
387.243	1.0	go	0.754	Go_X	1.0
389.767	1.0	go	0.795	Go_X	1.0
392.292	0.3	stop	0.0	Go_X	1.0
394.816	1.0	go	0.787	Go_O	1.0
397.34	1.0	go	0.988	Go_X	1.0
399.864	1.0	go	0.967	Go_O	1.0
402.389	0.35	stop	0.0	Go_O	1.0
404.913	1.0	go	0.832	Go_O	1.0
407.437	1.0	go	0.789	Go_X	0.0
409.961	1.0	go	0.0	Go_O	0.0
412.485	1.0	go	0.0	Go_X	0.0
415.01	0.4	stop	0.0	Go_X	1.0
417.534	1.0	go	0.0	Go_X	0.0
420.058	1.0	go	0.658	Go_O	1.0
422.582	0.45	stop	0.0	Go_O	1.0
425.106	1.0	go	0.649	Go_X	1.0
427.631	1.0	go	0.664	Go_O	1.0
430.155	0.5	stop	0.69	Go_X	0.0
432.679	1.0	go	0.691	Go_O	1.0
435.203	1.0	go	0.925	Go_X	1.0
437.728	0.45	stop	0.0	Go_O	1.0
440.252	1.0	go	0.647	Go_O	1.0
442.776	1.0	go	0.561	Go_X	1.0
445.3	1.0	go	0.516	Go_X	1.0
447.824	1.0	go	0.0	Go_O	0.0
450.349	1.0	go	0.493	Go_X	1.0
452.873	1.0	go	0.948	Go_O	1.0
455.397	0.5	stop	0.651	Go_X	0.0
457.921	1.0	go	0.549	Go_O	1.0
460.445	0.45	stop	0.552	Go_O	0.0
462.97	1.0	go	0.547	Go_X	1.0
465.494	1.0	go	0.586	Go_O	1.0
468.018	1.0	go	0.558	Go_X	1.0
470.542	1.0	go	0.524	Go_O	1.0
473.067	1.0	go	0.429	Go_X	1.0
475.591	0.4	stop	0.544	Go_X	0.0
478.115	1.0	go	0.457	Go_X	1.0
480.639	1.0	go	0.584	Go_O	1.0
483.163	1.0	go	0.561	Go_O	1.0
485.688	0.35	stop	0.552	Go_O	0.0
488.212	0.3	stop	0.0	Go_X	1.0
490.736	0.35	stop	0.408	Go_O	0.0
493.26	1.0	go	0.75	Go_X	1.0
495.784	0.3	stop	0.0	Go_X	1.0
498.309	1.0	go	0.97	Go_O	1.0
500.833	1.0	go	0.866	Go_X	1.0
503.357	1.0	go	0.903	Go_X	1.0
505.881	1.0	go	0.0	Go_O	0.0
508.406	1.0	go	0.0	Go_X	0.0
510.93	1.0	go	0.816	Go_O	1.0
513.454	1.0	go	0.901	Go_X	1.0
515.978	1.0	go	0.759	Go_O	1.0
518.502	0.35	stop	0.0	Go_O	1.0
521.027	1.0	go	0.66	Go_O	1.0
523.551	1.0	go	0.933	Go_X	1.0
526.075	0.4	stop	0.0	Go_X	1.0
528.599	1.0	go	0.84	Go_X	1.0
531.123	1.0	go	0.88	Go_O	1.0
533.648	1.0	go	0.642	Go_X	1.0
536.172	1.0	go	0.636	Go_O	1.0
538.696	1.0	go	0.595	Go_X	1.0
541.22	0.45	stop	0.716	Go_O	0.0
543.745	1.0	go	0.755	Go_O	1.0
546.269	1.0	go	0.93	Go_X	1.0
548.793	1.0	go	0.823	Go_O	1.0
551.317	0.4	stop	0.0	Go_X	1.0
553.841	1.0	go	0.567	Go_X	1.0
556.366	0.45	stop	0.0	Go_O	1.0
558.89	1.0	go	0.657	Go_O	1.0
561.414	1.0	go	0.642	Go_X	1.0
563.938	1.0	go	0.853	Go_O	1.0
566.462	1.0	go	0.563	Go_X	1.0
568.987	1.0	go	0.965	Go_O	1.0
571.511	1.0	go	0.95	Go_O	1.0
574.035	1.0	go	0.0	Go_X	0.0
576.559	0.5	stop	0.0	Go_X	1.0
579.084	1.0	go	0.622	Go_O	1.0
581.608	1.0	go	0.8	Go_X	1.0
584.132	1.0	go	0.66	Go_X	1.0
586.656	1.0	go	0.857	Go_O	1.0
589.18	0.55	stop	0.0	Go_O	1.0
591.705	1.0	go	0.601	Go_O	1.0
594.229	0.6	stop	0.662	Go_X	0.0
596.753	1.0	go	0.829	Go_X	1.0
599.277	1.0	go	0.795	Go_X	1.0
601.801	0.55	stop	0.0	Go_O	1.0
604.326	1.0	go	0.764	Go_O	1.0
606.85	1.0	go	0.958	Go_O	1.0
609.374	1.0	go	0.901	Go_X	1.0
611.898	1.0	go	0.947	Go_O	1.0
614.423	1.0	go	0.0	Go_X	0.0
616.947	1.0	go	0.855	Go_O	1.0
619.471	1.0	go	0.78	Go_X	1.0
621.995	1.0	go	0.0	Go_O	0.0
624.519	1.0	go	0.0	Go_X	0.0
627.044	1.0	go	0.0	Go_X	0.0
629.568	0.6	stop	0.757	Go_X	0.0
632.092	1.0	go	0.706	Go_O	1.0
634.616	1.0	go	0.802	Go_O	1.0
637.14	0.55	stop	0.688	Go_O	0.0
639.665	1.0	go	0.529	Go_X	1.0
642.189	0.5	stop	0.781	Go_X	0.0
644.713	1.0	go	0.0	Go_X	0.0
647.237	1.0	go	0.824	Go_O	1.0
649.761	0.45	stop	0.0	Go_O	1.0
652.286	1.0	go	0.936	Go_O	1.0
654.81	0.5	stop	0.0	Go_X	1.0
657.334	1.0	go	0.844	Go_X	1.0
659.858	1.0	go	0.0	Go_O	0.0
662.383	1.0	go	0.976	Go_X	1.0
664.907	0.55	stop	0.358	Go_O	0.0
667.431	1.0	go	0.685	Go_X	1.0
669.955	1.0	go	0.577	Go_O	1.0
672.479	1.0	go	0.831	Go_O	1.0
675.004	1.0	go	0.852	Go_X	1.0
677.528	0.5	stop	0.0	Go_X	1.0
680.052	1.0	go	0.778	Go_X	1.0
682.576	1.0	go	0.0	Go_O	0.0
685.1	0.55	stop	0.0	Go_O	1.0
687.625	1.0	go	0.56	Go_O	1.0
690.149	1.0	go	0.798	Go_X	1.0
692.673	1.0	go	0.645	Go_O	1.0
695.197	1.0	go	0.692	Go_X	1.0
697.722	0.6	stop	0.683	Go_X	0.0
700.246	1.0	go	0.554	Go_X	1.0
702.77	0.55	stop	0.776	Go_O	0.0
705.294	1.0	go	0.961	Go_O	1.0
707.818	1.0	go	0.76	Go_X	1.0
710.343	0.5	stop	0.63	Go_X	0.0
712.867	1.0	go	0.569	Go_O	1.0
715.391	1.0	go	0.774	Go_O	1.0
717.915	1.0	go	0.879	Go_X	1.0
720.439	1.0	go	0.904	Go_O	1.0
722.964	0.45	stop	0.0	Go_O	1.0
725.488	1.0	go	0.719	Go_X	1.0
728.012	0.5	stop	0.0	Go_X	1.0
730.536	1.0	go	0.815	Go_O	1.0
733.061	1.0	go	0.879	Go_X	1.0
735.585	1.0	go	0.635	Go_O	1.0
738.109	1.0	go	0.709	Go_X	1.0
740.633	1.0	go	0.594	Go_O	1.0
743.157	1.0	go	0.0	Go_X	0.0
745.682	0.55	stop	0.638	Go_O	0.0
748.206	1.0	go	0.723	Go_X	1.0
750.73	1.0	go	0.857	Go_O	1.0
753.254	0.5	stop	0.0	Go_X	1.0
755.778	1.0	go	0.776	Go_O	1.0
758.303	1.0	go	0.0	Go_X	0.0
760.827	0.55	stop	0.656	Go_O	0.0
763.351	1.0	go	0.724	Go_O	1.0
765.875	1.0	go	0.797	Go_X	1.0
768.4	1.0	go	0.0	Go_O	0.0
770.924	1.0	go	0.546	Go_X	1.0
773.448	0.5	stop	0.0	Go_X	1.0
775.972	1.0	go	0.476	Go_X	1.0
778.496	0.55	stop	0.688	Go_O	0.0
781.021	1.0	go	0.874	Go_O	1.0
783.545	1.0	go	0.948	Go_X	1.0
786.069	1.0	go	0.926	Go_O	1.0
788.593	1.0	go	0.611	Go_O	1.0
791.117	1.0	go	0.84	Go_X	1.0
793.642	0.5	stop	0.0	Go_X	1.0
796.166	1.0	go	0.461	Go_O	1.0
798.69	1.0	go	0.867	Go_X	1.0
801.214	0.55	stop	0.802	Go_O	0.0
803.739	0.5	stop	0.846	Go_X	0.0
806.263	1.0	go	0.574	Go_X	1.0
808.787	1.0	go	0.79	Go_O	1.0
811.311	1.0	go	0.859	Go_O	1.0
813.835	1.0	go	0.861	Go_X	1.0
816.36	0.45	stop	0.0	Go_O	1.0
818.884	1.0	go	0.595	Go_X	1.0
