frame	onset	duration	trial_type	event_type	response_type	response_time	stim_file	accuracy
0	89.29		control-reward	ImageDisplay1		0.0		
0	91.279	0.75	control-reward	StartDisplay				
0	92.031		control-reward	ImageDisplay2		0.0		
0	95.274	1.6	control-reward	ChoiceDisplay	1	0.834	1	1
0	96.127	0.766	control-reward	ChosenDisplay		0.0		
0	96.879	0.25	control-reward	TurnDisplay				
0	97.13	0.75	control-reward	OutcomeDisplay				
1	97.882		win-noreward	ImageDisplay1		0.0		
1	100.122	0.75	win-noreward	StartDisplay				
1	100.875		win-noreward	ImageDisplay2		0.0		
1	103.884	1.6	win-noreward	ChoiceDisplay	1	0.812	1	1
1	104.719	0.788	win-noreward	ChosenDisplay		0.0		
1	105.488	0.25	win-noreward	TurnDisplay				
1	105.739	0.75	win-noreward	OutcomeDisplay				
2	106.491		loss-reward	ImageDisplay1		0.0		
2	108.481	0.75	loss-reward	StartDisplay				
2	109.233		loss-reward	ImageDisplay2		0.0		
2	112.493	1.6	loss-reward	ChoiceDisplay	1	0.889	1	1
2	113.395	0.711	loss-reward	ChosenDisplay		0.0		
2	114.097	0.25	loss-reward	TurnDisplay				
2	114.348	0.75	loss-reward	OutcomeDisplay				
3	115.1		loss-noreward	ImageDisplay1		0.0		
3	117.34	0.75	loss-noreward	StartDisplay				
3	118.093		loss-noreward	ImageDisplay2		0.0		
3	121.102	1.6	loss-noreward	ChoiceDisplay	1	0.827	1	1
3	121.954	0.773	loss-noreward	ChosenDisplay		0.0		
3	122.707	0.25	loss-noreward	TurnDisplay				
3	122.957	0.75	loss-noreward	OutcomeDisplay				
4	123.71		win-noreward	ImageDisplay1		0.0		
4	125.699	0.75	win-noreward	StartDisplay				
4	126.451		win-noreward	ImageDisplay2		0.0		
4	129.711	1.6	win-noreward	ChoiceDisplay	1	0.93	1	1
4	130.664	0.67	win-noreward	ChosenDisplay		0.0		
4	131.316	0.25	win-noreward	TurnDisplay				
4	131.566	0.75	win-noreward	OutcomeDisplay				
5	132.319		control-reward	ImageDisplay1		0.0		
5	134.308	0.75	control-reward	StartDisplay				
5	135.06		control-reward	ImageDisplay2		0.0		
5	138.32	1.6	control-reward	ChoiceDisplay	1	0.241	1	1
5	138.587	1.359	control-reward	ChosenDisplay		0.0		
5	139.925	0.25	control-reward	TurnDisplay				
5	140.175	0.75	control-reward	OutcomeDisplay				
6	140.928		loss-reward	ImageDisplay1		0.0		
6	142.917	0.75	loss-reward	StartDisplay				
6	143.669		loss-reward	ImageDisplay2		0.0		
6	146.929	1.6	loss-reward	ChoiceDisplay	1	0.629	1	1
6	147.581	0.971	loss-reward	ChosenDisplay		0.0		
6	148.534	0.25	loss-reward	TurnDisplay				
6	148.784	0.75	loss-reward	OutcomeDisplay				
7	149.537		control-reward	ImageDisplay1		0.0		
7	151.526	0.75	control-reward	StartDisplay				
7	152.278		control-reward	ImageDisplay2		0.0		
7	155.538	1.6	control-reward	ChoiceDisplay	1	0.843	1	1
7	156.407	0.757	control-reward	ChosenDisplay		0.0		
7	157.143	0.25	control-reward	TurnDisplay				
7	157.394	0.75	control-reward	OutcomeDisplay				
8	158.146		control-reward	ImageDisplay1		0.0		
8	160.135	0.75	control-reward	StartDisplay				
8	160.887		control-reward	ImageDisplay2		0.0		
8	164.147	1.6	control-reward	ChoiceDisplay	1	0.71	1	1
8	164.883	0.89	control-reward	ChosenDisplay		0.0		
8	165.752	0.25	control-reward	TurnDisplay				
8	166.003	0.75	control-reward	OutcomeDisplay				
9	166.755		win-reward	ImageDisplay1		0.0		
9	168.744	0.75	win-reward	StartDisplay				
9	169.496		win-reward	ImageDisplay2		0.0		
9	172.756	1.6	win-reward	ChoiceDisplay	1	0.651	1	1
9	173.425	0.949	win-reward	ChosenDisplay		0.0		
9	174.361	0.25	win-reward	TurnDisplay				
9	174.612	0.75	win-reward	OutcomeDisplay				
10	175.364		loss-noreward	ImageDisplay1		0.0		
10	177.604	0.75	loss-noreward	StartDisplay				
10	178.356		loss-noreward	ImageDisplay2		0.0		
10	181.365	1.6	loss-noreward	ChoiceDisplay	1	0.729	1	1
10	182.117	0.871	loss-noreward	ChosenDisplay		0.0		
10	182.97	0.25	loss-noreward	TurnDisplay				
10	183.221	0.75	loss-noreward	OutcomeDisplay				
11	183.973		loss-noreward	ImageDisplay1		0.0		
11	185.962	0.75	loss-noreward	StartDisplay				
11	186.715		loss-noreward	ImageDisplay2		0.0		
11	189.974	1.6	loss-noreward	ChoiceDisplay	1	0.422	1	1
11	190.409	1.178	loss-noreward	ChosenDisplay		0.0		
11	191.579	0.25	loss-noreward	TurnDisplay				
11	191.83	0.75	loss-noreward	OutcomeDisplay				
12	192.582		control-noreward	ImageDisplay1		0.0		
12	194.822	0.75	control-noreward	StartDisplay				
12	195.574		control-noreward	ImageDisplay2		0.0		
12	198.583	1.6	control-noreward	ChoiceDisplay	1	0.317	1	1
12	198.918	1.283	control-noreward	ChosenDisplay		0.0		
12	200.188	0.25	control-noreward	TurnDisplay				
12	200.439	0.75	control-noreward	OutcomeDisplay				
13	201.191		win-noreward	ImageDisplay1		0.0		
13	203.431	0.75	win-noreward	StartDisplay				
13	204.183		win-noreward	ImageDisplay2		0.0		
13	207.192	1.6	win-noreward	ChoiceDisplay	1	0.484	1	1
13	207.694	1.116	win-noreward	ChosenDisplay		0.0		
13	208.797	0.25	win-noreward	TurnDisplay				
13	209.048	0.75	win-noreward	OutcomeDisplay				
14	209.8		loss-reward	ImageDisplay1		0.0		
14	212.04	0.75	loss-reward	StartDisplay				
14	212.793		loss-reward	ImageDisplay2		0.0		
14	215.802	1.6	loss-reward	ChoiceDisplay	1	0.416	1	1
14	216.236	1.184	loss-reward	ChosenDisplay		0.0		
14	217.406	0.25	loss-reward	TurnDisplay				
14	217.657	0.75	loss-reward	OutcomeDisplay				
15	218.409		loss-reward	ImageDisplay1		0.0		
15	220.649	0.75	loss-reward	StartDisplay				
15	221.402		loss-reward	ImageDisplay2		0.0		
15	224.411	1.6	loss-reward	ChoiceDisplay	1	0.479	1	1
15	224.912	1.121	loss-reward	ChosenDisplay		0.0		
15	226.015	0.25	loss-reward	TurnDisplay				
15	226.266	0.75	loss-reward	OutcomeDisplay				
16	227.018		loss-noreward	ImageDisplay1		0.0		
16	229.258	0.75	loss-noreward	StartDisplay				
16	230.011		loss-noreward	ImageDisplay2		0.0		
16	233.02	1.6	loss-noreward	ChoiceDisplay	1	0.8	1	1
16	233.839	0.8	loss-noreward	ChosenDisplay		0.0		
16	234.624	0.25	loss-noreward	TurnDisplay				
16	234.875	0.75	loss-noreward	OutcomeDisplay				
17	235.627		win-noreward	ImageDisplay1		0.0		
17	237.617	0.75	win-noreward	StartDisplay				
17	238.369		win-noreward	ImageDisplay2		0.0		
17	241.629	1.6	win-noreward	ChoiceDisplay	1	0.39	1	1
17	242.047	1.21	win-noreward	ChosenDisplay		0.0		
17	243.234	0.25	win-noreward	TurnDisplay				
17	243.484	0.75	win-noreward	OutcomeDisplay				
18	244.237		win-noreward	ImageDisplay1		0.0		
18	246.477	0.75	win-noreward	StartDisplay				
18	247.229		win-noreward	ImageDisplay2		0.0		
18	250.238	1.6	win-noreward	ChoiceDisplay	1	0.992	1	1
18	251.241	0.608	win-noreward	ChosenDisplay		0.0		
18	251.843	0.25	win-noreward	TurnDisplay				
18	252.093	0.75	win-noreward	OutcomeDisplay				
19	252.846		loss-noreward	ImageDisplay1		0.0		
19	254.835	0.75	loss-noreward	StartDisplay				
19	255.587		loss-noreward	ImageDisplay2		0.0		
19	258.847	1.6	loss-noreward	ChoiceDisplay	1	0.817	1	1
19	259.683	0.783	loss-noreward	ChosenDisplay		0.0		
19	260.452	0.25	loss-noreward	TurnDisplay				
19	260.702	0.75	loss-noreward	OutcomeDisplay				
20	261.455		win-noreward	ImageDisplay1		0.0		
20	263.444	0.75	win-noreward	StartDisplay				
20	264.196		win-noreward	ImageDisplay2		0.0		
20	267.456	1.6	win-noreward	ChoiceDisplay	1	0.751	1	1
20	268.225	0.849	win-noreward	ChosenDisplay		0.0		
20	269.061	0.25	win-noreward	TurnDisplay				
20	269.312	0.75	win-noreward	OutcomeDisplay				
21	270.064		control-noreward	ImageDisplay1		0.0		
21	272.053	0.75	control-noreward	StartDisplay				
21	272.805		control-noreward	ImageDisplay2		0.0		
21	276.065	1.6	control-noreward	ChoiceDisplay	1	0.679	1	1
21	276.767	0.921	control-noreward	ChosenDisplay		0.0		
21	277.67	0.25	control-noreward	TurnDisplay				
21	277.921	0.75	control-noreward	OutcomeDisplay				
22	278.673		control-reward	ImageDisplay1		0.0		
22	280.913	0.75	control-reward	StartDisplay				
22	281.665		control-reward	ImageDisplay2		0.0		
22	284.674	1.6	control-reward	ChoiceDisplay	1	0.795	1	1
22	285.493	0.805	control-reward	ChosenDisplay		0.0		
22	286.279	0.25	control-reward	TurnDisplay				
22	286.53	0.75	control-reward	OutcomeDisplay				
23	287.282		win-noreward	ImageDisplay1		0.0		
23	289.271	0.75	win-noreward	StartDisplay				
23	290.023		win-noreward	ImageDisplay2		0.0		
23	293.283	1.6	win-noreward	ChoiceDisplay	1	0.677	1	1
23	293.985	0.923	win-noreward	ChosenDisplay		0.0		
23	294.888	0.25	win-noreward	TurnDisplay				
23	295.139	0.75	win-noreward	OutcomeDisplay				
24	295.891		loss-noreward	ImageDisplay1		0.0		
24	298.131	0.75	loss-noreward	StartDisplay				
24	298.883		loss-noreward	ImageDisplay2		0.0		
24	301.892	1.6	loss-noreward	ChoiceDisplay	1	1.031	1	1
24	302.945	0.569	loss-noreward	ChosenDisplay		0.0		
24	303.497	0.25	loss-noreward	TurnDisplay				
24	303.748	0.75	loss-noreward	OutcomeDisplay				
25	304.5		control-noreward	ImageDisplay1		0.0		
25	306.489	0.75	control-noreward	StartDisplay				
25	307.242		control-noreward	ImageDisplay2		0.0		
25	310.501	1.6	control-noreward	ChoiceDisplay	1	0.295	1	1
25	310.819	1.305	control-noreward	ChosenDisplay		0.0		
25	312.106	0.25	control-noreward	TurnDisplay				
25	312.357	0.75	control-noreward	OutcomeDisplay				
26	313.109		control-noreward	ImageDisplay1		0.0		
26	315.349	0.75	control-noreward	StartDisplay				
26	316.101		control-noreward	ImageDisplay2		0.0		
26	319.11	1.6	control-noreward	ChoiceDisplay	1	0.774	1	1
26	319.896	0.826	control-noreward	ChosenDisplay		0.0		
26	320.715	0.25	control-noreward	TurnDisplay				
26	320.966	0.75	control-noreward	OutcomeDisplay				
27	321.718		control-noreward	ImageDisplay1		0.0		
27	323.707	0.75	control-noreward	StartDisplay				
27	324.46		control-noreward	ImageDisplay2		0.0		
27	327.719	1.6	control-noreward	ChoiceDisplay	1	0.657	1	1
27	328.388	0.943	control-noreward	ChosenDisplay		0.0		
27	329.324	0.25	control-noreward	TurnDisplay				
27	329.575	0.75	control-noreward	OutcomeDisplay				
28	330.327		win-reward	ImageDisplay1		0.0		
28	332.317	0.75	win-reward	StartDisplay				
28	333.069		win-reward	ImageDisplay2		0.0		
28	336.329	1.6	win-reward	ChoiceDisplay	1	0.368	1	1
28	336.713	1.232	win-reward	ChosenDisplay		0.0		
28	337.933	0.25	win-reward	TurnDisplay				
28	338.184	0.75	win-reward	OutcomeDisplay				
29	338.936		control-noreward	ImageDisplay1		0.0		
29	340.926	0.75	control-noreward	StartDisplay				
29	341.678		control-noreward	ImageDisplay2		0.0		
29	344.938	1.6	control-noreward	ChoiceDisplay	1	0.261	1	1
29	345.222	1.339	control-noreward	ChosenDisplay		0.0		
29	346.542	0.25	control-noreward	TurnDisplay				
29	346.793	0.75	control-noreward	OutcomeDisplay				
30	347.545		win-reward	ImageDisplay1		0.0		
30	349.535	0.75	win-reward	StartDisplay				
30	350.287		win-reward	ImageDisplay2		0.0		
30	353.547	1.6	win-reward	ChoiceDisplay	1	0.489	1	1
30	354.048	1.111	win-reward	ChosenDisplay		0.0		
30	355.151	0.25	win-reward	TurnDisplay				
30	355.402	0.75	win-reward	OutcomeDisplay				
31	356.154		control-reward	ImageDisplay1		0.0		
31	358.144	0.75	control-reward	StartDisplay				
31	358.896		control-reward	ImageDisplay2		0.0		
31	362.156	1.6	control-reward	ChoiceDisplay	1	0.547	1	1
31	362.724	1.053	control-reward	ChosenDisplay		0.0		
31	363.761	0.25	control-reward	TurnDisplay				
31	364.011	0.75	control-reward	OutcomeDisplay				
32	364.764		loss-reward	ImageDisplay1		0.0		
32	366.753	0.75	loss-reward	StartDisplay				
32	367.505		loss-reward	ImageDisplay2		0.0		
32	370.765	1.6	loss-reward	ChoiceDisplay	1	0.483	1	1
32	371.266	1.117	loss-reward	ChosenDisplay		0.0		
32	372.37	0.25	loss-reward	TurnDisplay				
32	372.62	0.75	loss-reward	OutcomeDisplay				
33	373.373		loss-reward	ImageDisplay1		0.0		
33	375.362	0.75	loss-reward	StartDisplay				
33	376.114		loss-reward	ImageDisplay2		0.0		
33	379.374	1.6	loss-reward	ChoiceDisplay	1	0.425	1	1
33	379.825	1.175	loss-reward	ChosenDisplay		0.0		
33	380.979	0.25	loss-reward	TurnDisplay				
33	381.229	0.75	loss-reward	OutcomeDisplay				
34	381.982		win-reward	ImageDisplay1		0.0		
34	383.971	0.75	win-reward	StartDisplay				
34	384.723		win-reward	ImageDisplay2		0.0		
34	387.983	1.6	win-reward	ChoiceDisplay	1	0.316	1	1
34	388.317	1.284	win-reward	ChosenDisplay		0.0		
34	389.588	0.25	win-reward	TurnDisplay				
34	389.839	0.75	win-reward	OutcomeDisplay				
35	390.591		win-reward	ImageDisplay1		0.0		
35	392.831	0.75	win-reward	StartDisplay				
35	393.583		win-reward	ImageDisplay2		0.0		
35	396.592	1.6	win-reward	ChoiceDisplay	1	0.568	1	1
35	397.177	1.032	win-reward	ChosenDisplay		0.0		
35	398.197	0.25	win-reward	TurnDisplay				
35	398.448	0.75	win-reward	OutcomeDisplay				
36	399.2		control-reward	ImageDisplay1		0.0		
36	401.44	0.75	control-reward	StartDisplay				
36	402.192		control-reward	ImageDisplay2		0.0		
36	405.201	1.6	control-reward	ChoiceDisplay	1	0.385	1	1
36	405.602	1.215	control-reward	ChosenDisplay		0.0		
36	406.806	0.25	control-reward	TurnDisplay				
36	407.057	0.75	control-reward	OutcomeDisplay				
37	407.809		loss-noreward	ImageDisplay1		0.0		
37	409.798	0.75	loss-noreward	StartDisplay				
37	410.55		loss-noreward	ImageDisplay2		0.0		
37	413.81	1.6	loss-noreward	ChoiceDisplay	1	0.347	1	1
37	414.178	1.253	loss-noreward	ChosenDisplay		0.0		
37	415.415	0.25	loss-noreward	TurnDisplay				
37	415.666	0.75	loss-noreward	OutcomeDisplay				
38	416.418		loss-reward	ImageDisplay1		0.0		
38	418.407	0.75	loss-reward	StartDisplay				
38	419.16		loss-reward	ImageDisplay2		0.0		
38	422.419	1.6	loss-reward	ChoiceDisplay	1	0.277	1	1
38	422.72	1.323	loss-reward	ChosenDisplay		0.0		
38	424.024	0.25	loss-reward	TurnDisplay				
38	424.275	0.75	loss-reward	OutcomeDisplay				
39	425.027		win-noreward	ImageDisplay1		0.0		
39	427.267	0.75	win-noreward	StartDisplay				
39	428.019		win-noreward	ImageDisplay2		0.0		
39	431.028	1.6	win-noreward	ChoiceDisplay	1	0.41	1	1
39	431.463	1.19	win-noreward	ChosenDisplay		0.0		
39	432.633	0.25	win-noreward	TurnDisplay				
39	432.884	0.75	win-noreward	OutcomeDisplay				
40	433.636		control-reward	ImageDisplay1		0.0		
40	435.625	0.75	control-reward	StartDisplay				
40	436.378		control-reward	ImageDisplay2		0.0		
40	439.637	1.6	control-reward	ChoiceDisplay	1	0.61	1	1
40	440.273	0.99	control-reward	ChosenDisplay		0.0		
40	441.242	0.25	control-reward	TurnDisplay				
40	441.493	0.75	control-reward	OutcomeDisplay				
41	442.245		win-reward	ImageDisplay1		0.0		
41	444.235	0.75	win-reward	StartDisplay				
41	444.987		win-reward	ImageDisplay2		0.0		
41	448.247	1.6	win-reward	ChoiceDisplay	1	0.67	1	1
41	448.932	0.93	win-reward	ChosenDisplay		0.0		
41	449.851	0.25	win-reward	TurnDisplay				
41	450.102	0.75	win-reward	OutcomeDisplay				
42	450.854		loss-noreward	ImageDisplay1		0.0		
42	452.844	0.75	loss-noreward	StartDisplay				
42	453.596		loss-noreward	ImageDisplay2		0.0		
42	456.856	1.6	loss-noreward	ChoiceDisplay	1	1.105	1	1
42	457.976	0.495	loss-noreward	ChosenDisplay		0.0		
42	458.46	0.25	loss-noreward	TurnDisplay				
42	458.711	0.75	loss-noreward	OutcomeDisplay				
43	459.463		control-reward	ImageDisplay1		0.0		
43	461.453	0.75	control-reward	StartDisplay				
43	462.205		control-reward	ImageDisplay2		0.0		
43	465.465	1.6	control-reward	ChoiceDisplay	1	0.178	1	1
43	465.665	1.422	control-reward	ChosenDisplay		0.0		
43	467.069	0.25	control-reward	TurnDisplay				
43	467.32	0.75	control-reward	OutcomeDisplay				
44	468.072		control-noreward	ImageDisplay1		0.0		
44	470.062	0.75	control-noreward	StartDisplay				
44	470.814		control-noreward	ImageDisplay2		0.0		
44	474.074	1.6	control-noreward	ChoiceDisplay	1	0.496	1	1
44	474.592	1.104	control-noreward	ChosenDisplay		0.0		
44	475.679	0.25	control-noreward	TurnDisplay				
44	475.929	0.75	control-noreward	OutcomeDisplay				
45	476.682		loss-reward	ImageDisplay1		0.0		
45	478.671	0.75	loss-reward	StartDisplay				
45	479.423		loss-reward	ImageDisplay2		0.0		
45	482.683	1.6	loss-reward	ChoiceDisplay	1	0.491	1	1
45	483.201	1.109	loss-reward	ChosenDisplay		0.0		
45	484.288	0.25	loss-reward	TurnDisplay				
45	484.538	0.75	loss-reward	OutcomeDisplay				
46	485.291		loss-reward	ImageDisplay1		0.0		
46	487.531	0.75	loss-reward	StartDisplay				
46	488.283		loss-reward	ImageDisplay2		0.0		
46	491.292	1.6	loss-reward	ChoiceDisplay	1	0.26	1	1
46	491.576	1.34	loss-reward	ChosenDisplay		0.0		
46	492.897	0.25	loss-reward	TurnDisplay				
46	493.147	0.75	loss-reward	OutcomeDisplay				
47	493.9		loss-noreward	ImageDisplay1		0.0		
47	495.889	0.75	loss-noreward	StartDisplay				
47	496.641		loss-noreward	ImageDisplay2		0.0		
47	499.901	1.6	loss-noreward	ChoiceDisplay	1	0.491	1	1
47	500.419	1.109	loss-noreward	ChosenDisplay		0.0		
47	501.506	0.25	loss-noreward	TurnDisplay				
47	501.757	0.75	loss-noreward	OutcomeDisplay				
48	502.509		loss-reward	ImageDisplay1		0.0		
48	504.749	0.75	loss-reward	StartDisplay				
48	505.501		loss-reward	ImageDisplay2		0.0		
48	508.51	1.6	loss-reward	ChoiceDisplay	1	1.534	1	1
48	510.065	0.0	loss-reward	ChosenDisplay		0.0		
48	510.115	0.25	loss-reward	TurnDisplay				
48	510.299	0.75	loss-reward	OutcomeDisplay				
49	511.051		win-reward	ImageDisplay1		0.0		
49	513.04	0.75	win-reward	StartDisplay				
49	513.792		win-reward	ImageDisplay2		0.0		
49	517.052	1.6	win-reward	ChoiceDisplay	1	0.332	1	1
49	517.403	1.268	win-reward	ChosenDisplay		0.0		
49	518.657	0.25	win-reward	TurnDisplay				
49	518.908	0.75	win-reward	OutcomeDisplay				
50	519.66		loss-reward	ImageDisplay1		0.0		
50	521.649	0.75	loss-reward	StartDisplay				
50	522.402		loss-reward	ImageDisplay2		0.0		
50	525.661	1.6	loss-reward	ChoiceDisplay	1	0.295	1	1
50	525.979	1.305	loss-reward	ChosenDisplay		0.0		
50	527.266	0.25	loss-reward	TurnDisplay				
50	527.517	0.75	loss-reward	OutcomeDisplay				
51	528.269		win-reward	ImageDisplay1		0.0		
51	530.509	0.75	win-reward	StartDisplay				
51	531.261		win-reward	ImageDisplay2		0.0		
51	534.27	1.6	win-reward	ChoiceDisplay	1	0.447	1	1
51	534.738	1.153	win-reward	ChosenDisplay		0.0		
51	535.875	0.25	win-reward	TurnDisplay				
51	536.126	0.75	win-reward	OutcomeDisplay				
52	536.878		control-noreward	ImageDisplay1		0.0		
52	539.118	0.75	control-noreward	StartDisplay				
52	539.87		control-noreward	ImageDisplay2		0.0		
52	542.879	1.6	control-noreward	ChoiceDisplay	1	0.769	1	1
52	543.665	0.831	control-noreward	ChosenDisplay		0.0		
52	544.484	0.25	control-noreward	TurnDisplay				
52	544.735	0.75	control-noreward	OutcomeDisplay				
53	545.487		control-noreward	ImageDisplay1		0.0		
53	547.727	0.75	control-noreward	StartDisplay				
53	548.48		control-noreward	ImageDisplay2		0.0		
53	551.489	1.6	control-noreward	ChoiceDisplay	1	0.208	1	1
53	551.723	1.392	control-noreward	ChosenDisplay		0.0		
53	553.093	0.25	control-noreward	TurnDisplay				
53	553.344	0.75	control-noreward	OutcomeDisplay				
54	554.096		loss-reward	ImageDisplay1		0.0		
54	556.336	0.75	loss-reward	StartDisplay				
54	557.089		loss-reward	ImageDisplay2		0.0		
54	560.098	1.6	loss-reward	ChoiceDisplay	1	0.562	1	1
54	560.683	1.038	loss-reward	ChosenDisplay		0.0		
54	561.702	0.25	loss-reward	TurnDisplay				
54	561.953	0.75	loss-reward	OutcomeDisplay				
55	562.705		win-reward	ImageDisplay1		0.0		
55	564.945	0.75	win-reward	StartDisplay				
55	565.698		win-reward	ImageDisplay2		0.0		
55	568.707	1.6	win-reward	ChoiceDisplay	1	0.343	1	1
55	569.074	1.257	win-reward	ChosenDisplay		0.0		
55	570.311	0.25	win-reward	TurnDisplay				
55	570.562	0.75	win-reward	OutcomeDisplay				
56	571.314		control-reward	ImageDisplay1		0.0		
56	573.555	0.75	control-reward	StartDisplay				
56	574.307		control-reward	ImageDisplay2		0.0		
56	577.316	1.6	control-reward	ChoiceDisplay	1	0.532	1	1
56	577.867	1.068	control-reward	ChosenDisplay		0.0		
56	578.921	0.25	control-reward	TurnDisplay				
56	579.171	0.75	control-reward	OutcomeDisplay				
57	579.924		loss-reward	ImageDisplay1		0.0		
57	582.164	0.75	loss-reward	StartDisplay				
57	582.916		loss-reward	ImageDisplay2		0.0		
57	585.925	1.6	loss-reward	ChoiceDisplay	1	0.335	1	1
57	586.276	1.265	loss-reward	ChosenDisplay		0.0		
57	587.53	0.25	loss-reward	TurnDisplay				
57	587.78	0.75	loss-reward	OutcomeDisplay				
58	588.533		control-reward	ImageDisplay1		0.0		
58	590.773	0.75	control-reward	StartDisplay				
58	591.525		control-reward	ImageDisplay2		0.0		
58	594.534	1.6	control-reward	ChoiceDisplay	1	0.213	1	1
58	594.768	1.387	control-reward	ChosenDisplay		0.0		
58	596.139	0.25	control-reward	TurnDisplay				
58	596.389	0.75	control-reward	OutcomeDisplay				
59	597.142		loss-noreward	ImageDisplay1		0.0		
59	599.382	0.75	loss-noreward	StartDisplay				
59	600.134		loss-noreward	ImageDisplay2		0.0		
59	603.143	1.6	loss-noreward	ChoiceDisplay	1	0.812	1	1
59	603.979	0.788	loss-noreward	ChosenDisplay		0.0		
59	604.748	0.25	loss-noreward	TurnDisplay				
59	604.999	0.75	loss-noreward	OutcomeDisplay				
60	605.751		win-noreward	ImageDisplay1		0.0		
60	607.991	0.75	win-noreward	StartDisplay				
60	608.743		win-noreward	ImageDisplay2		0.0		
60	611.752	1.6	win-noreward	ChoiceDisplay	1	0.229	1	1
60	612.003	1.371	win-noreward	ChosenDisplay		0.0		
60	613.357	0.25	win-noreward	TurnDisplay				
60	613.608	0.75	win-noreward	OutcomeDisplay				
61	614.36		win-reward	ImageDisplay1		0.0		
61	616.349	0.75	win-reward	StartDisplay				
61	617.101		win-reward	ImageDisplay2		0.0		
61	620.361	1.6	win-reward	ChoiceDisplay	1	0.525	1	1
61	620.913	1.075	win-reward	ChosenDisplay		0.0		
61	621.966	0.25	win-reward	TurnDisplay				
61	622.217	0.75	win-reward	OutcomeDisplay				
62	622.969		win-reward	ImageDisplay1		0.0		
62	625.209	0.75	win-reward	StartDisplay				
62	625.961		win-reward	ImageDisplay2		0.0		
62	628.97	1.6	win-reward	ChoiceDisplay	1	0.311	1	1
62	629.305	1.289	win-reward	ChosenDisplay		0.0		
62	630.575	0.25	win-reward	TurnDisplay				
62	630.826	0.75	win-reward	OutcomeDisplay				
63	631.578		control-noreward	ImageDisplay1		0.0		
63	633.567	0.75	control-noreward	StartDisplay				
63	634.32		control-noreward	ImageDisplay2		0.0		
63	637.579	1.6	control-noreward	ChoiceDisplay	1	0.318	1	1
63	637.914	1.282	control-noreward	ChosenDisplay		0.0		
63	639.184	0.25	control-noreward	TurnDisplay				
63	639.435	0.75	control-noreward	OutcomeDisplay				
64	640.187		loss-reward	ImageDisplay1		0.0		
64	642.427	0.75	loss-reward	StartDisplay				
64	643.179		loss-reward	ImageDisplay2		0.0		
64	646.188	1.6	loss-reward	ChoiceDisplay	1	0.471	1	1
64	646.673	1.129	loss-reward	ChosenDisplay		0.0		
64	647.793	0.25	loss-reward	TurnDisplay				
64	648.044	0.75	loss-reward	OutcomeDisplay				
65	648.796		control-noreward	ImageDisplay1		0.0		
65	651.036	0.75	control-noreward	StartDisplay				
65	651.788		control-noreward	ImageDisplay2		0.0		
65	654.797	1.6	control-noreward	ChoiceDisplay	1	0.603	1	1
65	655.416	0.997	control-noreward	ChosenDisplay		0.0		
65	656.402	0.25	control-noreward	TurnDisplay				
65	656.653	0.75	control-noreward	OutcomeDisplay				
66	657.405		loss-noreward	ImageDisplay1		0.0		
66	659.645	0.75	loss-noreward	StartDisplay				
66	660.397		loss-noreward	ImageDisplay2		0.0		
66	663.406	1.6	loss-noreward	ChoiceDisplay	1	0.453	1	1
66	663.875	1.147	loss-noreward	ChosenDisplay		0.0		
66	665.011	0.25	loss-noreward	TurnDisplay				
66	665.262	0.75	loss-noreward	OutcomeDisplay				
67	666.014		win-reward	ImageDisplay1		0.0		
67	668.254	0.75	win-reward	StartDisplay				
67	669.007		win-reward	ImageDisplay2		0.0		
67	672.016	1.6	win-reward	ChoiceDisplay	1	0.6	1	1
67	672.634	1.0	win-reward	ChosenDisplay		0.0		
67	673.62	0.25	win-reward	TurnDisplay				
67	673.871	0.75	win-reward	OutcomeDisplay				
68	674.623		win-reward	ImageDisplay1		0.0		
68	676.863	0.75	win-reward	StartDisplay				
68	677.616		win-reward	ImageDisplay2		0.0		
68	680.625	1.6	win-reward	ChoiceDisplay	1	0.511	1	1
68	681.16	1.089	win-reward	ChosenDisplay		0.0		
68	682.229	0.25	win-reward	TurnDisplay				
68	682.48	0.75	win-reward	OutcomeDisplay				
69	683.232		loss-noreward	ImageDisplay1		0.0		
69	685.222	0.75	loss-noreward	StartDisplay				
69	685.974		loss-noreward	ImageDisplay2		0.0		
69	689.234	1.6	loss-noreward	ChoiceDisplay	1	0.362	1	1
69	689.618	1.238	loss-noreward	ChosenDisplay		0.0		
69	690.839	0.25	loss-noreward	TurnDisplay				
69	691.089	0.75	loss-noreward	OutcomeDisplay				
70	691.841		win-reward	ImageDisplay1		0.0		
70	693.831	0.75	win-reward	StartDisplay				
70	694.583		win-reward	ImageDisplay2		0.0		
70	697.843	1.6	win-reward	ChoiceDisplay	1	0.341	1	1
70	698.211	1.259	win-reward	ChosenDisplay		0.0		
70	699.448	0.25	win-reward	TurnDisplay				
70	699.698	0.75	win-reward	OutcomeDisplay				
71	700.451		control-noreward	ImageDisplay1		0.0		
71	702.691	0.75	control-noreward	StartDisplay				
71	703.443		control-noreward	ImageDisplay2		0.0		
71	706.452	1.6	control-noreward	ChoiceDisplay	1	0.312	1	1
71	706.786	1.288	control-noreward	ChosenDisplay		0.0		
71	708.057	0.25	control-noreward	TurnDisplay				
71	708.307	0.75	control-noreward	OutcomeDisplay				
72	709.06		control-reward	ImageDisplay1		0.0		
72	711.3	0.75	control-reward	StartDisplay				
72	712.052		control-reward	ImageDisplay2		0.0		
72	715.061	1.6	control-reward	ChoiceDisplay	1	0.421	1	1
72	715.496	1.179	control-reward	ChosenDisplay		0.0		
72	716.666	0.25	control-reward	TurnDisplay				
72	716.916	0.75	control-reward	OutcomeDisplay				
73	717.669		loss-reward	ImageDisplay1		0.0		
73	719.909	0.75	loss-reward	StartDisplay				
73	720.661		loss-reward	ImageDisplay2		0.0		
73	723.67	1.6	loss-reward	ChoiceDisplay	1	0.5	1	1
73	724.188	1.1	loss-reward	ChosenDisplay		0.0		
73	725.275	0.25	loss-reward	TurnDisplay				
73	725.526	0.75	loss-reward	OutcomeDisplay				
74	726.278		control-reward	ImageDisplay1		0.0		
74	728.518	0.75	control-reward	StartDisplay				
74	729.27		control-reward	ImageDisplay2		0.0		
74	732.279	1.6	control-reward	ChoiceDisplay	1	0.627	1	1
74	732.931	0.973	control-reward	ChosenDisplay		0.0		
74	733.884	0.25	control-reward	TurnDisplay				
74	734.135	0.75	control-reward	OutcomeDisplay				
75	734.887		control-reward	ImageDisplay1		0.0		
75	737.127	0.75	control-reward	StartDisplay				
75	737.879		control-reward	ImageDisplay2		0.0		
75	740.888	1.6	control-reward	ChoiceDisplay	1	0.587	1	1
75	741.49	1.013	control-reward	ChosenDisplay		0.0		
75	742.493	0.25	control-reward	TurnDisplay				
75	742.744	0.75	control-reward	OutcomeDisplay				
76	743.496		control-noreward	ImageDisplay1		0.0		
76	745.485	0.75	control-noreward	StartDisplay				
76	746.237		control-noreward	ImageDisplay2		0.0		
76	749.497	1.6	control-noreward	ChoiceDisplay	1	0.502	1	1
76	750.015	1.098	control-noreward	ChosenDisplay		0.0		
76	751.102	0.25	control-noreward	TurnDisplay				
76	751.353	0.75	control-noreward	OutcomeDisplay				
77	752.105		win-noreward	ImageDisplay1		0.0		
77	754.345	0.75	win-noreward	StartDisplay				
77	755.097		win-noreward	ImageDisplay2		0.0		
77	758.106	1.6	win-noreward	ChoiceDisplay	1	0.452	1	1
77	758.574	1.148	win-noreward	ChosenDisplay		0.0		
77	759.711	0.25	win-noreward	TurnDisplay				
77	759.962	0.75	win-noreward	OutcomeDisplay				
78	760.714		control-noreward	ImageDisplay1		0.0		
78	762.703	0.75	control-noreward	StartDisplay				
78	763.456		control-noreward	ImageDisplay2		0.0		
78	766.715	1.6	control-noreward	ChoiceDisplay	1	0.357	1	1
78	767.083	1.243	control-noreward	ChosenDisplay		0.0		
78	768.32	0.25	control-noreward	TurnDisplay				
78	768.571	0.75	control-noreward	OutcomeDisplay				
79	769.323		win-noreward	ImageDisplay1		0.0		
79	771.312	0.75	win-noreward	StartDisplay				
79	772.065		win-noreward	ImageDisplay2		0.0		
79	775.324	1.6	win-noreward	ChoiceDisplay	1	0.308	1	1
79	775.659	1.292	win-noreward	ChosenDisplay		0.0		
79	776.929	0.25	win-noreward	TurnDisplay				
79	777.18	0.75	win-noreward	OutcomeDisplay				
80	777.932		loss-reward	ImageDisplay1		0.0		
80	779.922	0.75	loss-reward	StartDisplay				
80	780.674		loss-reward	ImageDisplay2		0.0		
80	783.934	1.6	loss-reward	ChoiceDisplay		0.0		
80	785.522	0.0	loss-reward	ChosenDisplay		0.0		
80	785.538	0.25	loss-reward	TurnDisplay				
80	785.772	0.75	loss-reward	OutcomeDisplay				
81	786.525		loss-reward	ImageDisplay1		0.0		
81	788.781	0.75	loss-reward	StartDisplay				
81	789.534		loss-reward	ImageDisplay2		0.0		
81	792.526	1.6	loss-reward	ChoiceDisplay	1	0.401	1	1
81	792.944	1.199	loss-reward	ChosenDisplay		0.0		
81	794.131	0.25	loss-reward	TurnDisplay				
81	794.381	0.75	loss-reward	OutcomeDisplay				
82	795.134		win-reward	ImageDisplay1		0.0		
82	797.374	0.75	win-reward	StartDisplay				
82	798.126		win-reward	ImageDisplay2		0.0		
82	801.135	1.6	win-reward	ChoiceDisplay	1	0.305	1	1
82	801.453	1.295	win-reward	ChosenDisplay		0.0		
82	802.74	0.25	win-reward	TurnDisplay				
82	802.991	0.75	win-reward	OutcomeDisplay				
83	803.743		loss-noreward	ImageDisplay1		0.0		
83	805.732	0.75	loss-noreward	StartDisplay				
83	806.484		loss-noreward	ImageDisplay2		0.0		
83	809.744	1.6	loss-noreward	ChoiceDisplay	1	0.551	1	1
83	810.312	1.049	loss-noreward	ChosenDisplay		0.0		
83	811.349	0.25	loss-noreward	TurnDisplay				
83	811.6	0.75	loss-noreward	OutcomeDisplay				
84	812.352		loss-reward	ImageDisplay1		0.0		
84	814.341	0.75	loss-reward	StartDisplay				
84	815.093		loss-reward	ImageDisplay2		0.0		
84	818.353	1.6	loss-reward	ChoiceDisplay	1	0.358	1	1
84	818.738	1.242	loss-reward	ChosenDisplay		0.0		
84	819.958	0.25	loss-reward	TurnDisplay				
84	820.209	0.75	loss-reward	OutcomeDisplay				
85	820.961		control-reward	ImageDisplay1		0.0		
85	823.201	0.75	control-reward	StartDisplay				
85	823.953		control-reward	ImageDisplay2		0.0		
85	826.962	1.6	control-reward	ChoiceDisplay	1	0.998	1	1
85	827.982	0.602	control-reward	ChosenDisplay		0.0		
85	828.567	0.25	control-reward	TurnDisplay				
85	828.818	0.75	control-reward	OutcomeDisplay				
86	829.57		loss-noreward	ImageDisplay1		0.0		
86	831.81	0.75	loss-noreward	StartDisplay				
86	832.562		loss-noreward	ImageDisplay2		0.0		
86	835.571	1.6	loss-noreward	ChoiceDisplay	1	0.409	1	1
86	836.006	1.191	loss-noreward	ChosenDisplay		0.0		
86	837.176	0.25	loss-noreward	TurnDisplay				
86	837.427	0.75	loss-noreward	OutcomeDisplay				
87	838.179		win-reward	ImageDisplay1		0.0		
87	840.419	0.75	win-reward	StartDisplay				
87	841.171		win-reward	ImageDisplay2		0.0		
87	844.18	1.6	win-reward	ChoiceDisplay	1	0.558	1	1
87	844.749	1.042	win-reward	ChosenDisplay		0.0		
87	845.785	0.25	win-reward	TurnDisplay				
87	846.036	0.75	win-reward	OutcomeDisplay				
88	846.788		control-noreward	ImageDisplay1		0.0		
88	849.028	0.75	control-noreward	StartDisplay				
88	849.78		control-noreward	ImageDisplay2		0.0		
88	852.789	1.6	control-noreward	ChoiceDisplay	1	0.961	1	1
88	853.776	0.639	control-noreward	ChosenDisplay		0.0		
88	854.394	0.25	control-noreward	TurnDisplay				
88	854.645	0.75	control-noreward	OutcomeDisplay				
89	855.397		win-reward	ImageDisplay1		0.0		
89	857.637	0.75	win-reward	StartDisplay				
89	858.389		win-reward	ImageDisplay2		0.0		
89	861.398	1.6	win-reward	ChoiceDisplay	1	0.62	1	1
89	862.034	0.98	win-reward	ChosenDisplay		0.0		
89	863.003	0.25	win-reward	TurnDisplay				
89	863.254	0.75	win-reward	OutcomeDisplay				
90	864.006		control-reward	ImageDisplay1		0.0		
90	865.996	0.75	control-reward	StartDisplay				
90	866.748		control-reward	ImageDisplay2		0.0		
90	870.008	1.6	control-reward	ChoiceDisplay	1	0.748	1	1
90	870.777	0.852	control-reward	ChosenDisplay		0.0		
90	871.612	0.25	control-reward	TurnDisplay				
90	871.863	0.75	control-reward	OutcomeDisplay				
91	872.615		control-noreward	ImageDisplay1		0.0		
91	874.855	0.75	control-noreward	StartDisplay				
91	875.608		control-noreward	ImageDisplay2		0.0		
91	878.617	1.6	control-noreward	ChoiceDisplay		0.0		
91	880.205	0.0	control-noreward	ChosenDisplay		0.0		
91	880.221	0.25	control-noreward	TurnDisplay				
91	880.455	0.75	control-noreward	OutcomeDisplay				
92	881.208		win-noreward	ImageDisplay1		0.0		
92	883.464	0.75	win-noreward	StartDisplay				
92	884.217		win-noreward	ImageDisplay2		0.0		
92	887.209	1.6	win-noreward	ChoiceDisplay	1	0.677	1	1
92	887.911	0.923	win-noreward	ChosenDisplay		0.0		
92	888.814	0.25	win-noreward	TurnDisplay				
92	889.065	0.75	win-noreward	OutcomeDisplay				
93	889.817		win-noreward	ImageDisplay1		0.0		
93	891.806	0.75	win-noreward	StartDisplay				
93	892.558		win-noreward	ImageDisplay2		0.0		
93	895.818	1.6	win-noreward	ChoiceDisplay	1	0.361	1	1
93	896.203	1.239	win-noreward	ChosenDisplay		0.0		
93	897.423	0.25	win-noreward	TurnDisplay				
93	897.674	0.75	win-noreward	OutcomeDisplay				
94	898.426		win-reward	ImageDisplay1		0.0		
94	900.415	0.75	win-reward	StartDisplay				
94	901.167		win-reward	ImageDisplay2		0.0		
94	904.427	1.6	win-reward	ChoiceDisplay	1	0.65	1	1
94	905.096	0.95	win-reward	ChosenDisplay		0.0		
94	906.032	0.25	win-reward	TurnDisplay				
94	906.283	0.75	win-reward	OutcomeDisplay				
95	907.035		win-noreward	ImageDisplay1		0.0		
95	909.024	0.75	win-noreward	StartDisplay				
95	909.776		win-noreward	ImageDisplay2		0.0		
95	913.036	1.6	win-noreward	ChoiceDisplay	1	0.546	1	1
95	913.605	1.054	win-noreward	ChosenDisplay		0.0		
95	914.641	0.25	win-noreward	TurnDisplay				
95	914.892	0.75	win-noreward	OutcomeDisplay				
