onset	duration	trial_type	response_time	stim_file	accuracy
69.292	1.0	go	0.0	Go_X	0.0
71.816	1.0	go	0.498	Go_O	1.0
74.341	1.0	go	0.355	Go_O	1.0
76.865	1.0	go	0.412	Go_X	1.0
79.389	1.0	go	0.473	Go_O	1.0
81.913	1.0	go	0.445	Go_X	1.0
84.437	0.25	stop	0.345	Go_O	0.0
86.962	1.0	go	0.479	Go_O	1.0
89.486	0.2	stop	0.0	Go_X	1.0
92.01	1.0	go	0.49	Go_X	0.0
94.534	1.0	go	0.648	Go_X	1.0
97.058	1.0	go	0.351	Go_O	1.0
99.583	0.25	stop	0.433	Go_O	0.0
102.107	1.0	go	0.512	Go_O	1.0
104.631	1.0	go	0.578	Go_X	1.0
107.155	0.2	stop	0.0	Go_X	1.0
109.679	0.25	stop	0.0	Go_O	1.0
112.22	1.0	go	0.52	Go_O	1.0
114.745	1.0	go	0.504	Go_X	1.0
117.269	0.3	stop	0.449	Go_X	0.0
119.793	1.0	go	0.394	Go_X	1.0
122.317	1.0	go	0.58	Go_O	1.0
124.841	0.25	stop	0.359	Go_O	0.0
127.382	1.0	go	0.48	Go_O	1.0
129.907	1.0	go	0.656	Go_X	1.0
132.431	0.2	stop	0.0	Go_X	1.0
134.955	1.0	go	0.297	Go_O	1.0
137.479	1.0	go	0.611	Go_X	1.0
140.003	0.25	stop	0.0	Go_O	1.0
142.528	1.0	go	0.535	Go_X	1.0
145.052	1.0	go	0.501	Go_O	1.0
147.576	1.0	go	0.448	Go_O	1.0
150.1	1.0	go	0.517	Go_X	1.0
152.625	1.0	go	0.562	Go_X	1.0
155.149	0.3	stop	0.444	Go_X	0.0
157.673	1.0	go	0.394	Go_O	1.0
160.197	1.0	go	0.45	Go_O	1.0
162.721	1.0	go	0.495	Go_X	1.0
165.246	1.0	go	0.625	Go_X	1.0
167.77	1.0	go	0.383	Go_O	1.0
170.294	0.25	stop	0.0	Go_O	1.0
172.818	1.0	go	0.494	Go_X	1.0
175.342	1.0	go	0.36	Go_O	1.0
177.867	1.0	go	0.34	Go_O	1.0
180.391	1.0	go	0.399	Go_X	1.0
182.915	1.0	go	0.696	Go_X	1.0
185.439	1.0	go	0.675	Go_O	1.0
187.964	0.3	stop	0.0	Go_X	1.0
190.488	1.0	go	0.322	Go_O	1.0
193.012	1.0	go	0.455	Go_X	1.0
195.536	0.35	stop	0.441	Go_O	0.0
198.06	1.0	go	0.502	Go_X	1.0
200.585	0.3	stop	0.0	Go_X	1.0
203.126	0.35	stop	0.298	Go_O	0.0
205.65	1.0	go	0.507	Go_O	1.0
208.174	1.0	go	0.518	Go_O	1.0
210.698	1.0	go	0.575	Go_X	1.0
213.222	1.0	go	0.452	Go_X	1.0
215.747	0.3	stop	0.366	Go_X	0.0
218.288	1.0	go	0.572	Go_O	1.0
220.812	0.25	stop	0.258	Go_O	0.0
223.336	1.0	go	0.483	Go_O	1.0
225.86	1.0	go	0.513	Go_X	1.0
228.384	1.0	go	0.336	Go_X	1.0
230.909	1.0	go	0.454	Go_O	1.0
233.433	1.0	go	0.526	Go_X	1.0
235.957	1.0	go	0.636	Go_O	1.0
238.481	1.0	go	0.564	Go_X	1.0
241.005	1.0	go	0.571	Go_O	1.0
243.53	1.0	go	0.756	Go_O	1.0
246.054	0.2	stop	0.0	Go_X	1.0
248.578	1.0	go	0.684	Go_X	1.0
251.102	1.0	go	0.621	Go_O	1.0
253.627	1.0	go	0.399	Go_X	1.0
256.151	0.25	stop	0.412	Go_O	0.0
258.675	1.0	go	0.45	Go_O	1.0
261.199	1.0	go	0.451	Go_X	1.0
263.723	1.0	go	0.457	Go_X	1.0
266.248	1.0	go	0.41	Go_O	1.0
268.772	1.0	go	0.414	Go_X	1.0
271.296	1.0	go	0.518	Go_O	1.0
273.82	0.2	stop	0.0	Go_X	1.0
276.344	1.0	go	0.434	Go_O	1.0
278.869	1.0	go	0.938	Go_X	0.0
281.393	0.25	stop	0.35	Go_O	0.0
283.917	1.0	go	0.317	Go_O	1.0
286.441	1.0	go	0.479	Go_X	1.0
288.966	0.2	stop	0.0	Go_X	1.0
291.506	1.0	go	0.45	Go_X	1.0
294.031	0.25	stop	0.0	Go_O	1.0
296.555	1.0	go	0.326	Go_O	1.0
299.079	1.0	go	0.472	Go_X	1.0
301.603	1.0	go	0.345	Go_O	1.0
304.128	1.0	go	0.466	Go_X	1.0
306.652	1.0	go	0.464	Go_O	1.0
309.176	0.3	stop	0.447	Go_X	0.0
311.7	0.25	stop	0.342	Go_O	0.0
314.224	1.0	go	0.559	Go_X	1.0
316.749	1.0	go	0.449	Go_O	1.0
319.273	0.2	stop	0.0	Go_X	1.0
321.797	1.0	go	0.387	Go_O	1.0
324.321	1.0	go	0.648	Go_X	1.0
326.845	1.0	go	0.625	Go_X	1.0
329.37	1.0	go	0.465	Go_O	1.0
331.894	1.0	go	0.459	Go_O	1.0
334.418	1.0	go	0.537	Go_X	1.0
336.942	0.25	stop	0.415	Go_O	0.0
339.467	1.0	go	0.483	Go_O	1.0
341.991	1.0	go	0.0	Go_X	0.0
344.515	1.0	go	0.44	Go_O	1.0
347.039	1.0	go	0.426	Go_X	1.0
349.563	1.0	go	0.566	Go_O	1.0
352.088	0.2	stop	0.0	Go_X	1.0
354.612	1.0	go	0.465	Go_X	1.0
357.136	1.0	go	0.499	Go_O	1.0
359.66	1.0	go	0.526	Go_X	1.0
362.184	1.0	go	0.533	Go_O	1.0
364.709	0.25	stop	0.423	Go_O	0.0
367.233	1.0	go	0.441	Go_X	1.0
369.757	1.0	go	0.599	Go_X	1.0
372.281	0.2	stop	0.404	Go_X	0.0
374.806	1.0	go	0.589	Go_O	1.0
377.33	0.15	stop	0.0	Go_O	1.0
379.854	1.0	go	0.553	Go_O	1.0
382.378	1.0	go	0.369	Go_X	1.0
384.902	1.0	go	0.97	Go_X	1.0
387.427	1.0	go	0.415	Go_O	1.0
389.951	1.0	go	0.497	Go_X	1.0
392.475	1.0	go	0.59	Go_O	1.0
394.999	1.0	go	0.317	Go_O	1.0
397.523	0.2	stop	0.433	Go_X	0.0
400.048	1.0	go	0.438	Go_X	1.0
402.572	1.0	go	0.367	Go_X	1.0
405.096	1.0	go	0.513	Go_O	1.0
407.62	0.15	stop	0.342	Go_O	0.0
410.145	1.0	go	0.301	Go_O	1.0
412.669	1.0	go	0.676	Go_X	1.0
415.193	1.0	go	0.455	Go_O	1.0
417.717	1.0	go	0.484	Go_X	1.0
420.241	0.1	stop	0.0	Go_X	1.0
422.766	1.0	go	0.423	Go_X	1.0
425.29	1.0	go	0.655	Go_O	1.0
427.814	0.15	stop	0.0	Go_O	1.0
430.338	1.0	go	0.496	Go_X	1.0
432.862	1.0	go	0.764	Go_O	1.0
435.387	0.2	stop	0.386	Go_X	0.0
437.911	1.0	go	0.526	Go_O	1.0
440.435	1.0	go	0.361	Go_X	1.0
442.959	0.15	stop	0.307	Go_O	0.0
445.484	1.0	go	0.444	Go_X	1.0
448.008	1.0	go	0.537	Go_O	1.0
450.532	1.0	go	0.515	Go_O	1.0
453.056	1.0	go	0.377	Go_X	1.0
455.58	1.0	go	0.252	Go_O	1.0
458.105	1.0	go	0.468	Go_X	1.0
460.629	0.1	stop	0.0	Go_X	1.0
463.153	1.0	go	0.338	Go_X	1.0
465.677	0.15	stop	0.342	Go_O	0.0
468.201	1.0	go	0.35	Go_O	1.0
470.726	1.0	go	0.562	Go_X	1.0
473.25	1.0	go	0.508	Go_O	1.0
475.774	1.0	go	0.382	Go_O	1.0
478.298	1.0	go	0.624	Go_X	1.0
480.823	0.1	stop	0.0	Go_X	1.0
483.363	1.0	go	0.395	Go_O	1.0
485.888	1.0	go	0.599	Go_X	1.0
488.412	1.0	go	0.547	Go_X	1.0
490.936	0.15	stop	0.0	Go_O	1.0
493.46	0.2	stop	0.0	Go_X	1.0
495.985	0.25	stop	0.361	Go_O	0.0
498.509	1.0	go	0.366	Go_O	1.0
501.033	0.2	stop	0.0	Go_X	1.0
503.557	1.0	go	0.398	Go_X	1.0
506.081	1.0	go	0.361	Go_O	1.0
508.606	1.0	go	0.503	Go_O	1.0
511.13	1.0	go	0.543	Go_X	1.0
513.654	1.0	go	0.396	Go_X	1.0
516.178	1.0	go	0.69	Go_O	1.0
518.702	1.0	go	0.646	Go_X	1.0
521.227	1.0	go	0.512	Go_O	1.0
523.751	0.25	stop	0.304	Go_O	0.0
526.275	1.0	go	0.544	Go_X	1.0
528.799	1.0	go	0.447	Go_O	1.0
531.323	0.2	stop	0.454	Go_X	0.0
533.864	1.0	go	0.579	Go_X	1.0
536.389	1.0	go	0.41	Go_O	1.0
538.913	1.0	go	0.524	Go_X	1.0
541.437	1.0	go	0.584	Go_O	1.0
543.961	1.0	go	0.387	Go_O	1.0
546.486	0.15	stop	0.0	Go_O	1.0
549.01	1.0	go	0.452	Go_X	1.0
551.534	1.0	go	0.438	Go_O	1.0
554.058	1.0	go	0.31	Go_X	1.0
556.582	0.2	stop	0.459	Go_X	0.0
559.107	1.0	go	0.503	Go_O	1.0
561.631	0.15	stop	0.0	Go_O	1.0
564.155	1.0	go	0.504	Go_X	1.0
566.679	1.0	go	0.509	Go_O	1.0
569.203	1.0	go	0.586	Go_X	1.0
571.728	1.0	go	0.532	Go_X	1.0
574.252	1.0	go	0.747	Go_O	1.0
576.776	1.0	go	0.409	Go_O	1.0
579.3	1.0	go	0.632	Go_X	1.0
581.824	0.2	stop	0.0	Go_X	1.0
584.349	1.0	go	0.626	Go_O	1.0
586.873	1.0	go	0.487	Go_X	1.0
589.397	1.0	go	0.77	Go_O	1.0
591.921	1.0	go	0.335	Go_X	1.0
594.446	0.25	stop	0.0	Go_O	1.0
596.97	1.0	go	0.44	Go_X	1.0
599.494	0.3	stop	0.458	Go_X	0.0
602.018	1.0	go	0.427	Go_O	1.0
604.542	1.0	go	0.0	Go_X	0.0
607.067	0.25	stop	0.326	Go_O	0.0
609.591	1.0	go	0.323	Go_O	1.0
612.115	1.0	go	0.619	Go_O	1.0
614.639	1.0	go	0.57	Go_X	1.0
617.164	1.0	go	0.428	Go_X	1.0
619.688	1.0	go	0.341	Go_O	1.0
622.212	1.0	go	0.0	Go_X	0.0
624.736	1.0	go	0.468	Go_O	1.0
627.26	1.0	go	0.464	Go_X	1.0
629.785	1.0	go	0.536	Go_O	1.0
632.309	1.0	go	0.369	Go_X	1.0
634.833	0.2	stop	0.0	Go_X	1.0
637.357	1.0	go	0.352	Go_O	1.0
639.881	1.0	go	0.566	Go_X	1.0
642.406	0.25	stop	0.0	Go_O	1.0
644.93	1.0	go	0.422	Go_O	1.0
647.454	0.3	stop	0.47	Go_X	0.0
649.978	1.0	go	0.463	Go_O	1.0
652.502	1.0	go	0.302	Go_X	1.0
655.027	0.25	stop	0.248	Go_O	0.0
657.551	1.0	go	0.499	Go_X	0.0
660.075	0.2	stop	0.0	Go_X	1.0
662.599	1.0	go	0.303	Go_O	1.0
665.124	1.0	go	0.613	Go_O	1.0
667.648	1.0	go	0.285	Go_X	1.0
670.172	0.25	stop	0.0	Go_O	1.0
672.696	1.0	go	0.387	Go_O	1.0
675.22	1.0	go	0.517	Go_X	1.0
677.745	1.0	go	0.453	Go_X	1.0
680.269	1.0	go	0.48	Go_O	1.0
682.793	0.3	stop	0.466	Go_X	0.0
685.317	1.0	go	0.5	Go_O	1.0
687.841	1.0	go	0.517	Go_X	1.0
690.366	0.25	stop	0.43	Go_O	0.0
692.89	1.0	go	0.607	Go_O	1.0
695.414	1.0	go	0.575	Go_X	1.0
697.94	1.0	go	0.498	Go_X	1.0
700.463	1.0	go	0.332	Go_O	1.0
702.987	0.2	stop	0.0	Go_X	1.0
705.511	1.0	go	0.406	Go_O	1.0
708.035	0.25	stop	0.0	Go_O	1.0
710.559	1.0	go	0.368	Go_X	1.0
713.084	1.0	go	0.715	Go_O	1.0
715.608	0.3	stop	0.0	Go_X	1.0
718.132	1.0	go	0.575	Go_X	1.0
720.656	1.0	go	0.438	Go_X	1.0
723.18	1.0	go	0.637	Go_O	1.0
725.705	1.0	go	0.796	Go_O	1.0
728.229	0.35	stop	0.568	Go_O	0.0
730.753	1.0	go	0.455	Go_X	1.0
733.277	0.3	stop	0.546	Go_X	0.0
735.802	1.0	go	0.804	Go_X	1.0
738.326	1.0	go	0.781	Go_O	1.0
740.85	1.0	go	0.901	Go_O	1.0
743.374	1.0	go	0.555	Go_X	1.0
745.898	1.0	go	0.343	Go_X	1.0
748.423	1.0	go	0.497	Go_O	1.0
750.947	0.25	stop	0.232	Go_O	0.0
753.471	1.0	go	0.268	Go_O	1.0
755.995	1.0	go	0.432	Go_X	1.0
758.519	0.2	stop	0.0	Go_X	1.0
761.044	1.0	go	0.714	Go_O	1.0
763.568	1.0	go	0.457	Go_X	1.0
766.092	0.25	stop	0.0	Go_O	1.0
768.616	1.0	go	0.327	Go_O	1.0
771.141	1.0	go	0.558	Go_X	1.0
773.665	1.0	go	0.0	Go_X	0.0
776.189	1.0	go	0.394	Go_O	1.0
778.713	0.3	stop	0.398	Go_X	0.0
781.237	1.0	go	0.46	Go_O	1.0
783.762	0.25	stop	0.327	Go_O	0.0
786.303	1.0	go	0.348	Go_X	0.0
788.827	1.0	go	0.498	Go_X	1.0
791.351	1.0	go	0.326	Go_O	1.0
793.875	1.0	go	0.34	Go_O	1.0
796.399	1.0	go	0.309	Go_X	1.0
798.924	0.2	stop	0.0	Go_X	1.0
801.448	1.0	go	0.44	Go_X	1.0
803.972	1.0	go	0.508	Go_O	1.0
806.496	0.25	stop	0.0	Go_O	1.0
809.02	0.3	stop	0.381	Go_X	0.0
811.545	1.0	go	0.481	Go_X	1.0
814.069	1.0	go	0.531	Go_O	1.0
816.593	1.0	go	0.391	Go_X	1.0
819.117	1.0	go	0.383	Go_O	1.0
821.642	0.25	stop	0.284	Go_O	0.0
824.166	1.0	go	0.46	Go_X	1.0
