onset	duration	trial_type	response_time	stim_file	accuracy
67.528	1.0	go	0.589	Go_O	1.0
70.052	1.0	go	0.489	Go_X	1.0
72.577	1.0	go	0.625	Go_X	1.0
75.101	1.0	go	0.415	Go_O	1.0
77.625	1.0	go	0.362	Go_X	1.0
80.149	1.0	go	0.315	Go_O	1.0
82.673	0.25	stop	0.0	Go_O	1.0
85.198	1.0	go	0.881	Go_X	1.0
87.722	0.3	stop	0.0	Go_X	1.0
90.246	1.0	go	0.446	Go_O	1.0
92.77	1.0	go	0.681	Go_X	1.0
95.294	1.0	go	0.439	Go_O	1.0
97.818	0.35	stop	0.628	Go_O	0.0
100.343	1.0	go	0.868	Go_X	1.0
102.867	1.0	go	0.731	Go_O	1.0
105.391	0.3	stop	0.0	Go_X	1.0
107.915	0.35	stop	0.0	Go_O	1.0
110.439	1.0	go	0.505	Go_O	1.0
112.964	1.0	go	0.832	Go_X	1.0
115.488	0.4	stop	0.0	Go_X	1.0
118.012	1.0	go	0.731	Go_X	1.0
120.536	1.0	go	0.452	Go_O	1.0
123.06	0.45	stop	0.0	Go_O	1.0
125.584	1.0	go	0.635	Go_X	1.0
128.109	1.0	go	0.792	Go_O	1.0
130.633	0.5	stop	0.0	Go_X	1.0
133.157	1.0	go	0.783	Go_O	1.0
135.681	1.0	go	0.836	Go_X	1.0
138.205	0.55	stop	0.384	Go_O	0.0
140.73	1.0	go	0.682	Go_X	1.0
143.254	1.0	go	0.703	Go_O	1.0
145.778	1.0	go	0.582	Go_O	1.0
148.302	1.0	go	0.54	Go_X	1.0
150.826	1.0	go	0.395	Go_X	1.0
153.35	0.5	stop	0.406	Go_X	0.0
155.875	1.0	go	0.623	Go_O	1.0
158.399	1.0	go	0.712	Go_O	1.0
160.923	1.0	go	0.69	Go_X	1.0
163.447	1.0	go	0.675	Go_O	1.0
165.971	1.0	go	0.803	Go_X	1.0
168.496	0.45	stop	0.0	Go_O	1.0
171.02	1.0	go	0.95	Go_O	1.0
173.544	1.0	go	0.706	Go_X	1.0
176.068	1.0	go	0.94	Go_O	1.0
178.592	1.0	go	0.748	Go_X	1.0
181.116	1.0	go	0.789	Go_X	1.0
183.641	1.0	go	0.507	Go_O	1.0
186.165	0.5	stop	0.482	Go_X	0.0
188.689	1.0	go	0.509	Go_O	1.0
191.213	1.0	go	0.0	Go_X	0.0
193.737	0.45	stop	0.651	Go_O	0.0
196.262	1.0	go	0.788	Go_O	1.0
198.786	0.4	stop	0.531	Go_X	0.0
201.31	0.35	stop	0.0	Go_O	1.0
203.834	1.0	go	0.52	Go_X	1.0
206.358	1.0	go	0.0	Go_X	0.0
208.882	1.0	go	0.533	Go_O	1.0
211.407	1.0	go	0.636	Go_X	1.0
213.931	0.4	stop	0.351	Go_X	0.0
216.455	1.0	go	0.485	Go_O	1.0
218.979	0.35	stop	0.62	Go_O	0.0
221.503	1.0	go	0.669	Go_X	1.0
224.028	1.0	go	0.676	Go_O	1.0
226.552	1.0	go	0.715	Go_O	1.0
229.076	1.0	go	0.0	Go_X	0.0
231.6	1.0	go	0.548	Go_O	1.0
234.124	1.0	go	0.369	Go_X	1.0
236.648	1.0	go	0.349	Go_X	0.0
239.173	1.0	go	0.847	Go_O	1.0
241.697	1.0	go	0.471	Go_X	1.0
244.221	0.3	stop	0.0	Go_X	1.0
246.745	1.0	go	0.528	Go_O	1.0
249.269	1.0	go	0.616	Go_O	1.0
251.794	1.0	go	0.639	Go_X	1.0
254.318	0.35	stop	0.0	Go_O	1.0
256.842	1.0	go	0.784	Go_O	1.0
259.366	1.0	go	0.959	Go_X	1.0
261.89	1.0	go	0.851	Go_X	1.0
264.414	1.0	go	0.0	Go_O	0.0
266.939	1.0	go	0.666	Go_X	1.0
269.463	1.0	go	0.533	Go_O	1.0
271.987	0.4	stop	0.52	Go_X	0.0
274.511	1.0	go	0.728	Go_O	1.0
277.035	1.0	go	0.794	Go_X	1.0
279.56	0.35	stop	0.628	Go_O	0.0
282.084	1.0	go	0.975	Go_O	1.0
284.608	1.0	go	0.0	Go_X	0.0
287.132	0.3	stop	0.417	Go_X	0.0
289.656	1.0	go	0.669	Go_X	1.0
292.181	0.25	stop	0.0	Go_O	1.0
294.705	1.0	go	0.657	Go_O	1.0
297.229	1.0	go	0.554	Go_X	1.0
299.753	1.0	go	0.559	Go_O	1.0
302.277	1.0	go	0.625	Go_X	1.0
304.801	1.0	go	0.818	Go_O	1.0
307.326	0.3	stop	0.0	Go_X	1.0
309.85	0.35	stop	0.0	Go_O	1.0
312.374	1.0	go	0.0	Go_O	0.0
314.898	1.0	go	0.0	Go_X	0.0
317.422	0.4	stop	0.0	Go_X	1.0
319.947	1.0	go	0.688	Go_X	1.0
322.471	1.0	go	0.824	Go_O	1.0
324.995	1.0	go	0.92	Go_X	1.0
327.519	1.0	go	0.314	Go_O	1.0
330.043	1.0	go	0.481	Go_X	1.0
332.567	1.0	go	0.458	Go_O	1.0
335.092	0.45	stop	0.69	Go_O	0.0
337.616	1.0	go	0.0	Go_O	0.0
340.14	1.0	go	0.618	Go_X	1.0
342.664	1.0	go	0.767	Go_O	1.0
345.188	1.0	go	0.421	Go_X	1.0
347.713	1.0	go	0.543	Go_X	1.0
350.237	0.4	stop	0.0	Go_X	1.0
352.761	1.0	go	0.48	Go_O	1.0
355.285	1.0	go	0.536	Go_X	1.0
357.809	1.0	go	0.705	Go_O	1.0
360.333	1.0	go	0.888	Go_X	1.0
362.858	0.45	stop	0.689	Go_O	0.0
365.382	1.0	go	0.771	Go_O	1.0
367.906	1.0	go	0.648	Go_X	1.0
370.43	0.4	stop	0.734	Go_X	0.0
372.954	1.0	go	0.0	Go_O	0.0
375.479	0.35	stop	0.0	Go_O	1.0
378.003	1.0	go	0.0	Go_X	0.0
380.527	1.0	go	0.545	Go_O	1.0
383.051	1.0	go	0.72	Go_O	1.0
385.575	1.0	go	0.977	Go_X	1.0
388.099	1.0	go	0.546	Go_X	1.0
390.624	1.0	go	0.818	Go_O	1.0
393.148	1.0	go	0.472	Go_O	1.0
395.672	0.4	stop	0.616	Go_X	0.0
398.196	1.0	go	0.607	Go_X	1.0
400.72	1.0	go	0.0	Go_O	0.0
403.245	1.0	go	0.0	Go_X	0.0
405.769	0.35	stop	0.0	Go_O	1.0
408.293	1.0	go	0.0	Go_X	0.0
410.817	1.0	go	0.0	Go_O	0.0
413.341	1.0	go	0.0	Go_O	0.0
415.865	1.0	go	0.0	Go_X	0.0
418.39	0.4	stop	0.506	Go_X	0.0
420.914	1.0	go	0.623	Go_X	1.0
423.438	1.0	go	0.438	Go_O	1.0
425.962	0.35	stop	0.538	Go_O	0.0
428.486	1.0	go	0.594	Go_X	1.0
431.011	1.0	go	0.559	Go_O	1.0
433.535	0.3	stop	0.499	Go_X	0.0
436.059	1.0	go	0.422	Go_X	0.0
438.583	1.0	go	0.539	Go_O	1.0
441.107	0.25	stop	0.526	Go_O	0.0
443.631	1.0	go	0.492	Go_X	1.0
446.156	1.0	go	0.384	Go_O	1.0
448.68	1.0	go	0.533	Go_O	1.0
451.204	1.0	go	0.527	Go_X	1.0
453.728	1.0	go	0.689	Go_X	1.0
456.252	1.0	go	0.473	Go_O	1.0
458.777	0.2	stop	0.0	Go_X	1.0
461.301	1.0	go	0.591	Go_X	1.0
463.825	0.25	stop	0.0	Go_O	1.0
466.349	1.0	go	0.532	Go_O	1.0
468.873	1.0	go	0.556	Go_X	1.0
471.397	1.0	go	0.519	Go_O	1.0
473.922	1.0	go	0.64	Go_X	1.0
476.446	1.0	go	0.578	Go_O	1.0
478.97	0.3	stop	0.0	Go_X	1.0
481.494	1.0	go	0.5	Go_O	1.0
484.018	1.0	go	0.545	Go_X	1.0
486.543	1.0	go	0.419	Go_O	1.0
489.067	0.35	stop	0.566	Go_O	0.0
491.591	0.3	stop	0.0	Go_X	1.0
494.115	0.35	stop	0.0	Go_O	1.0
496.639	1.0	go	0.766	Go_X	1.0
499.163	0.4	stop	0.0	Go_X	1.0
501.688	1.0	go	0.492	Go_O	1.0
504.212	1.0	go	0.502	Go_X	1.0
506.736	1.0	go	0.369	Go_X	0.0
509.26	1.0	go	0.331	Go_O	1.0
511.784	1.0	go	0.363	Go_X	1.0
514.309	1.0	go	0.306	Go_O	1.0
516.833	1.0	go	0.515	Go_O	1.0
519.357	1.0	go	0.475	Go_X	1.0
521.881	0.45	stop	0.43	Go_O	0.0
524.405	1.0	go	0.687	Go_O	1.0
526.929	1.0	go	0.677	Go_X	1.0
529.454	0.4	stop	0.346	Go_X	0.0
531.978	1.0	go	0.419	Go_O	0.0
534.502	1.0	go	0.387	Go_X	1.0
537.026	1.0	go	0.6	Go_X	1.0
539.55	1.0	go	0.47	Go_O	1.0
542.075	1.0	go	0.476	Go_O	1.0
544.599	0.35	stop	0.454	Go_O	0.0
547.123	1.0	go	0.951	Go_X	1.0
549.647	1.0	go	0.62	Go_X	1.0
552.171	1.0	go	0.528	Go_O	1.0
554.695	0.3	stop	0.0	Go_X	1.0
557.22	1.0	go	0.833	Go_O	1.0
559.744	0.35	stop	0.702	Go_O	0.0
562.268	1.0	go	0.858	Go_X	1.0
564.792	1.0	go	0.812	Go_O	1.0
567.316	1.0	go	0.0	Go_X	0.0
569.841	1.0	go	0.719	Go_X	1.0
572.365	1.0	go	0.627	Go_O	1.0
574.889	1.0	go	0.797	Go_X	1.0
577.413	1.0	go	0.532	Go_O	1.0
579.937	0.3	stop	0.0	Go_X	1.0
582.462	1.0	go	0.0	Go_O	0.0
584.986	1.0	go	0.0	Go_X	0.0
587.51	1.0	go	0.696	Go_X	1.0
590.034	1.0	go	0.357	Go_O	1.0
592.558	0.35	stop	0.497	Go_O	0.0
595.082	1.0	go	0.531	Go_X	1.0
597.607	0.3	stop	0.0	Go_X	1.0
600.131	1.0	go	0.39	Go_O	1.0
602.655	1.0	go	0.801	Go_X	1.0
605.179	0.35	stop	0.578	Go_O	0.0
607.703	1.0	go	0.853	Go_O	1.0
610.228	1.0	go	0.561	Go_O	1.0
612.752	1.0	go	0.469	Go_X	1.0
615.276	1.0	go	0.405	Go_O	1.0
617.8	1.0	go	0.577	Go_X	1.0
620.324	1.0	go	0.236	Go_O	1.0
622.848	1.0	go	0.584	Go_X	1.0
625.373	1.0	go	0.426	Go_O	1.0
627.897	1.0	go	0.849	Go_X	1.0
630.421	1.0	go	0.577	Go_X	1.0
632.945	0.3	stop	0.475	Go_X	0.0
635.469	1.0	go	0.0	Go_O	0.0
637.994	1.0	go	0.386	Go_O	1.0
640.518	0.25	stop	0.517	Go_O	0.0
643.042	1.0	go	0.475	Go_X	1.0
645.566	0.2	stop	0.0	Go_X	1.0
648.09	1.0	go	0.0	Go_O	0.0
650.614	1.0	go	0.474	Go_X	1.0
653.139	0.25	stop	0.0	Go_O	1.0
655.663	1.0	go	0.62	Go_X	1.0
658.187	0.3	stop	0.0	Go_X	1.0
660.711	1.0	go	0.443	Go_O	1.0
663.235	1.0	go	0.0	Go_X	0.0
665.76	1.0	go	0.0	Go_O	0.0
668.284	0.35	stop	0.0	Go_O	1.0
670.808	1.0	go	0.509	Go_O	1.0
673.332	1.0	go	0.538	Go_X	1.0
675.856	1.0	go	0.578	Go_X	1.0
678.38	1.0	go	0.398	Go_O	0.0
680.905	0.4	stop	0.582	Go_X	0.0
683.429	1.0	go	0.547	Go_O	1.0
685.953	1.0	go	0.0	Go_X	0.0
688.477	0.35	stop	0.474	Go_O	0.0
691.001	1.0	go	0.525	Go_X	1.0
693.526	1.0	go	0.0	Go_O	0.0
696.05	1.0	go	0.512	Go_X	1.0
698.574	1.0	go	0.291	Go_O	1.0
701.098	0.3	stop	0.59	Go_X	0.0
703.622	1.0	go	0.0	Go_O	0.0
706.146	0.25	stop	0.0	Go_O	1.0
708.671	1.0	go	0.0	Go_X	0.0
711.195	1.0	go	0.0	Go_O	0.0
713.719	0.3	stop	0.0	Go_X	1.0
716.243	1.0	go	0.469	Go_X	1.0
718.767	1.0	go	0.464	Go_O	1.0
721.292	1.0	go	0.317	Go_X	1.0
723.816	1.0	go	0.528	Go_X	1.0
726.34	0.35	stop	0.344	Go_O	0.0
728.864	1.0	go	0.0	Go_O	0.0
731.388	0.3	stop	0.615	Go_X	0.0
733.912	1.0	go	0.694	Go_O	1.0
736.437	1.0	go	0.773	Go_X	1.0
738.961	1.0	go	0.0	Go_O	0.0
741.485	1.0	go	0.0	Go_X	0.0
744.009	1.0	go	0.607	Go_O	1.0
746.533	1.0	go	0.96	Go_X	1.0
749.058	0.25	stop	0.0	Go_O	1.0
751.582	1.0	go	0.344	Go_X	1.0
754.106	1.0	go	0.658	Go_O	1.0
756.63	0.3	stop	0.743	Go_X	0.0
759.154	1.0	go	0.0	Go_X	0.0
761.678	1.0	go	0.599	Go_O	1.0
764.203	0.25	stop	0.422	Go_O	0.0
766.727	1.0	go	0.593	Go_O	1.0
769.251	1.0	go	0.667	Go_X	1.0
771.775	1.0	go	0.0	Go_X	0.0
774.299	1.0	go	0.0	Go_O	0.0
776.824	0.2	stop	0.301	Go_X	0.0
779.348	1.0	go	0.623	Go_X	1.0
781.872	0.15	stop	0.0	Go_O	1.0
784.396	1.0	go	0.0	Go_O	0.0
786.92	1.0	go	0.832	Go_X	1.0
789.444	1.0	go	0.0	Go_O	0.0
791.969	1.0	go	0.0	Go_X	0.0
794.493	1.0	go	0.51	Go_O	1.0
797.017	0.2	stop	0.0	Go_X	1.0
799.541	1.0	go	0.0	Go_X	0.0
802.065	1.0	go	0.542	Go_O	1.0
804.59	0.25	stop	0.0	Go_O	1.0
807.114	0.3	stop	0.0	Go_X	1.0
809.638	1.0	go	0.0	Go_X	0.0
812.162	1.0	go	0.0	Go_O	0.0
814.686	1.0	go	0.0	Go_X	0.0
817.21	1.0	go	0.0	Go_O	0.0
819.735	0.35	stop	0.483	Go_O	0.0
822.259	1.0	go	0.763	Go_X	1.0
