onset	duration	trial_type	response_time	stim_file	accuracy
79.759	1.0	go	0.838	Go_O	0.0
82.283	1.0	go	0.649	Go_X	0.0
84.807	1.0	go	0.339	Go_O	0.0
87.331	1.0	go	0.374	Go_X	0.0
89.856	1.0	go	0.393	Go_O	0.0
92.38	1.0	go	0.37	Go_X	0.0
94.904	1.0	go	0.404	Go_X	0.0
97.428	1.0	stopfail	0.193	Go_O	0.0
99.952	1.0	go	0.629	Go_O	0.0
102.477	1.0	go	0.462	Go_X	0.0
105.001	1.0	go	0.395	Go_O	0.0
107.525	1.0	go	0.39	Go_X	0.0
110.049	1.0	go	0.352	Go_O	0.0
112.573	1.0	go	0.582	Go_O	0.0
115.097	1.0	stopfail	0.923	Go_X	0.0
117.622	1.0	go	0.475	Go_X	0.0
120.146	1.0	go	0.395	Go_X	0.0
122.67	1.0	go	0.25	Go_O	0.0
125.194	1.0	go	0.026	Go_X	0.0
127.718	1.0	go	0.395	Go_O	0.0
130.243	1.0	stopsuccess	0.0	Go_O	1.0
132.767	1.0	go	0.562	Go_X	0.0
135.291	1.0	go	0.401	Go_O	0.0
137.815	1.0	go	0.382	Go_O	0.0
140.339	1.0	go	0.214	Go_X	0.0
142.863	1.0	go	0.422	Go_O	0.0
145.388	1.0	go	0.511	Go_X	0.0
147.912	1.0	go	0.307	Go_O	0.0
150.436	1.0	go	0.083	Go_X	0.0
152.96	1.0	stopsuccess	0.0	Go_X	1.0
155.484	1.0	go	0.41	Go_X	0.0
158.009	1.0	go	0.378	Go_O	1.0
160.533	1.0	stopfail	0.394	Go_O	0.0
163.057	1.0	go	0.426	Go_X	0.0
165.581	1.0	go	0.539	Go_O	0.0
168.105	1.0	go	0.43	Go_X	0.0
170.629	1.0	go	0.339	Go_O	0.0
173.154	1.0	go	0.363	Go_X	0.0
175.678	1.0	go	0.139	Go_O	0.0
178.202	1.0	go	0.555	Go_O	0.0
180.726	1.0	go	0.366	Go_X	0.0
183.25	1.0	go	0.352	Go_O	0.0
185.775	1.0	stopfail	0.335	Go_X	0.0
188.299	1.0	go	0.42	Go_X	0.0
190.823	1.0	go	0.4	Go_O	0.0
193.347	1.0	go	0.451	Go_X	0.0
195.871	1.0	go	0.376	Go_O	0.0
198.395	1.0	go	0.414	Go_X	0.0
200.92	1.0	go	0.196	Go_O	0.0
203.444	1.0	stopfail	0.478	Go_O	0.0
205.968	1.0	go	0.32	Go_X	0.0
208.492	1.0	go	0.401	Go_O	0.0
211.016	1.0	go	0.42	Go_X	0.0
213.541	1.0	go	0.418	Go_O	0.0
216.065	1.0	go	0.4	Go_X	0.0
218.589	1.0	go	0.372	Go_O	0.0
221.113	1.0	go	0.354	Go_X	0.0
223.637	1.0	go	0.478	Go_O	0.0
226.161	1.0	stopfail	0.254	Go_X	0.0
228.686	1.0	stopfail	0.029	Go_O	0.0
231.21	1.0	go	0.396	Go_X	0.0
233.734	1.0	go	0.418	Go_O	0.0
236.258	1.0	go	0.482	Go_X	0.0
238.782	1.0	go	0.296	Go_O	0.0
241.307	1.0	go	0.474	Go_X	0.0
243.831	1.0	stopfail	0.984	Go_X	0.0
246.372	1.0	stopfail	0.743	Go_O	0.0
248.913	1.0	go	0.501	Go_O	0.0
251.437	1.0	go	0.277	Go_X	0.0
253.961	1.0	go	0.053	Go_O	0.0
256.485	1.0	go	0.689	Go_X	0.0
259.009	1.0	go	0.48	Go_X	0.0
261.533	1.0	go	0.389	Go_O	0.0
264.058	1.0	go	0.485	Go_X	0.0
266.582	1.0	go	0.391	Go_O	0.0
269.106	1.0	stopsuccess	0.0	Go_X	1.0
271.647	1.0	stopfail	0.766	Go_O	0.0
274.171	1.0	go	0.49	Go_X	0.0
276.695	1.0	go	0.318	Go_O	0.0
279.219	1.0	stopfail	0.093	Go_X	0.0
281.76	1.0	go	0.428	Go_O	0.0
284.285	1.0	go	0.543	Go_X	0.0
286.809	1.0	go	0.539	Go_X	0.0
289.333	1.0	go	0.548	Go_O	0.0
291.857	1.0	go	0.467	Go_O	0.0
294.381	1.0	go	0.408	Go_X	0.0
296.905	1.0	go	0.449	Go_O	0.0
299.43	1.0	go	0.362	Go_X	0.0
301.954	1.0	go	0.358	Go_O	0.0
304.478	1.0	go	0.133	Go_X	0.0
307.002	1.0	go	0.357	Go_O	0.0
309.526	1.0	go	0.309	Go_X	0.0
312.051	1.0	stopsuccess	0.0	Go_O	1.0
314.591	1.0	go	0.399	Go_X	0.0
317.116	1.0	go	0.41	Go_O	0.0
319.64	1.0	go	0.377	Go_X	0.0
322.164	1.0	go	0.389	Go_O	0.0
324.688	1.0	go	0.395	Go_O	1.0
327.212	1.0	go	0.391	Go_X	0.0
329.737	1.0	stopfail	0.174	Go_X	0.0
332.261	1.0	go	0.359	Go_X	0.0
334.785	1.0	go	0.407	Go_O	0.0
337.309	1.0	stopfail	0.725	Go_O	0.0
339.85	1.0	go	0.663	Go_X	0.0
342.374	1.0	go	0.427	Go_O	0.0
344.898	1.0	go	0.434	Go_X	0.0
347.423	1.0	stopfail	0.886	Go_X	0.0
349.963	1.0	go	0.453	Go_O	0.0
352.488	1.0	stopfail	0.421	Go_O	0.0
355.029	1.0	stopfail	0.18	Go_X	0.0
357.569	1.0	stopsuccess	0.0	Go_O	1.0
360.11	1.0	go	0.44	Go_O	0.0
362.634	1.0	go	0.426	Go_X	0.0
365.159	1.0	stopsuccess	0.0	Go_X	1.0
367.683	1.0	go	0.403	Go_O	0.0
370.207	1.0	go	0.402	Go_X	0.0
372.731	1.0	go	0.481	Go_X	0.0
375.255	1.0	go	0.421	Go_O	0.0
377.78	1.0	stopfail	0.428	Go_O	0.0
380.304	1.0	go	0.204	Go_O	0.0
382.828	1.0	go	0.551	Go_X	0.0
385.352	1.0	go	0.47	Go_O	0.0
387.876	1.0	go	0.43	Go_X	0.0
390.401	1.0	go	0.666	Go_X	0.0
392.925	1.0	stopsuccess	0.0	Go_X	1.0
395.449	1.0	go	0.508	Go_O	0.0
397.973	1.0	stopfail	0.934	Go_O	0.0
400.497	1.0	stopfail	0.71	Go_X	0.0
403.021	1.0	go	0.486	Go_X	0.0
405.546	1.0	go	0.261	Go_O	0.0
408.07	1.0	go	0.037	Go_X	0.0
410.594	1.0	go	0.414	Go_O	0.0
413.118	1.0	stopfail	0.697	Go_O	0.0
415.659	1.0	go	0.376	Go_X	0.0
418.183	1.0	go	0.44	Go_O	0.0
420.707	1.0	go	0.542	Go_O	0.0
423.232	1.0	go	0.467	Go_X	0.0
425.756	1.0	go	0.481	Go_X	0.0
428.28	1.0	go	0.525	Go_O	0.0
430.804	1.0	stopfail	0.301	Go_X	0.0
433.345	1.0	go	0.06	Go_O	0.0
435.869	1.0	stopsuccess	0.0	Go_O	1.0
438.41	1.0	go	0.417	Go_X	0.0
440.934	1.0	go	0.601	Go_O	0.0
443.459	1.0	go	0.61	Go_X	0.0
445.983	1.0	go	0.417	Go_X	0.0
448.507	1.0	go	0.636	Go_O	0.0
451.031	1.0	go	0.539	Go_X	0.0
453.555	1.0	go	0.446	Go_O	0.0
456.079	1.0	go	0.325	Go_O	0.0
458.604	1.0	go	0.1	Go_X	0.0
461.128	1.0	go	0.487	Go_X	0.0
463.652	1.0	go	0.485	Go_O	0.0
466.176	1.0	go	0.569	Go_O	0.0
468.7	1.0	go	0.567	Go_X	0.0
471.225	1.0	go	0.464	Go_X	0.0
473.749	1.0	stopsuccess	0.0	Go_X	1.0
476.273	1.0	go	0.553	Go_O	0.0
478.797	1.0	stopfail	0.606	Go_O	0.0
481.321	1.0	go	0.366	Go_X	0.0
483.845	1.0	go	0.158	Go_O	0.0
486.37	1.0	go	0.333	Go_X	0.0
488.894	1.0	go	0.404	Go_O	0.0
491.418	1.0	go	0.381	Go_O	0.0
493.942	1.0	go	0.248	Go_X	0.0
496.466	1.0	go	0.379	Go_O	0.0
498.991	1.0	go	0.294	Go_X	0.0
501.515	1.0	go	0.382	Go_O	0.0
504.039	1.0	go	0.365	Go_X	0.0
506.563	1.0	go	0.364	Go_O	0.0
509.087	1.0	go	0.214	Go_X	0.0
511.611	1.0	go	0.44	Go_X	0.0
514.136	1.0	go	0.368	Go_O	0.0
516.66	1.0	stopsuccess	0.0	Go_X	1.0
519.184	1.0	go	0.49	Go_O	0.0
521.708	1.0	go	0.498	Go_X	0.0
524.232	1.0	go	0.403	Go_X	0.0
526.757	1.0	stopfail	0.627	Go_O	0.0
529.281	1.0	go	0.472	Go_O	0.0
531.805	1.0	go	0.452	Go_X	0.0
534.329	1.0	stopfail	0.271	Go_X	0.0
536.853	1.0	stopfail	0.047	Go_O	0.0
539.394	1.0	go	0.472	Go_O	0.0
541.918	1.0	go	0.431	Go_X	0.0
544.442	1.0	go	0.425	Go_O	0.0
546.967	1.0	go	0.631	Go_O	0.0
549.491	1.0	go	0.442	Go_X	0.0
552.015	1.0	stopfail	0.985	Go_X	0.0
554.556	1.0	stopfail	0.743	Go_O	0.0
557.097	1.0	stopfail	0.502	Go_X	0.0
559.638	1.0	go	0.261	Go_O	0.0
562.162	1.0	go	0.037	Go_X	0.0
564.686	1.0	go	0.741	Go_X	0.0
567.21	1.0	go	0.434	Go_O	0.0
569.734	1.0	go	0.512	Go_O	0.0
572.259	1.0	go	0.363	Go_X	0.0
574.783	1.0	go	0.426	Go_O	0.0
577.307	1.0	go	0.35	Go_X	0.0
579.831	1.0	stopfail	0.767	Go_O	0.0
582.372	1.0	go	0.526	Go_X	0.0
584.896	1.0	stopfail	0.301	Go_X	0.0
587.437	1.0	go	0.061	Go_O	0.0
589.961	1.0	stopsuccess	0.0	Go_O	1.0
592.502	1.0	go	0.412	Go_X	0.0
595.026	1.0	go	0.582	Go_O	0.0
597.551	1.0	go	0.463	Go_O	0.0
600.075	1.0	stopsuccess	0.0	Go_X	1.0
602.599	1.0	stopfail	0.998	Go_O	0.0
605.123	1.0	go	0.423	Go_X	0.0
607.647	1.0	stopfail	0.55	Go_X	0.0
610.172	1.0	go	0.325	Go_O	0.0
612.696	1.0	go	0.101	Go_X	0.0
615.22	1.0	go	0.552	Go_O	0.0
617.744	1.0	stopsuccess	0.0	Go_O	1.0
620.285	1.0	stopsuccess	0.0	Go_X	1.0
622.809	1.0	go	0.394	Go_X	0.0
625.333	1.0	go	0.409	Go_X	0.0
627.858	1.0	go	0.521	Go_O	0.0
630.382	1.0	go	0.549	Go_O	0.0
632.906	1.0	go	0.403	Go_X	0.0
635.43	1.0	stopfail	0.366	Go_O	0.0
637.954	1.0	go	0.142	Go_X	0.0
640.478	1.0	stopsuccess	0.0	Go_X	1.0
643.003	1.0	go	0.476	Go_O	0.0
645.527	1.0	stopsuccess	0.0	Go_O	1.0
648.051	1.0	go	0.622	Go_O	0.0
650.575	1.0	go	0.48	Go_X	0.0
653.099	1.0	go	0.619	Go_X	0.0
655.624	1.0	stopfail	0.87	Go_X	0.0
658.148	1.0	go	0.358	Go_O	0.0
660.672	1.0	go	0.422	Go_X	0.0
663.196	1.0	go	0.198	Go_O	0.0
665.72	1.0	go	0.336	Go_X	0.0
668.244	1.0	go	0.496	Go_O	0.0
670.769	1.0	go	0.407	Go_X	0.0
673.293	1.0	go	0.636	Go_O	0.0
675.817	1.0	go	0.759	Go_O	0.0
678.341	1.0	go	0.364	Go_X	0.0
680.865	1.0	stopfail	0.928	Go_O	0.0
683.39	1.0	go	0.573	Go_O	0.0
685.914	1.0	go	0.458	Go_X	0.0
688.438	1.0	go	0.255	Go_X	0.0
690.962	1.0	go	0.031	Go_O	0.0
693.486	1.0	stopsuccess	0.0	Go_X	1.0
696.01	1.0	stopsuccess	0.0	Go_O	1.0
698.535	1.0	go	0.554	Go_X	0.0
701.059	1.0	stopsuccess	0.0	Go_X	1.0
703.583	1.0	stopsuccess	0.0	Go_O	1.0
706.107	1.0	go	0.532	Go_O	0.0
708.631	1.0	go	0.6	Go_X	0.0
711.156	1.0	go	0.529	Go_O	0.0
713.68	1.0	go	0.312	Go_O	0.0
716.204	1.0	go	0.088	Go_X	0.0
718.728	1.0	go	0.364	Go_O	0.0
721.252	1.0	stopfail	0.367	Go_X	0.0
723.776	1.0	stopfail	0.389	Go_O	0.0
726.301	1.0	go	0.388	Go_X	0.0
728.825	1.0	go	0.516	Go_X	0.0
731.349	1.0	stopsuccess	0.0	Go_X	1.0
733.873	1.0	go	0.379	Go_O	0.0
736.397	1.0	go	0.519	Go_X	0.0
738.922	1.0	go	0.32	Go_O	0.0
741.446	1.0	go	0.144	Go_X	0.0
743.97	1.0	stopsuccess	0.0	Go_O	1.0
746.494	1.0	stopsuccess	0.0	Go_X	1.0
749.018	1.0	go	0.451	Go_O	0.0
751.542	1.0	stopfail	0.524	Go_O	0.0
754.067	1.0	go	0.534	Go_X	0.0
756.591	1.0	stopsuccess	0.0	Go_X	1.0
759.115	1.0	stopfail	0.874	Go_O	0.0
761.639	1.0	stopfail	0.65	Go_X	0.0
764.163	1.0	go	0.426	Go_O	0.0
766.688	1.0	go	0.201	Go_X	0.0
769.212	1.0	go	0.353	Go_O	0.0
771.736	1.0	go	0.627	Go_O	0.0
774.26	1.0	go	0.343	Go_X	0.0
776.784	1.0	stopsuccess	0.0	Go_O	1.0
779.309	1.0	stopsuccess	0.0	Go_X	1.0
781.833	1.0	go	0.794	Go_X	0.0
784.357	1.0	go	0.624	Go_O	0.0
786.881	1.0	stopfail	0.427	Go_O	0.0
789.405	1.0	go	0.483	Go_O	0.0
791.929	1.0	stopfail	0.259	Go_X	0.0
794.454	1.0	go	0.034	Go_X	0.0
796.978	1.0	stopsuccess	0.0	Go_O	1.0
799.502	1.0	go	0.394	Go_O	0.0
802.026	1.0	go	0.413	Go_X	0.0
804.55	1.0	go	0.451	Go_O	1.0
807.075	1.0	stopfail	0.533	Go_X	0.0
809.599	1.0	go	0.495	Go_X	0.0
812.123	1.0	go	0.569	Go_O	0.0
814.647	1.0	go	0.487	Go_X	0.0
817.171	1.0	stopfail	0.315	Go_O	0.0
819.695	1.0	stopfail	0.091	Go_X	0.0
822.22	1.0	go	0.427	Go_O	0.0
824.744	1.0	stopsuccess	0.0	Go_O	1.0
827.268	1.0	go	0.426	Go_X	0.0
829.792	1.0	stopsuccess	0.0	Go_X	1.0
832.316	1.0	stopsuccess	0.0	Go_O	1.0
834.841	1.0	go	0.483	Go_O	0.0
