onset	duration	trial_type	response_time	stim_file	accuracy
487.537	1.0	go	0.521	Go_O	1.0
490.112	1.0	go	0.345	Go_X	1.0
492.636	1.0	go	0.323	Go_O	1.0
495.16	1.0	go	0.38	Go_X	1.0
497.684	1.0	go	0.491	Go_X	1.0
500.208	1.0	go	0.373	Go_O	1.0
502.733	0.25	stop	0.0	Go_O	1.0
505.257	1.0	go	0.412	Go_O	1.0
507.781	0.3	stop	0.0	Go_X	1.0
510.305	1.0	go	0.492	Go_X	1.0
512.829	1.0	go	0.573	Go_O	1.0
515.354	1.0	go	0.329	Go_X	1.0
517.878	0.35	stop	0.0	Go_O	1.0
520.402	1.0	go	0.454	Go_O	1.0
522.926	1.0	go	0.756	Go_X	1.0
525.45	0.4	stop	0.0	Go_X	1.0
527.975	0.45	stop	0.355	Go_O	0.0
530.499	1.0	go	0.535	Go_O	1.0
533.023	1.0	go	0.746	Go_X	1.0
535.547	0.4	stop	0.0	Go_X	1.0
538.071	1.0	go	0.689	Go_O	1.0
540.596	1.0	go	0.917	Go_X	1.0
543.12	0.45	stop	0.426	Go_O	0.0
545.644	1.0	go	0.712	Go_O	1.0
548.168	1.0	go	0.0	Go_X	0.0
550.692	0.4	stop	0.0	Go_X	1.0
553.217	1.0	go	0.648	Go_X	1.0
555.741	1.0	go	0.539	Go_O	1.0
558.265	0.45	stop	0.0	Go_O	1.0
560.789	1.0	go	0.529	Go_X	1.0
563.313	1.0	go	0.876	Go_O	1.0
565.837	1.0	go	0.487	Go_X	1.0
568.362	1.0	go	0.804	Go_O	1.0
570.886	1.0	go	0.579	Go_X	1.0
573.41	0.5	stop	0.0	Go_X	1.0
575.934	1.0	go	0.591	Go_O	1.0
578.458	1.0	go	0.0	Go_O	0.0
580.983	1.0	go	0.721	Go_X	1.0
583.507	1.0	go	0.704	Go_O	1.0
586.031	1.0	go	0.847	Go_X	1.0
588.555	0.55	stop	0.0	Go_O	1.0
591.079	1.0	go	0.959	Go_X	1.0
593.604	1.0	go	0.533	Go_O	1.0
596.128	1.0	go	0.741	Go_X	1.0
598.652	1.0	go	0.85	Go_O	1.0
601.176	1.0	go	0.688	Go_X	1.0
603.7	1.0	go	0.984	Go_O	1.0
606.225	0.6	stop	0.653	Go_X	0.0
608.749	1.0	go	0.806	Go_X	1.0
611.273	1.0	go	0.595	Go_O	1.0
613.797	0.55	stop	0.666	Go_O	0.0
616.321	1.0	go	0.694	Go_X	1.0
618.846	0.5	stop	0.0	Go_X	1.0
621.37	0.55	stop	0.0	Go_O	1.0
623.894	1.0	go	0.69	Go_O	1.0
626.418	1.0	go	0.0	Go_O	0.0
628.942	1.0	go	0.773	Go_X	1.0
631.466	1.0	go	0.659	Go_O	1.0
633.991	0.6	stop	0.0	Go_X	1.0
636.515	1.0	go	0.614	Go_X	1.0
639.039	0.65	stop	0.746	Go_O	0.0
641.563	1.0	go	0.0	Go_X	0.0
644.087	1.0	go	0.449	Go_O	1.0
646.612	1.0	go	0.627	Go_O	1.0
649.136	1.0	go	0.727	Go_X	1.0
651.66	1.0	go	0.814	Go_O	1.0
654.184	1.0	go	0.898	Go_X	1.0
656.708	1.0	go	0.782	Go_X	1.0
659.233	1.0	go	0.777	Go_O	1.0
661.757	1.0	go	0.823	Go_X	1.0
664.281	0.6	stop	0.664	Go_X	0.0
666.805	1.0	go	0.908	Go_O	1.0
669.329	1.0	go	0.692	Go_O	1.0
671.854	1.0	go	0.599	Go_X	1.0
674.378	0.55	stop	0.796	Go_O	0.0
676.902	1.0	go	0.0	Go_X	0.0
679.426	1.0	go	0.555	Go_O	1.0
681.95	1.0	go	0.63	Go_O	1.0
684.475	1.0	go	0.594	Go_X	1.0
686.999	1.0	go	0.588	Go_O	1.0
689.523	1.0	go	0.672	Go_X	1.0
692.047	0.5	stop	0.0	Go_X	1.0
694.571	1.0	go	0.305	Go_X	1.0
697.095	1.0	go	0.742	Go_O	1.0
699.62	0.55	stop	0.0	Go_O	1.0
702.144	1.0	go	0.831	Go_O	1.0
704.668	1.0	go	0.616	Go_X	1.0
707.192	0.6	stop	0.843	Go_X	0.0
709.716	1.0	go	0.79	Go_X	1.0
712.241	0.55	stop	0.0	Go_O	1.0
714.765	1.0	go	0.677	Go_O	1.0
717.289	1.0	go	0.974	Go_X	1.0
719.813	1.0	go	0.515	Go_O	1.0
722.337	1.0	go	0.555	Go_O	1.0
724.862	1.0	go	0.0	Go_X	0.0
727.386	0.6	stop	0.78	Go_X	0.0
729.91	0.55	stop	0.615	Go_O	0.0
732.434	1.0	go	0.789	Go_X	1.0
734.958	1.0	go	0.914	Go_O	1.0
737.483	0.5	stop	0.64	Go_X	0.0
740.007	1.0	go	0.0	Go_O	0.0
742.531	1.0	go	0.74	Go_X	1.0
745.055	1.0	go	0.888	Go_O	1.0
747.579	1.0	go	0.543	Go_X	1.0
750.104	1.0	go	0.377	Go_O	1.0
752.628	1.0	go	0.57	Go_X	1.0
755.152	0.45	stop	0.46	Go_O	0.0
757.676	1.0	go	0.917	Go_O	1.0
760.2	1.0	go	0.478	Go_X	1.0
762.724	1.0	go	0.706	Go_O	1.0
765.249	1.0	go	0.825	Go_X	1.0
767.773	1.0	go	0.682	Go_X	1.0
770.297	0.4	stop	0.0	Go_X	1.0
772.821	1.0	go	0.591	Go_O	1.0
775.345	1.0	go	0.558	Go_O	1.0
777.87	1.0	go	0.596	Go_X	1.0
780.394	1.0	go	0.623	Go_X	1.0
782.918	0.45	stop	0.712	Go_O	0.0
785.442	1.0	go	0.548	Go_O	1.0
787.966	1.0	go	0.433	Go_O	1.0
790.491	0.4	stop	0.0	Go_X	1.0
793.015	1.0	go	0.696	Go_X	1.0
795.539	0.45	stop	0.0	Go_O	1.0
798.063	1.0	go	0.56	Go_X	1.0
800.587	1.0	go	0.854	Go_O	1.0
803.112	1.0	go	0.859	Go_O	1.0
805.636	1.0	go	0.74	Go_X	1.0
808.16	1.0	go	0.744	Go_O	1.0
810.684	1.0	go	0.726	Go_X	1.0
813.208	1.0	go	0.874	Go_O	1.0
815.733	0.5	stop	0.0	Go_X	1.0
818.257	1.0	go	0.935	Go_X	1.0
820.781	1.0	go	0.295	Go_O	1.0
823.305	1.0	go	0.602	Go_X	1.0
825.829	0.55	stop	0.0	Go_O	1.0
828.353	1.0	go	0.883	Go_O	1.0
830.878	1.0	go	0.0	Go_X	0.0
833.402	1.0	go	0.712	Go_X	1.0
835.926	1.0	go	0.813	Go_O	1.0
838.45	0.6	stop	0.515	Go_X	0.0
840.974	1.0	go	0.0	Go_O	0.0
843.499	1.0	go	0.914	Go_X	1.0
846.023	0.55	stop	0.637	Go_O	0.0
848.547	1.0	go	0.425	Go_X	0.0
851.071	1.0	go	0.508	Go_O	1.0
853.595	0.5	stop	0.526	Go_X	0.0
856.12	1.0	go	0.651	Go_X	1.0
858.644	1.0	go	0.365	Go_O	1.0
861.168	0.45	stop	0.718	Go_O	0.0
863.692	1.0	go	0.0	Go_O	0.0
866.216	1.0	go	0.572	Go_X	1.0
868.741	1.0	go	0.0	Go_X	0.0
871.265	1.0	go	0.772	Go_O	1.0
873.789	1.0	go	0.528	Go_X	1.0
876.313	1.0	go	0.583	Go_O	1.0
878.837	0.4	stop	0.0	Go_X	1.0
881.362	1.0	go	0.581	Go_X	1.0
883.886	0.45	stop	0.311	Go_O	0.0
886.41	1.0	go	0.96	Go_O	1.0
888.934	1.0	go	0.496	Go_X	1.0
891.458	1.0	go	0.269	Go_O	1.0
893.982	1.0	go	0.315	Go_X	1.0
896.507	1.0	go	0.66	Go_O	1.0
899.031	0.4	stop	0.328	Go_X	0.0
901.555	1.0	go	0.441	Go_O	1.0
904.079	1.0	go	0.293	Go_X	1.0
906.603	1.0	go	0.75	Go_X	1.0
909.128	0.35	stop	0.0	Go_O	1.0
911.652	0.4	stop	0.0	Go_X	1.0
914.176	0.45	stop	0.0	Go_O	1.0
916.7	1.0	go	0.716	Go_O	1.0
919.224	0.5	stop	0.444	Go_X	0.0
921.749	1.0	go	0.511	Go_O	1.0
924.273	1.0	go	0.466	Go_X	1.0
926.797	1.0	go	0.542	Go_X	1.0
929.321	1.0	go	0.465	Go_O	1.0
931.845	1.0	go	0.485	Go_X	1.0
934.37	1.0	go	0.543	Go_O	1.0
936.894	1.0	go	0.0	Go_O	0.0
939.418	1.0	go	0.857	Go_X	1.0
941.942	0.45	stop	0.0	Go_O	1.0
944.466	1.0	go	0.0	Go_X	0.0
946.991	1.0	go	0.582	Go_O	1.0
949.515	0.5	stop	0.517	Go_X	0.0
952.039	1.0	go	0.855	Go_X	1.0
954.563	1.0	go	0.375	Go_O	1.0
957.087	1.0	go	0.647	Go_X	1.0
959.611	1.0	go	0.615	Go_O	1.0
962.136	1.0	go	0.516	Go_X	1.0
964.66	0.45	stop	0.505	Go_O	0.0
967.184	1.0	go	0.587	Go_O	1.0
969.709	1.0	go	0.546	Go_O	1.0
972.232	1.0	go	0.375	Go_X	1.0
974.757	0.4	stop	0.36	Go_X	0.0
977.281	1.0	go	0.461	Go_O	1.0
979.805	0.35	stop	0.0	Go_O	1.0
982.329	1.0	go	0.933	Go_X	1.0
984.853	1.0	go	0.563	Go_O	1.0
987.378	1.0	go	0.367	Go_X	1.0
989.902	1.0	go	0.833	Go_X	1.0
992.426	1.0	go	0.572	Go_O	1.0
994.95	1.0	go	0.389	Go_X	1.0
997.474	1.0	go	0.288	Go_O	1.0
999.999	0.4	stop	0.394	Go_X	0.0
1002.523	1.0	go	0.309	Go_O	1.0
1005.047	1.0	go	0.549	Go_X	1.0
1007.571	1.0	go	0.5	Go_O	1.0
1010.095	1.0	go	0.681	Go_X	1.0
1012.619	0.35	stop	0.459	Go_O	0.0
1015.144	1.0	go	0.517	Go_O	1.0
1017.668	0.3	stop	0.0	Go_X	1.0
1020.192	1.0	go	0.451	Go_X	1.0
1022.716	1.0	go	0.283	Go_O	1.0
1025.24	0.35	stop	0.0	Go_O	1.0
1027.765	1.0	go	0.588	Go_X	1.0
1030.289	1.0	go	0.661	Go_X	1.0
1032.813	1.0	go	0.698	Go_O	1.0
1035.337	1.0	go	0.0	Go_X	0.0
1037.861	1.0	go	0.443	Go_O	1.0
1040.386	1.0	go	0.732	Go_O	1.0
1042.91	1.0	go	0.0	Go_X	0.0
1045.434	1.0	go	0.909	Go_O	1.0
1047.958	1.0	go	0.451	Go_X	1.0
1050.482	1.0	go	0.531	Go_O	1.0
1053.007	0.4	stop	0.59	Go_X	0.0
1055.531	1.0	go	0.409	Go_X	0.0
1058.055	1.0	go	0.44	Go_O	1.0
1060.579	0.35	stop	0.0	Go_O	1.0
1063.103	1.0	go	0.929	Go_X	1.0
1065.628	0.4	stop	0.0	Go_X	1.0
1068.152	1.0	go	0.0	Go_X	0.0
1070.676	1.0	go	0.585	Go_O	1.0
1073.2	0.45	stop	0.0	Go_O	1.0
1075.724	1.0	go	0.559	Go_O	1.0
1078.248	0.5	stop	0.46	Go_X	0.0
1080.773	1.0	go	0.0	Go_X	0.0
1083.297	1.0	go	0.565	Go_X	0.0
1085.821	1.0	go	0.342	Go_O	1.0
1088.345	0.45	stop	0.57	Go_O	0.0
1090.869	1.0	go	0.635	Go_O	1.0
1093.394	1.0	go	0.529	Go_X	1.0
1095.918	1.0	go	0.62	Go_X	1.0
1098.442	1.0	go	0.658	Go_O	1.0
1100.966	0.4	stop	0.0	Go_X	1.0
1103.49	1.0	go	0.535	Go_O	1.0
1106.015	1.0	go	0.0	Go_X	0.0
1108.539	0.45	stop	0.493	Go_O	0.0
1111.063	1.0	go	0.644	Go_X	1.0
1113.587	1.0	go	0.551	Go_O	1.0
1116.111	1.0	go	0.647	Go_X	1.0
1118.636	1.0	go	0.457	Go_O	1.0
1121.16	0.4	stop	0.889	Go_X	0.0
1123.684	1.0	go	0.605	Go_O	1.0
1126.225	0.35	stop	0.0	Go_O	1.0
1128.749	1.0	go	0.04	Go_X	0.0
1131.273	1.0	go	0.544	Go_X	1.0
1133.797	0.4	stop	0.606	Go_X	0.0
1136.322	1.0	go	0.509	Go_O	1.0
1138.846	1.0	go	0.37	Go_O	0.0
1141.37	1.0	go	0.685	Go_X	1.0
1143.894	1.0	go	0.617	Go_O	1.0
1146.418	0.35	stop	0.0	Go_O	1.0
1148.943	1.0	go	0.43	Go_X	1.0
1151.467	0.4	stop	0.464	Go_X	0.0
1153.991	1.0	go	0.857	Go_X	1.0
1156.515	1.0	go	0.483	Go_O	1.0
1159.039	1.0	go	0.722	Go_O	0.0
1161.564	1.0	go	0.319	Go_X	1.0
1164.088	1.0	go	0.676	Go_O	1.0
1166.612	1.0	go	0.649	Go_X	1.0
1169.136	0.35	stop	0.0	Go_O	1.0
1171.66	1.0	go	0.842	Go_X	1.0
1174.185	1.0	go	0.561	Go_O	1.0
1176.709	0.4	stop	0.0	Go_X	1.0
1179.233	1.0	go	0.484	Go_X	1.0
1181.757	1.0	go	0.0	Go_O	0.0
1184.281	0.45	stop	0.0	Go_O	1.0
1186.805	1.0	go	0.736	Go_O	1.0
1189.33	1.0	go	0.752	Go_X	1.0
1191.854	1.0	go	0.873	Go_O	1.0
1194.378	1.0	go	0.591	Go_X	1.0
1196.902	0.5	stop	0.548	Go_X	0.0
1199.426	1.0	go	0.686	Go_X	1.0
1201.951	0.45	stop	0.542	Go_O	0.0
1204.475	1.0	go	0.576	Go_O	1.0
1206.999	1.0	go	0.485	Go_X	1.0
1209.523	1.0	go	0.483	Go_O	1.0
1212.047	1.0	go	0.556	Go_O	1.0
1214.572	1.0	go	0.48	Go_X	1.0
1217.096	0.4	stop	0.549	Go_X	0.0
1219.62	1.0	go	0.953	Go_X	1.0
1222.144	1.0	go	0.631	Go_O	1.0
1224.668	0.35	stop	0.0	Go_O	1.0
1227.193	0.4	stop	0.0	Go_X	1.0
1229.717	1.0	go	0.534	Go_X	1.0
1232.241	1.0	go	0.63	Go_O	1.0
1234.765	1.0	go	0.507	Go_X	1.0
1237.289	1.0	go	0.564	Go_O	1.0
1239.814	0.45	stop	0.682	Go_O	0.0
1242.338	1.0	go	0.584	Go_O	1.0
