onset	duration	trial_type	response_time	stim_file	accuracy
64.378	1.0	go	0.0	Go_X	0.0
66.902	1.0	go	0.696	Go_O	1.0
69.426	1.0	go	0.474	Go_X	1.0
71.95	1.0	go	0.513	Go_O	1.0
74.475	1.0	go	0.701	Go_O	1.0
76.999	1.0	go	0.514	Go_X	1.0
79.523	0.25	stopsuccess	0.0	Go_O	1.0
82.047	1.0	go	0.497	Go_X	1.0
84.571	0.3	stopsuccess	0.0	Go_X	1.0
87.096	1.0	go	0.512	Go_O	1.0
89.62	1.0	go	0.5	Go_O	1.0
92.144	1.0	go	0.68	Go_X	1.0
94.668	0.35	stopsuccess	0.0	Go_O	1.0
97.192	1.0	go	0.373	Go_O	1.0
99.717	1.0	go	0.514	Go_X	1.0
102.241	0.4	stopsuccess	0.0	Go_X	1.0
104.765	0.45	stopfail	0.492	Go_O	0.0
107.289	1.0	go	0.755	Go_O	1.0
109.813	1.0	go	0.691	Go_X	1.0
112.338	0.4	stopfail	0.842	Go_X	0.0
114.862	1.0	go	0.654	Go_O	1.0
117.386	1.0	go	0.688	Go_X	1.0
119.91	0.35	stopsuccess	0.0	Go_O	1.0
122.434	1.0	go	0.645	Go_X	1.0
124.959	1.0	go	0.0	Go_O	0.0
127.483	0.4	stopfail	0.74	Go_X	0.0
130.007	1.0	go	0.597	Go_X	1.0
132.531	1.0	go	0.508	Go_O	1.0
135.055	0.35	stopsuccess	0.0	Go_O	1.0
137.58	1.0	go	0.589	Go_O	1.0
140.104	1.0	go	0.633	Go_X	1.0
142.628	1.0	go	0.719	Go_X	1.0
145.152	1.0	go	0.8	Go_O	1.0
147.676	1.0	go	0.818	Go_X	1.0
150.201	0.4	stopfail	0.469	Go_X	0.0
152.725	1.0	go	0.461	Go_O	1.0
155.249	1.0	go	0.544	Go_O	1.0
157.773	1.0	go	0.689	Go_X	1.0
160.297	1.0	go	0.525	Go_X	1.0
162.822	1.0	go	0.355	Go_O	1.0
165.346	0.35	stopsuccess	0.0	Go_O	1.0
167.87	1.0	go	0.308	Go_X	1.0
170.394	1.0	go	0.244	Go_O	1.0
172.918	1.0	go	0.443	Go_X	1.0
175.443	1.0	go	0.363	Go_O	1.0
177.967	1.0	go	0.438	Go_O	1.0
180.491	1.0	go	0.91	Go_X	1.0
183.015	0.4	stopfail	0.543	Go_X	0.0
185.539	1.0	go	0.424	Go_O	1.0
188.064	1.0	go	0.43	Go_X	0.0
190.588	0.35	stopfail	0.752	Go_O	0.0
193.112	1.0	go	0.462	Go_X	1.0
195.636	0.3	stopsuccess	0.0	Go_X	1.0
198.161	0.35	stopfail	0.394	Go_O	0.0
200.701	1.0	go	0.602	Go_O	1.0
203.226	1.0	go	0.483	Go_O	1.0
205.75	1.0	go	0.537	Go_X	1.0
208.274	1.0	go	0.534	Go_X	1.0
210.798	0.3	stopsuccess	0.0	Go_X	1.0
213.322	1.0	go	0.425	Go_O	1.0
215.847	0.35	stopfail	0.487	Go_O	0.0
218.371	1.0	go	0.447	Go_X	1.0
220.895	1.0	go	0.99	Go_O	0.0
223.419	1.0	go	0.577	Go_O	1.0
225.943	1.0	go	0.521	Go_X	1.0
228.468	1.0	go	0.457	Go_O	1.0
230.992	1.0	go	0.453	Go_X	1.0
233.516	1.0	go	0.483	Go_O	1.0
236.04	1.0	go	0.458	Go_X	1.0
238.564	1.0	go	0.957	Go_X	1.0
241.089	0.3	stopsuccess	0.0	Go_X	1.0
243.613	1.0	go	0.452	Go_O	1.0
246.137	1.0	go	0.587	Go_O	1.0
248.661	1.0	go	0.0	Go_X	0.0
251.185	0.35	stopfail	0.34	Go_O	0.0
253.71	1.0	go	0.546	Go_X	1.0
256.234	1.0	go	0.267	Go_O	1.0
258.758	1.0	go	0.331	Go_X	1.0
261.282	1.0	go	0.267	Go_O	1.0
263.807	1.0	go	0.408	Go_X	1.0
266.331	1.0	go	0.315	Go_O	1.0
268.855	0.3	stopfail	0.453	Go_X	0.0
271.379	1.0	go	0.301	Go_X	1.0
273.903	1.0	go	0.377	Go_O	1.0
276.428	0.25	stopsuccess	0.0	Go_O	1.0
278.952	1.0	go	0.459	Go_X	1.0
281.476	1.0	go	0.284	Go_O	1.0
284.0	0.3	stopfail	0.112	Go_X	0.0
286.524	1.0	go	0.251	Go_X	0.0
289.049	0.25	stopfail	0.388	Go_O	0.0
291.589	1.0	go	0.559	Go_O	1.0
294.114	1.0	go	0.849	Go_O	1.0
296.638	1.0	go	0.391	Go_X	1.0
299.162	1.0	go	0.543	Go_X	1.0
301.686	1.0	go	0.569	Go_O	1.0
304.21	0.2	stopsuccess	0.0	Go_X	1.0
306.735	0.25	stopfail	0.728	Go_O	0.0
309.259	1.0	go	0.901	Go_X	0.0
311.783	1.0	go	0.361	Go_O	0.0
314.307	0.2	stopsuccess	0.0	Go_X	1.0
316.831	1.0	go	0.785	Go_O	1.0
319.356	1.0	go	0.525	Go_X	1.0
321.88	1.0	go	0.536	Go_X	0.0
324.404	1.0	go	0.458	Go_O	0.0
326.928	1.0	go	0.672	Go_O	0.0
329.452	1.0	go	0.508	Go_X	0.0
331.977	0.25	stopsuccess	0.0	Go_O	1.0
334.518	1.0	go	0.495	Go_O	0.0
337.042	1.0	go	0.432	Go_X	0.0
339.566	1.0	go	0.704	Go_O	0.0
342.09	1.0	go	0.487	Go_X	0.0
344.614	1.0	go	0.0	Go_O	0.0
347.139	0.3	stopfail	0.306	Go_X	0.0
349.663	1.0	go	0.433	Go_X	0.0
352.187	1.0	go	0.46	Go_X	0.0
354.711	1.0	go	0.511	Go_O	1.0
357.235	1.0	go	0.454	Go_X	1.0
359.76	0.25	stopsuccess	0.0	Go_O	1.0
362.284	1.0	go	0.654	Go_O	0.0
364.808	1.0	go	0.442	Go_X	0.0
367.332	0.3	stopsuccess	0.0	Go_X	1.0
369.856	1.0	go	0.713	Go_O	0.0
372.381	0.35	stopsuccess	0.0	Go_O	1.0
374.905	1.0	go	0.355	Go_X	0.0
377.429	1.0	go	0.537	Go_O	0.0
379.953	1.0	go	0.504	Go_O	0.0
382.477	1.0	go	0.802	Go_X	0.0
385.002	1.0	go	0.534	Go_O	0.0
387.526	1.0	go	0.614	Go_X	0.0
390.05	1.0	go	0.557	Go_O	0.0
392.574	0.4	stopsuccess	0.0	Go_X	1.0
395.099	1.0	go	0.527	Go_X	0.0
397.623	1.0	go	0.582	Go_O	1.0
400.147	1.0	go	0.656	Go_X	0.0
402.671	0.45	stopfail	0.479	Go_O	0.0
405.195	1.0	go	0.628	Go_O	0.0
407.72	1.0	go	0.703	Go_X	0.0
410.244	1.0	go	0.751	Go_O	0.0
412.768	1.0	go	0.534	Go_X	0.0
415.292	0.4	stopsuccess	0.0	Go_X	1.0
417.816	1.0	go	0.625	Go_X	0.0
420.341	1.0	go	0.678	Go_O	0.0
422.865	0.45	stopsuccess	0.0	Go_O	1.0
425.389	1.0	go	0.383	Go_O	0.0
427.913	1.0	go	0.495	Go_X	0.0
430.437	0.5	stopfail	0.542	Go_X	0.0
432.962	1.0	go	0.532	Go_X	0.0
435.486	1.0	go	0.577	Go_O	0.0
438.01	0.45	stopfail	0.576	Go_O	0.0
440.534	1.0	go	0.62	Go_O	0.0
443.058	1.0	go	0.694	Go_X	0.0
445.583	1.0	go	0.441	Go_O	0.0
448.107	1.0	go	0.529	Go_X	0.0
450.631	1.0	go	0.781	Go_O	0.0
453.155	1.0	go	0.803	Go_X	0.0
455.679	0.4	stopsuccess	0.0	Go_X	1.0
458.204	1.0	go	0.364	Go_X	0.0
460.728	0.45	stopfail	0.377	Go_O	0.0
463.252	1.0	go	0.43	Go_O	0.0
465.776	1.0	go	0.465	Go_O	0.0
468.3	1.0	go	0.405	Go_X	0.0
470.825	1.0	go	0.508	Go_O	0.0
473.349	1.0	go	0.491	Go_X	0.0
475.873	0.4	stopfail	0.772	Go_X	0.0
478.397	1.0	go	0.505	Go_O	0.0
480.921	1.0	go	0.407	Go_X	0.0
483.446	1.0	go	0.425	Go_X	0.0
485.97	0.35	stopsuccess	0.0	Go_O	1.0
488.494	0.4	stopfail	0.403	Go_X	0.0
491.018	0.35	stopfail	0.484	Go_O	0.0
493.542	1.0	go	0.649	Go_O	0.0
496.067	0.3	stopfail	0.656	Go_X	0.0
498.591	1.0	go	0.623	Go_X	0.0
501.115	1.0	go	0.384	Go_O	0.0
503.639	1.0	go	0.503	Go_O	0.0
506.163	1.0	go	0.507	Go_X	0.0
508.688	1.0	go	0.587	Go_O	0.0
511.212	1.0	go	0.418	Go_X	0.0
513.736	1.0	go	0.64	Go_O	0.0
516.26	1.0	go	0.532	Go_X	0.0
518.784	0.25	stopsuccess	0.0	Go_O	1.0
521.309	1.0	go	0.507	Go_O	0.0
523.833	1.0	go	0.578	Go_X	0.0
526.357	0.3	stopsuccess	0.0	Go_X	1.0
528.881	1.0	go	0.797	Go_O	0.0
531.405	1.0	go	0.414	Go_X	0.0
533.93	1.0	go	0.954	Go_O	0.0
536.454	1.0	go	0.386	Go_X	0.0
538.978	1.0	go	0.409	Go_X	1.0
541.502	0.35	stopfail	0.436	Go_O	0.0
544.026	1.0	go	0.561	Go_O	0.0
546.551	1.0	go	0.526	Go_O	0.0
549.075	1.0	go	0.61	Go_X	0.0
551.599	0.3	stopsuccess	0.0	Go_X	1.0
554.123	1.0	go	0.593	Go_O	0.0
556.647	0.35	stopfail	0.623	Go_O	0.0
559.172	1.0	go	0.431	Go_X	0.0
561.696	1.0	go	0.369	Go_O	0.0
564.22	1.0	go	0.297	Go_X	0.0
566.744	1.0	go	0.518	Go_X	0.0
569.268	1.0	go	0.755	Go_O	0.0
571.793	1.0	go	0.556	Go_X	0.0
574.317	1.0	go	0.492	Go_O	0.0
576.841	0.3	stopsuccess	0.0	Go_X	1.0
579.365	1.0	go	0.483	Go_O	0.0
581.89	1.0	go	0.379	Go_X	0.0
584.414	1.0	go	0.56	Go_X	0.0
586.938	1.0	go	0.369	Go_O	0.0
589.462	0.35	stopfail	0.514	Go_O	0.0
591.986	1.0	go	0.431	Go_X	0.0
594.511	0.3	stopfail	0.445	Go_X	0.0
597.051	1.0	go	0.49	Go_O	0.0
599.576	1.0	go	0.559	Go_O	0.0
602.1	0.25	stopfail	0.653	Go_O	0.0
604.624	1.0	go	0.381	Go_X	0.0
607.148	1.0	go	0.513	Go_X	0.0
609.672	1.0	go	0.632	Go_O	0.0
612.197	1.0	go	0.686	Go_X	0.0
614.721	1.0	go	0.374	Go_O	0.0
617.245	1.0	go	0.396	Go_X	0.0
619.769	1.0	go	0.442	Go_O	0.0
622.293	1.0	go	0.475	Go_O	0.0
624.818	1.0	go	0.528	Go_X	0.0
627.342	1.0	go	0.556	Go_X	0.0
629.866	0.2	stopfail	0.472	Go_X	0.0
632.39	1.0	go	0.466	Go_O	0.0
634.914	1.0	go	0.614	Go_O	0.0
637.439	0.15	stopsuccess	0.0	Go_O	1.0
639.963	1.0	go	0.398	Go_X	1.0
642.487	0.2	stopsuccess	0.0	Go_X	1.0
645.011	1.0	go	0.578	Go_O	0.0
647.536	1.0	go	0.937	Go_X	0.0
650.06	0.25	stopfail	0.406	Go_O	0.0
652.601	1.0	go	0.444	Go_X	0.0
655.125	0.2	stopsuccess	0.0	Go_X	1.0
657.649	1.0	go	0.498	Go_O	0.0
660.173	1.0	go	0.749	Go_O	0.0
662.697	1.0	go	0.36	Go_X	0.0
665.222	0.25	stopsuccess	0.0	Go_O	1.0
667.746	1.0	go	0.361	Go_X	0.0
670.27	1.0	go	0.46	Go_O	0.0
672.794	1.0	go	0.371	Go_O	0.0
675.318	1.0	go	0.346	Go_X	0.0
677.843	0.3	stopfail	0.557	Go_X	0.0
680.367	1.0	go	0.362	Go_X	0.0
682.891	1.0	go	0.414	Go_O	0.0
685.415	0.25	stopfail	0.453	Go_O	0.0
687.939	1.0	go	0.57	Go_O	0.0
690.464	1.0	go	0.612	Go_X	0.0
692.988	1.0	go	0.529	Go_O	0.0
695.512	1.0	go	0.489	Go_X	0.0
698.036	0.2	stopsuccess	0.0	Go_X	1.0
700.56	1.0	go	0.62	Go_O	0.0
703.085	0.25	stopsuccess	0.0	Go_O	1.0
705.609	1.0	go	0.32	Go_X	0.0
708.133	1.0	go	0.295	Go_O	1.0
710.657	0.3	stopsuccess	0.0	Go_X	1.0
713.182	1.0	go	0.517	Go_X	0.0
715.706	1.0	go	0.587	Go_O	0.0
718.23	1.0	go	0.495	Go_X	0.0
720.754	1.0	go	0.705	Go_X	0.0
723.278	0.35	stopfail	0.439	Go_O	0.0
725.803	1.0	go	0.612	Go_O	0.0
728.327	0.3	stopsuccess	0.0	Go_X	1.0
730.851	1.0	go	0.593	Go_X	1.0
733.375	1.0	go	0.528	Go_O	0.0
735.899	1.0	go	0.479	Go_O	0.0
738.424	1.0	go	0.538	Go_X	0.0
740.948	1.0	go	0.539	Go_O	0.0
743.472	1.0	go	0.398	Go_X	0.0
745.996	0.35	stopfail	0.436	Go_O	0.0
748.52	1.0	go	0.709	Go_O	0.0
751.045	1.0	go	0.42	Go_X	0.0
753.569	0.3	stopfail	0.475	Go_X	0.0
756.093	1.0	go	0.808	Go_X	0.0
758.617	1.0	go	0.74	Go_O	0.0
761.141	0.25	stopsuccess	0.0	Go_O	1.0
763.666	1.0	go	0.498	Go_X	0.0
766.19	1.0	go	0.645	Go_O	0.0
768.714	1.0	go	0.385	Go_X	0.0
771.238	1.0	go	0.601	Go_O	1.0
773.762	0.3	stopfail	0.439	Go_X	0.0
776.287	1.0	go	0.482	Go_O	0.0
778.811	0.25	stopsuccess	0.0	Go_O	1.0
781.335	1.0	go	0.699	Go_X	0.0
783.859	1.0	go	0.326	Go_O	0.0
786.383	1.0	go	0.784	Go_X	0.0
788.908	1.0	go	0.586	Go_X	0.0
791.432	1.0	go	0.532	Go_O	0.0
793.956	0.3	stopsuccess	0.0	Go_X	1.0
796.48	1.0	go	0.571	Go_O	0.0
799.004	1.0	go	0.657	Go_X	0.0
801.529	0.35	stopsuccess	0.0	Go_O	1.0
804.053	0.4	stopsuccess	0.0	Go_X	1.0
806.577	1.0	go	0.677	Go_O	0.0
809.101	1.0	go	0.54	Go_X	0.0
811.625	1.0	go	0.846	Go_X	0.0
814.15	1.0	go	0.837	Go_O	0.0
816.674	0.45	stopfail	0.551	Go_O	0.0
819.198	1.0	go	0.415	Go_X	0.0
