onset	duration	trial_type	response_time	stim_file	accuracy
135.609	1.0	go	0.0	Go_O	0.0
138.133	1.0	go	0.419	Go_X	1.0
140.657	1.0	go	0.359	Go_O	1.0
143.181	1.0	go	0.275	Go_X	1.0
145.705	1.0	go	0.36	Go_X	1.0
148.229	1.0	go	0.374	Go_O	1.0
150.754	0.25	stopfail	0.383	Go_O	0.0
153.278	1.0	go	0.545	Go_O	1.0
155.802	0.2	stopfail	0.414	Go_X	0.0
158.326	1.0	go	0.395	Go_X	0.0
160.85	1.0	go	0.802	Go_X	1.0
163.375	1.0	go	0.489	Go_O	1.0
165.899	0.15	stopsuccess	0.0	Go_O	1.0
168.423	1.0	go	0.487	Go_X	1.0
170.947	1.0	go	0.621	Go_O	1.0
173.471	0.2	stopsuccess	0.0	Go_X	1.0
175.995	0.25	stopsuccess	0.0	Go_O	1.0
178.52	1.0	go	0.616	Go_O	1.0
181.044	1.0	go	0.383	Go_X	1.0
183.568	0.3	stopsuccess	0.0	Go_X	1.0
186.092	1.0	go	0.747	Go_X	1.0
188.616	1.0	go	0.438	Go_O	1.0
191.141	0.35	stopfail	0.514	Go_O	0.0
193.665	1.0	go	0.622	Go_O	1.0
196.189	1.0	go	0.496	Go_X	1.0
198.713	0.3	stopsuccess	0.0	Go_X	1.0
201.237	1.0	go	0.465	Go_O	1.0
203.761	1.0	go	0.722	Go_X	1.0
206.286	0.35	stopsuccess	0.0	Go_O	1.0
208.81	1.0	go	0.81	Go_X	1.0
211.334	1.0	go	0.655	Go_O	1.0
213.858	1.0	go	0.867	Go_O	1.0
216.382	1.0	go	0.52	Go_X	1.0
218.907	1.0	go	0.604	Go_O	1.0
221.431	0.4	stopsuccess	0.0	Go_X	1.0
223.955	1.0	go	0.539	Go_X	1.0
226.479	1.0	go	0.47	Go_O	1.0
229.003	1.0	go	0.532	Go_X	1.0
231.527	1.0	go	0.797	Go_O	1.0
234.052	1.0	go	0.981	Go_X	1.0
236.576	0.45	stopsuccess	0.0	Go_O	1.0
239.1	1.0	go	0.933	Go_O	1.0
241.624	1.0	go	0.753	Go_X	1.0
244.148	1.0	go	0.745	Go_X	1.0
246.673	1.0	go	0.0	Go_O	0.0
249.197	1.0	go	0.6	Go_O	1.0
251.721	1.0	go	0.492	Go_X	1.0
254.245	0.5	stopfail	0.306	Go_X	0.0
256.769	1.0	go	0.53	Go_O	1.0
259.293	1.0	go	0.699	Go_X	1.0
261.818	0.45	stopsuccess	0.0	Go_O	1.0
264.342	1.0	go	0.585	Go_X	0.0
266.866	0.5	stopfail	0.534	Go_X	0.0
269.39	0.45	stopfail	0.415	Go_O	0.0
271.914	1.0	go	0.471	Go_O	1.0
274.439	1.0	go	0.649	Go_O	1.0
276.963	1.0	go	0.915	Go_X	1.0
279.487	1.0	go	0.629	Go_X	1.0
282.011	0.4	stopfail	0.407	Go_X	0.0
284.535	1.0	go	0.516	Go_O	1.0
287.059	0.35	stopsuccess	0.0	Go_O	1.0
289.584	1.0	go	0.561	Go_O	1.0
292.108	1.0	go	0.719	Go_X	1.0
294.632	1.0	go	0.0	Go_X	0.0
297.156	1.0	go	0.603	Go_O	1.0
299.68	1.0	go	0.723	Go_X	1.0
302.205	1.0	go	0.518	Go_O	1.0
304.729	1.0	go	0.936	Go_X	1.0
307.253	1.0	go	0.772	Go_O	1.0
309.777	1.0	go	0.629	Go_O	1.0
312.301	0.4	stopfail	0.634	Go_X	0.0
314.825	1.0	go	0.647	Go_X	1.0
317.35	1.0	go	0.498	Go_X	1.0
319.874	1.0	go	0.605	Go_O	1.0
322.398	0.35	stopfail	0.428	Go_O	0.0
324.922	1.0	go	0.67	Go_X	1.0
327.446	1.0	go	0.661	Go_O	1.0
329.971	1.0	go	0.91	Go_O	0.0
332.495	1.0	go	0.0	Go_X	0.0
335.019	1.0	go	0.597	Go_O	1.0
337.543	1.0	go	0.78	Go_X	1.0
340.067	0.3	stopfail	0.607	Go_X	0.0
342.591	1.0	go	0.659	Go_O	1.0
345.116	1.0	go	0.6	Go_X	1.0
347.64	0.25	stopsuccess	0.0	Go_O	1.0
350.164	1.0	go	0.681	Go_X	1.0
352.688	1.0	go	0.0	Go_O	0.0
355.212	0.3	stopsuccess	0.0	Go_X	1.0
357.737	1.0	go	0.0	Go_X	0.0
360.261	0.35	stopfail	0.465	Go_O	0.0
362.785	1.0	go	0.426	Go_O	1.0
365.309	1.0	go	0.519	Go_O	1.0
367.833	1.0	go	0.428	Go_X	1.0
370.357	1.0	go	0.444	Go_O	1.0
372.882	1.0	go	0.617	Go_X	1.0
375.406	0.3	stopfail	0.548	Go_X	0.0
377.93	0.25	stopfail	0.436	Go_O	0.0
380.454	1.0	go	0.562	Go_O	1.0
382.978	1.0	go	0.771	Go_X	0.0
385.503	0.2	stopsuccess	0.0	Go_X	1.0
388.027	1.0	go	0.878	Go_X	1.0
390.551	1.0	go	0.324	Go_O	1.0
393.075	1.0	go	0.431	Go_X	0.0
395.599	1.0	go	0.505	Go_O	1.0
398.123	1.0	go	0.459	Go_O	1.0
400.648	1.0	go	0.29	Go_X	1.0
403.172	0.25	stopfail	0.467	Go_O	0.0
405.696	1.0	go	0.491	Go_O	1.0
408.22	1.0	go	0.601	Go_X	1.0
410.744	1.0	go	0.547	Go_O	1.0
413.269	1.0	go	0.625	Go_X	1.0
415.793	1.0	go	0.265	Go_O	1.0
418.317	0.2	stopsuccess	0.0	Go_X	1.0
420.841	1.0	go	0.777	Go_X	1.0
423.365	1.0	go	0.747	Go_O	0.0
425.89	1.0	go	0.636	Go_X	1.0
428.414	1.0	go	0.475	Go_O	1.0
430.938	0.25	stopsuccess	0.0	Go_O	1.0
433.462	1.0	go	0.558	Go_X	1.0
435.986	1.0	go	0.917	Go_X	1.0
438.51	0.3	stopsuccess	0.0	Go_X	1.0
441.035	1.0	go	0.475	Go_O	1.0
443.559	0.35	stopsuccess	0.0	Go_O	1.0
446.083	1.0	go	0.903	Go_X	1.0
448.607	1.0	go	0.687	Go_O	1.0
451.131	1.0	go	0.939	Go_X	1.0
453.656	1.0	go	0.677	Go_O	1.0
456.18	1.0	go	0.528	Go_O	1.0
458.704	1.0	go	0.81	Go_X	1.0
461.228	1.0	go	0.75	Go_O	1.0
463.752	0.4	stopfail	0.361	Go_X	0.0
466.276	1.0	go	0.78	Go_X	1.0
468.801	1.0	go	0.576	Go_X	1.0
471.325	1.0	go	0.579	Go_O	1.0
473.849	0.35	stopsuccess	0.0	Go_O	1.0
476.373	1.0	go	0.413	Go_X	1.0
478.897	1.0	go	0.585	Go_O	1.0
481.422	1.0	go	0.723	Go_O	1.0
483.946	1.0	go	0.532	Go_X	1.0
486.47	0.4	stopsuccess	0.0	Go_X	1.0
488.994	1.0	go	0.898	Go_X	1.0
491.518	1.0	go	0.689	Go_O	1.0
494.042	0.45	stopfail	0.689	Go_O	0.0
496.567	1.0	go	0.0	Go_O	0.0
499.091	1.0	go	0.531	Go_X	1.0
501.615	0.4	stopfail	0.537	Go_X	0.0
504.139	1.0	go	0.543	Go_O	1.0
506.663	1.0	go	0.802	Go_X	1.0
509.188	0.35	stopsuccess	0.0	Go_O	1.0
511.712	1.0	go	0.562	Go_X	1.0
514.236	1.0	go	0.641	Go_O	1.0
516.76	1.0	go	0.713	Go_O	1.0
519.284	1.0	go	0.91	Go_X	0.0
521.808	1.0	go	0.566	Go_X	1.0
524.333	1.0	go	0.465	Go_O	1.0
526.857	0.4	stopsuccess	0.0	Go_X	1.0
529.381	1.0	go	0.972	Go_O	1.0
531.905	0.45	stopsuccess	0.0	Go_O	1.0
534.429	1.0	go	0.817	Go_X	1.0
536.954	1.0	go	0.0	Go_X	0.0
539.478	1.0	go	0.0	Go_O	0.0
542.002	1.0	go	0.49	Go_O	1.0
544.526	1.0	go	0.483	Go_X	1.0
547.05	0.5	stopfail	0.376	Go_X	0.0
549.574	1.0	go	0.422	Go_O	1.0
552.099	1.0	go	0.748	Go_X	1.0
554.623	1.0	go	0.829	Go_X	1.0
557.147	0.45	stopfail	0.307	Go_O	0.0
559.671	0.4	stopfail	0.357	Go_X	0.0
562.195	0.35	stopsuccess	0.0	Go_O	1.0
564.72	1.0	go	0.758	Go_O	1.0
567.244	0.4	stopsuccess	0.0	Go_X	1.0
569.768	1.0	go	0.572	Go_X	0.0
572.292	1.0	go	0.749	Go_O	1.0
574.816	1.0	go	0.647	Go_O	1.0
577.34	1.0	go	0.0	Go_X	0.0
579.865	1.0	go	0.602	Go_X	1.0
582.389	1.0	go	0.394	Go_O	1.0
584.913	1.0	go	0.546	Go_X	0.0
587.437	1.0	go	0.484	Go_O	1.0
589.961	0.45	stopfail	0.905	Go_O	0.0
592.486	1.0	go	0.601	Go_O	1.0
595.01	1.0	go	0.616	Go_X	1.0
597.534	0.4	stopsuccess	0.0	Go_X	1.0
600.058	1.0	go	0.491	Go_O	1.0
602.582	1.0	go	0.766	Go_X	1.0
605.106	1.0	go	0.555	Go_O	1.0
607.631	1.0	go	0.754	Go_X	1.0
610.155	1.0	go	0.647	Go_X	1.0
612.679	0.45	stopfail	0.703	Go_O	0.0
615.203	1.0	go	0.53	Go_O	1.0
617.727	1.0	go	0.998	Go_X	1.0
620.252	1.0	go	0.813	Go_O	1.0
622.776	0.4	stopfail	0.692	Go_X	0.0
625.3	1.0	go	0.668	Go_X	1.0
627.824	0.35	stopfail	0.447	Go_O	0.0
630.348	1.0	go	0.444	Go_O	1.0
632.872	1.0	go	0.611	Go_O	1.0
635.397	1.0	go	0.553	Go_X	1.0
637.921	1.0	go	0.616	Go_X	1.0
640.445	1.0	go	0.585	Go_O	1.0
642.969	1.0	go	0.584	Go_O	1.0
645.493	1.0	go	0.929	Go_X	1.0
648.018	0.3	stopfail	0.551	Go_X	0.0
650.542	1.0	go	0.508	Go_O	0.0
653.066	1.0	go	0.753	Go_X	1.0
655.59	1.0	go	0.267	Go_O	1.0
658.114	1.0	go	0.458	Go_X	0.0
660.638	0.25	stopfail	0.31	Go_O	0.0
663.163	1.0	go	0.272	Go_O	1.0
665.687	0.2	stopsuccess	0.0	Go_X	1.0
668.211	1.0	go	0.824	Go_X	0.0
670.735	1.0	go	0.468	Go_X	1.0
673.259	0.25	stopfail	0.534	Go_O	0.0
675.784	1.0	go	0.661	Go_O	1.0
678.308	1.0	go	0.0	Go_X	0.0
680.832	1.0	go	0.647	Go_O	1.0
683.356	1.0	go	0.761	Go_O	1.0
685.88	1.0	go	0.561	Go_X	1.0
688.404	1.0	go	0.491	Go_X	1.0
690.929	1.0	go	0.766	Go_O	1.0
693.453	1.0	go	0.65	Go_O	1.0
695.977	1.0	go	0.602	Go_X	1.0
698.501	1.0	go	0.75	Go_X	1.0
701.025	0.2	stopsuccess	0.0	Go_X	1.0
703.55	1.0	go	0.689	Go_O	1.0
706.074	1.0	go	0.711	Go_O	1.0
708.598	0.25	stopsuccess	0.0	Go_O	1.0
711.122	1.0	go	0.501	Go_X	0.0
713.646	0.3	stopfail	0.545	Go_X	0.0
716.17	1.0	go	0.519	Go_X	1.0
718.695	1.0	go	0.337	Go_O	1.0
721.219	0.25	stopsuccess	0.0	Go_O	1.0
723.743	1.0	go	0.494	Go_O	1.0
726.267	0.3	stopsuccess	0.0	Go_X	1.0
728.791	1.0	go	0.727	Go_X	1.0
731.316	1.0	go	0.751	Go_X	1.0
733.84	1.0	go	0.822	Go_O	0.0
736.364	0.35	stopfail	0.492	Go_O	0.0
738.888	1.0	go	0.635	Go_O	0.0
741.412	1.0	go	0.928	Go_X	0.0
743.936	1.0	go	0.0	Go_O	0.0
746.461	1.0	go	0.51	Go_X	1.0
748.985	0.3	stopsuccess	0.0	Go_X	1.0
751.509	1.0	go	0.86	Go_X	1.0
754.033	1.0	go	0.418	Go_O	1.0
756.557	0.35	stopsuccess	0.0	Go_O	1.0
759.082	1.0	go	0.752	Go_X	1.0
761.606	1.0	go	0.594	Go_O	1.0
764.13	1.0	go	0.573	Go_O	1.0
766.654	1.0	go	0.641	Go_X	1.0
769.178	0.4	stopsuccess	0.0	Go_X	1.0
771.703	1.0	go	0.0	Go_O	0.0
774.227	0.45	stopsuccess	0.0	Go_O	1.0
776.751	1.0	go	0.962	Go_X	0.0
779.275	1.0	go	0.487	Go_X	1.0
781.799	0.5	stopfail	0.64	Go_X	0.0
784.323	1.0	go	0.517	Go_O	1.0
786.848	1.0	go	0.767	Go_X	1.0
789.372	1.0	go	0.0	Go_O	0.0
791.896	1.0	go	0.0	Go_O	0.0
794.42	0.45	stopfail	0.326	Go_O	0.0
796.944	1.0	go	0.823	Go_X	1.0
799.469	0.4	stopfail	0.529	Go_X	0.0
801.993	1.0	go	0.463	Go_O	1.0
804.517	1.0	go	0.547	Go_X	1.0
807.041	1.0	go	0.54	Go_O	1.0
809.565	1.0	go	0.848	Go_X	1.0
812.089	1.0	go	0.463	Go_O	1.0
814.614	1.0	go	0.435	Go_X	1.0
817.138	0.35	stopfail	0.633	Go_O	0.0
819.662	1.0	go	0.522	Go_X	1.0
822.186	1.0	go	0.433	Go_O	1.0
824.71	0.3	stopfail	0.465	Go_X	0.0
827.235	1.0	go	0.703	Go_X	1.0
829.759	1.0	go	0.533	Go_O	1.0
832.283	0.25	stopfail	0.613	Go_O	0.0
834.807	1.0	go	0.748	Go_O	1.0
837.331	1.0	go	0.862	Go_X	1.0
839.855	1.0	go	0.836	Go_X	1.0
842.38	1.0	go	0.495	Go_O	1.0
844.904	0.2	stopsuccess	0.0	Go_X	1.0
847.428	1.0	go	0.496	Go_O	1.0
849.952	0.25	stopfail	0.504	Go_O	0.0
852.476	1.0	go	0.725	Go_X	1.0
855.001	1.0	go	0.0	Go_O	0.0
857.525	1.0	go	0.686	Go_X	1.0
860.049	1.0	go	0.0	Go_X	0.0
862.573	1.0	go	0.462	Go_O	0.0
865.097	0.2	stopsuccess	0.0	Go_X	1.0
867.621	1.0	go	0.691	Go_O	1.0
870.146	1.0	go	0.554	Go_X	1.0
872.67	0.25	stopfail	0.489	Go_O	0.0
875.194	0.2	stopsuccess	0.0	Go_X	1.0
877.718	1.0	go	0.306	Go_X	0.0
880.242	1.0	go	0.837	Go_O	1.0
882.767	1.0	go	0.618	Go_X	1.0
885.291	1.0	go	0.253	Go_O	1.0
887.815	0.25	stopsuccess	0.0	Go_O	1.0
890.339	1.0	go	0.646	Go_X	1.0
