frame	onset	duration	trial_type	event_type	response_type	response_time	stim_file	accuracy
0	102.688		loss-reward	ImageDisplay1		0.0		
0	104.928		loss-reward	StartDisplay		0.0		
0	105.681		loss-reward	ImageDisplay2		0.0		
0	108.673		loss-reward	ChoiceDisplay		0.0		
0	110.278		loss-reward	ChosenDisplay		0.0		
0	110.294		loss-reward	TurnDisplay				
0	110.528		loss-reward	OutcomeDisplay				
1	111.281		win-reward	ImageDisplay1		0.0		
1	113.521		win-reward	StartDisplay		0.0		
1	114.273		win-reward	ImageDisplay2		0.0		
1	117.265		win-reward	ChoiceDisplay		0.0		
1	118.87		win-reward	ChosenDisplay		0.0		
1	118.92		win-reward	TurnDisplay				
1	119.121		win-reward	OutcomeDisplay				
2	119.873		control-reward	ImageDisplay1		0.0		
2	122.13		control-reward	StartDisplay		0.0		
2	122.865		control-reward	ImageDisplay2		0.0		
2	125.874		control-reward	ChoiceDisplay	3	0.291	3	3
2	126.192		control-reward	ChosenDisplay		0.0		
2	127.479		control-reward	TurnDisplay				
2	127.73		control-reward	OutcomeDisplay				
3	128.482		loss-noreward	ImageDisplay1		0.0		
3	130.471		loss-noreward	StartDisplay		0.0		
3	131.223		loss-noreward	ImageDisplay2		0.0		
3	134.483		loss-noreward	ChoiceDisplay	3	1.077	3	3
3	135.586		loss-noreward	ChosenDisplay		0.0		
3	136.088		loss-noreward	TurnDisplay				
3	136.339		loss-noreward	OutcomeDisplay				
4	137.091		loss-reward	ImageDisplay1		0.0		
4	139.331		loss-reward	StartDisplay		0.0		
4	140.083		loss-reward	ImageDisplay2		0.0		
4	143.092		loss-reward	ChoiceDisplay	3	1.209	3	3
4	144.312		loss-reward	ChosenDisplay		0.0		
4	144.697		loss-reward	TurnDisplay				
4	144.948		loss-reward	OutcomeDisplay				
5	145.7		loss-reward	ImageDisplay1		0.0		
5	147.94		loss-reward	StartDisplay		0.0		
5	148.692		loss-reward	ImageDisplay2		0.0		
5	151.701		loss-reward	ChoiceDisplay	3	0.979	3	3
5	152.704		loss-reward	ChosenDisplay		0.0		
5	153.306		loss-reward	TurnDisplay				
5	153.557		loss-reward	OutcomeDisplay				
6	154.309		control-reward	ImageDisplay1		0.0		
6	156.549		control-reward	StartDisplay		0.0		
6	157.301		control-reward	ImageDisplay2		0.0		
6	160.31		control-reward	ChoiceDisplay	3	0.828	3	3
6	161.163		control-reward	ChosenDisplay		0.0		
6	161.915		control-reward	TurnDisplay				
6	162.166		control-reward	OutcomeDisplay				
7	162.918		win-reward	ImageDisplay1		0.0		
7	165.158		win-reward	StartDisplay		0.0		
7	165.91		win-reward	ImageDisplay2		0.0		
7	168.919		win-reward	ChoiceDisplay	3	0.948	3	3
7	169.889		win-reward	ChosenDisplay		0.0		
7	170.524		win-reward	TurnDisplay				
7	170.775		win-reward	OutcomeDisplay				
8	171.527		win-reward	ImageDisplay1		0.0		
8	173.767		win-reward	StartDisplay		0.0		
8	174.519		win-reward	ImageDisplay2		0.0		
8	177.528		win-reward	ChoiceDisplay	3	1.126	3	3
8	178.681		win-reward	ChosenDisplay		0.0		
8	179.133		win-reward	TurnDisplay				
8	179.383		win-reward	OutcomeDisplay				
9	180.136		loss-reward	ImageDisplay1		0.0		
9	182.376		loss-reward	StartDisplay		0.0		
9	183.128		loss-reward	ImageDisplay2		0.0		
9	186.137		loss-reward	ChoiceDisplay	3	0.671	3	3
9	186.822		loss-reward	ChosenDisplay		0.0		
9	187.742		loss-reward	TurnDisplay				
9	187.992		loss-reward	OutcomeDisplay				
10	188.745		loss-noreward	ImageDisplay1		0.0		
10	190.734		loss-noreward	StartDisplay		0.0		
10	191.486		loss-noreward	ImageDisplay2		0.0		
10	194.746		loss-noreward	ChoiceDisplay	3	0.918	3	3
10	195.682		loss-noreward	ChosenDisplay		0.0		
10	196.351		loss-noreward	TurnDisplay				
10	196.601		loss-noreward	OutcomeDisplay				
11	197.354		control-noreward	ImageDisplay1		0.0		
11	199.343		control-noreward	StartDisplay		0.0		
11	200.095		control-noreward	ImageDisplay2		0.0		
11	203.355		control-noreward	ChoiceDisplay	3	0.981	3	3
11	204.358		control-noreward	ChosenDisplay		0.0		
11	204.96		control-noreward	TurnDisplay				
11	205.21		control-noreward	OutcomeDisplay				
12	205.963		control-noreward	ImageDisplay1		0.0		
12	207.952		control-noreward	StartDisplay		0.0		
12	208.704		control-noreward	ImageDisplay2		0.0		
12	211.964		control-noreward	ChoiceDisplay	3	0.944	3	3
12	212.933		control-noreward	ChosenDisplay		0.0		
12	213.569		control-noreward	TurnDisplay				
12	213.819		control-noreward	OutcomeDisplay				
13	214.572		win-noreward	ImageDisplay1		0.0		
13	216.561		win-noreward	StartDisplay		0.0		
13	217.313		win-noreward	ImageDisplay2		0.0		
13	220.573		win-noreward	ChoiceDisplay	3	0.812	3	3
13	221.409		win-noreward	ChosenDisplay		0.0		
13	222.178		win-noreward	TurnDisplay				
13	222.428		win-noreward	OutcomeDisplay				
14	223.181		win-noreward	ImageDisplay1		0.0		
14	225.17		win-noreward	StartDisplay		0.0		
14	225.922		win-noreward	ImageDisplay2		0.0		
14	229.182		win-noreward	ChoiceDisplay	3	0.986	3	3
14	230.185		win-noreward	ChosenDisplay		0.0		
14	230.787		win-noreward	TurnDisplay				
14	231.037		win-noreward	OutcomeDisplay				
15	231.789		win-reward	ImageDisplay1		0.0		
15	234.03		win-reward	StartDisplay		0.0		
15	234.782		win-reward	ImageDisplay2		0.0		
15	237.791		win-reward	ChoiceDisplay	3	0.729	3	3
15	238.543		win-reward	ChosenDisplay		0.0		
15	239.395		win-reward	TurnDisplay				
15	239.646		win-reward	OutcomeDisplay				
16	240.398		loss-reward	ImageDisplay1		0.0		
16	242.638		loss-reward	StartDisplay		0.0		
16	243.391		loss-reward	ImageDisplay2		0.0		
16	246.4		loss-reward	ChoiceDisplay	3	0.588	3	3
16	247.001		loss-reward	ChosenDisplay		0.0		
16	248.004		loss-reward	TurnDisplay				
16	248.255		loss-reward	OutcomeDisplay				
17	249.007		control-noreward	ImageDisplay1		0.0		
17	250.997		control-noreward	StartDisplay		0.0		
17	251.749		control-noreward	ImageDisplay2		0.0		
17	255.009		control-noreward	ChoiceDisplay	3	0.717	3	3
17	255.744		control-noreward	ChosenDisplay		0.0		
17	256.613		control-noreward	TurnDisplay				
17	256.864		control-noreward	OutcomeDisplay				
18	257.616		loss-noreward	ImageDisplay1		0.0		
18	259.606		loss-noreward	StartDisplay		0.0		
18	260.358		loss-noreward	ImageDisplay2		0.0		
18	263.618		loss-noreward	ChoiceDisplay	3	0.877	3	3
18	264.52		loss-noreward	ChosenDisplay		0.0		
18	265.222		loss-noreward	TurnDisplay				
18	265.473		loss-noreward	OutcomeDisplay				
19	266.225		win-noreward	ImageDisplay1		0.0		
19	268.215		win-noreward	StartDisplay		0.0		
19	268.967		win-noreward	ImageDisplay2		0.0		
19	272.227		win-noreward	ChoiceDisplay	3	0.676	3	3
19	272.929		win-noreward	ChosenDisplay		0.0		
19	273.831		win-noreward	TurnDisplay				
19	274.082		win-noreward	OutcomeDisplay				
20	274.834		loss-reward	ImageDisplay1		0.0		
20	277.074		loss-reward	StartDisplay		0.0		
20	277.827		loss-reward	ImageDisplay2		0.0		
20	280.836		loss-reward	ChoiceDisplay	3	0.672	3	3
20	281.521		loss-reward	ChosenDisplay		0.0		
20	282.44		loss-reward	TurnDisplay				
20	282.691		loss-reward	OutcomeDisplay				
21	283.443		control-noreward	ImageDisplay1		0.0		
21	285.433		control-noreward	StartDisplay		0.0		
21	286.185		control-noreward	ImageDisplay2		0.0		
21	289.444		control-noreward	ChoiceDisplay	3	0.632	3	3
21	290.096		control-noreward	ChosenDisplay		0.0		
21	291.049		control-noreward	TurnDisplay				
21	291.3		control-noreward	OutcomeDisplay				
22	292.052		loss-noreward	ImageDisplay1		0.0		
22	294.042		loss-noreward	StartDisplay		0.0		
22	294.794		loss-noreward	ImageDisplay2		0.0		
22	298.053		loss-noreward	ChoiceDisplay	3	0.991	3	3
22	299.056		loss-noreward	ChosenDisplay		0.0		
22	299.658		loss-noreward	TurnDisplay				
22	299.909		loss-noreward	OutcomeDisplay				
23	300.661		win-noreward	ImageDisplay1		0.0		
23	302.651		win-noreward	StartDisplay		0.0		
23	303.403		win-noreward	ImageDisplay2		0.0		
23	306.662		win-noreward	ChoiceDisplay		0.0		
23	308.25		win-noreward	ChosenDisplay		0.0		
23	308.267		win-noreward	TurnDisplay				
23	308.501		win-noreward	OutcomeDisplay				
24	309.253		control-noreward	ImageDisplay1		0.0		
24	311.259		control-noreward	StartDisplay		0.0		
24	312.012		control-noreward	ImageDisplay2		0.0		
24	315.255		control-noreward	ChoiceDisplay	3	0.619	3	3
24	315.89		control-noreward	ChosenDisplay		0.0		
24	316.859		control-noreward	TurnDisplay				
24	317.11		control-noreward	OutcomeDisplay				
25	317.862		loss-reward	ImageDisplay1		0.0		
25	320.102		loss-reward	StartDisplay		0.0		
25	320.855		loss-reward	ImageDisplay2		0.0		
25	323.864		loss-reward	ChoiceDisplay	3	0.6	3	3
25	324.482		loss-reward	ChosenDisplay		0.0		
25	325.468		loss-reward	TurnDisplay				
25	325.719		loss-reward	OutcomeDisplay				
26	326.471		control-noreward	ImageDisplay1		0.0		
26	328.461		control-noreward	StartDisplay		0.0		
26	329.213		control-noreward	ImageDisplay2		0.0		
26	332.473		control-noreward	ChoiceDisplay	3	0.447	3	3
26	332.941		control-noreward	ChosenDisplay		0.0		
26	334.077		control-noreward	TurnDisplay				
26	334.328		control-noreward	OutcomeDisplay				
27	335.08		win-reward	ImageDisplay1		0.0		
27	337.32		win-reward	StartDisplay		0.0		
27	338.073		win-reward	ImageDisplay2		0.0		
27	341.082		win-reward	ChoiceDisplay	3	0.312	3	3
27	341.416		win-reward	ChosenDisplay		0.0		
27	342.686		win-reward	TurnDisplay				
27	342.937		win-reward	OutcomeDisplay				
28	343.689		control-reward	ImageDisplay1		0.0		
28	345.929		control-reward	StartDisplay		0.0		
28	346.682		control-reward	ImageDisplay2		0.0		
28	349.691		control-reward	ChoiceDisplay	3	0.284	3	3
28	349.991		control-reward	ChosenDisplay		0.0		
28	351.295		control-reward	TurnDisplay				
28	351.546		control-reward	OutcomeDisplay				
29	352.298		control-noreward	ImageDisplay1		0.0		
29	354.288		control-noreward	StartDisplay		0.0		
29	355.04		control-noreward	ImageDisplay2		0.0		
29	358.3		control-noreward	ChoiceDisplay	3	0.354	3	3
29	358.667		control-noreward	ChosenDisplay		0.0		
29	359.904		control-noreward	TurnDisplay				
29	360.155		control-noreward	OutcomeDisplay				
30	360.907		win-reward	ImageDisplay1		0.0		
30	363.147		win-reward	StartDisplay		0.0		
30	363.9		win-reward	ImageDisplay2		0.0		
30	366.908		win-reward	ChoiceDisplay	3	0.248	3	3
30	367.176		win-reward	ChosenDisplay		0.0		
30	368.513		win-reward	TurnDisplay				
30	368.764		win-reward	OutcomeDisplay				
31	369.516		win-noreward	ImageDisplay1		0.0		
31	371.506		win-noreward	StartDisplay		0.0		
31	372.258		win-noreward	ImageDisplay2		0.0		
31	375.517		win-noreward	ChoiceDisplay	3	0.306	3	3
31	375.835		win-noreward	ChosenDisplay		0.0		
31	377.122		win-noreward	TurnDisplay				
31	377.373		win-noreward	OutcomeDisplay				
32	378.125		loss-noreward	ImageDisplay1		0.0		
32	380.114		loss-noreward	StartDisplay		0.0		
32	380.867		loss-noreward	ImageDisplay2		0.0		
32	384.126		loss-noreward	ChoiceDisplay	3	0.581	3	3
32	384.728		loss-noreward	ChosenDisplay		0.0		
32	385.731		loss-noreward	TurnDisplay				
32	385.982		loss-noreward	OutcomeDisplay				
33	386.734		control-noreward	ImageDisplay1		0.0		
33	388.723		control-noreward	StartDisplay		0.0		
33	389.476		control-noreward	ImageDisplay2		0.0		
33	392.735		control-noreward	ChoiceDisplay		0.0		
33	394.323		control-noreward	ChosenDisplay		0.0		
33	394.34		control-noreward	TurnDisplay				
33	394.574		control-noreward	OutcomeDisplay				
34	395.326		control-noreward	ImageDisplay1		0.0		
34	397.332		control-noreward	StartDisplay		0.0		
34	398.085		control-noreward	ImageDisplay2		0.0		
34	401.328		control-noreward	ChoiceDisplay	3	0.508	3	3
34	401.863		control-noreward	ChosenDisplay		0.0		
34	402.932		control-noreward	TurnDisplay				
34	403.183		control-noreward	OutcomeDisplay				
35	403.935		loss-noreward	ImageDisplay1		0.0		
35	405.925		loss-noreward	StartDisplay		0.0		
35	406.677		loss-noreward	ImageDisplay2		0.0		
35	409.937		loss-noreward	ChoiceDisplay	3	0.537	3	3
35	410.488		loss-noreward	ChosenDisplay		0.0		
35	411.541		loss-noreward	TurnDisplay				
35	411.792		loss-noreward	OutcomeDisplay				
36	412.544		control-reward	ImageDisplay1		0.0		
36	414.784		control-reward	StartDisplay		0.0		
36	415.537		control-reward	ImageDisplay2		0.0		
36	418.546		control-reward	ChoiceDisplay	3	0.541	3	3
36	419.114		control-reward	ChosenDisplay		0.0		
36	420.15		control-reward	TurnDisplay				
36	420.401		control-reward	OutcomeDisplay				
37	421.153		loss-noreward	ImageDisplay1		0.0		
37	423.143		loss-noreward	StartDisplay		0.0		
37	423.895		loss-noreward	ImageDisplay2		0.0		
37	427.155		loss-noreward	ChoiceDisplay	3	0.499	3	3
37	427.673		loss-noreward	ChosenDisplay		0.0		
37	428.759		loss-noreward	TurnDisplay				
37	429.01		loss-noreward	OutcomeDisplay				
38	429.762		loss-noreward	ImageDisplay1		0.0		
38	431.752		loss-noreward	StartDisplay		0.0		
38	432.504		loss-noreward	ImageDisplay2		0.0		
38	435.764		loss-noreward	ChoiceDisplay	3	0.785	3	3
38	436.566		loss-noreward	ChosenDisplay		0.0		
38	437.368		loss-noreward	TurnDisplay				
38	437.619		loss-noreward	OutcomeDisplay				
39	438.371		control-noreward	ImageDisplay1		0.0		
39	440.361		control-noreward	StartDisplay		0.0		
39	441.113		control-noreward	ImageDisplay2		0.0		
39	444.372		control-noreward	ChoiceDisplay	3	0.403	3	3
39	444.79		control-noreward	ChosenDisplay		0.0		
39	445.977		control-noreward	TurnDisplay				
39	446.228		control-noreward	OutcomeDisplay				
40	446.98		control-reward	ImageDisplay1		0.0		
40	449.22		control-reward	StartDisplay		0.0		
40	449.972		control-reward	ImageDisplay2		0.0		
40	452.981		control-reward	ChoiceDisplay		0.0		
40	454.57		control-reward	ChosenDisplay		0.0		
40	454.586		control-reward	TurnDisplay				
40	454.82		control-reward	OutcomeDisplay				
41	455.572		loss-noreward	ImageDisplay1		0.0		
41	457.579		loss-noreward	StartDisplay		0.0		
41	458.331		loss-noreward	ImageDisplay2		0.0		
41	461.574		loss-noreward	ChoiceDisplay	3	0.39	3	3
41	461.992		loss-noreward	ChosenDisplay		0.0		
41	463.178		loss-noreward	TurnDisplay				
41	463.429		loss-noreward	OutcomeDisplay				
42	464.181		win-reward	ImageDisplay1		0.0		
42	466.421		win-reward	StartDisplay		0.0		
42	467.174		win-reward	ImageDisplay2		0.0		
42	470.183		win-reward	ChoiceDisplay	3	0.817	3	3
42	471.019		win-reward	ChosenDisplay		0.0		
42	471.787		win-reward	TurnDisplay				
42	472.038		win-reward	OutcomeDisplay				
43	472.79		win-noreward	ImageDisplay1		0.0		
43	474.78		win-noreward	StartDisplay		0.0		
43	475.532		win-noreward	ImageDisplay2		0.0		
43	478.792		win-noreward	ChoiceDisplay	3	0.883	3	3
43	479.694		win-noreward	ChosenDisplay		0.0		
43	480.396		win-noreward	TurnDisplay				
43	480.647		win-noreward	OutcomeDisplay				
44	481.399		win-noreward	ImageDisplay1		0.0		
44	483.389		win-noreward	StartDisplay		0.0		
44	484.141		win-noreward	ImageDisplay2		0.0		
44	487.401		win-noreward	ChoiceDisplay	3	0.654	3	3
44	488.069		win-noreward	ChosenDisplay		0.0		
44	489.005		win-noreward	TurnDisplay				
44	489.256		win-noreward	OutcomeDisplay				
45	490.008		loss-reward	ImageDisplay1		0.0		
45	492.248		loss-reward	StartDisplay		0.0		
45	493.001		loss-reward	ImageDisplay2		0.0		
45	496.01		loss-reward	ChoiceDisplay	3	0.366	3	3
45	496.394		loss-reward	ChosenDisplay		0.0		
45	497.614		loss-reward	TurnDisplay				
45	497.865		loss-reward	OutcomeDisplay				
46	498.617		win-reward	ImageDisplay1		0.0		
46	500.857		win-reward	StartDisplay		0.0		
46	501.61		win-reward	ImageDisplay2		0.0		
46	504.619		win-reward	ChoiceDisplay	3	0.466	3	3
46	505.103		win-reward	ChosenDisplay		0.0		
46	506.223		win-reward	TurnDisplay				
46	506.474		win-reward	OutcomeDisplay				
47	507.226		loss-noreward	ImageDisplay1		0.0		
47	509.216		loss-noreward	StartDisplay		0.0		
47	509.968		loss-noreward	ImageDisplay2		0.0		
47	513.227		loss-noreward	ChoiceDisplay	3	0.668	3	3
47	513.913		loss-noreward	ChosenDisplay		0.0		
47	514.832		loss-noreward	TurnDisplay				
47	515.083		loss-noreward	OutcomeDisplay				
48	515.835		loss-reward	ImageDisplay1		0.0		
48	518.075		loss-reward	StartDisplay		0.0		
48	518.827		loss-reward	ImageDisplay2		0.0		
48	521.836		loss-reward	ChoiceDisplay	3	0.917	3	3
48	522.773		loss-reward	ChosenDisplay		0.0		
48	523.441		loss-reward	TurnDisplay				
48	523.692		loss-reward	OutcomeDisplay				
49	524.444		loss-noreward	ImageDisplay1		0.0		
49	526.433		loss-noreward	StartDisplay		0.0		
49	527.186		loss-noreward	ImageDisplay2		0.0		
49	530.445		loss-noreward	ChoiceDisplay	3	0.545	3	3
49	531.014		loss-noreward	ChosenDisplay		0.0		
49	532.05		loss-noreward	TurnDisplay				
49	532.301		loss-noreward	OutcomeDisplay				
50	533.053		control-noreward	ImageDisplay1		0.0		
50	535.042		control-noreward	StartDisplay		0.0		
50	535.795		control-noreward	ImageDisplay2		0.0		
50	539.054		control-noreward	ChoiceDisplay	3	0.656	3	3
50	539.723		control-noreward	ChosenDisplay		0.0		
50	540.659		control-noreward	TurnDisplay				
50	540.91		control-noreward	OutcomeDisplay				
51	541.662		control-noreward	ImageDisplay1		0.0		
51	543.651		control-noreward	StartDisplay		0.0		
51	544.404		control-noreward	ImageDisplay2		0.0		
51	547.663		control-noreward	ChoiceDisplay	3	1.058	3	3
51	548.733		control-noreward	ChosenDisplay		0.0		
51	549.268		control-noreward	TurnDisplay				
51	549.519		control-noreward	OutcomeDisplay				
52	550.271		control-reward	ImageDisplay1		0.0		
52	552.511		control-reward	StartDisplay		0.0		
52	553.263		control-reward	ImageDisplay2		0.0		
52	556.272		control-reward	ChoiceDisplay	3	0.638	3	3
52	556.924		control-reward	ChosenDisplay		0.0		
52	557.877		control-reward	TurnDisplay				
52	558.128		control-reward	OutcomeDisplay				
53	558.88		win-reward	ImageDisplay1		0.0		
53	561.12		win-reward	StartDisplay		0.0		
53	561.872		win-reward	ImageDisplay2		0.0		
53	564.881		win-reward	ChoiceDisplay		0.0		
53	566.469		win-reward	ChosenDisplay		0.0		
53	566.486		win-reward	TurnDisplay				
53	566.72		win-reward	OutcomeDisplay				
54	567.472		loss-reward	ImageDisplay1		0.0		
54	569.729		loss-reward	StartDisplay		0.0		
54	570.481		loss-reward	ImageDisplay2		0.0		
54	573.474		loss-reward	ChoiceDisplay		0.0		
54	575.078		loss-reward	ChosenDisplay		0.0		
54	575.095		loss-reward	TurnDisplay				
54	575.329		loss-reward	OutcomeDisplay				
55	576.081		control-noreward	ImageDisplay1		0.0		
55	578.071		control-noreward	StartDisplay		0.0		
55	578.823		control-noreward	ImageDisplay2		0.0		
55	582.083		control-noreward	ChoiceDisplay	3	0.587	3	3
55	582.684		control-noreward	ChosenDisplay		0.0		
55	583.687		control-noreward	TurnDisplay				
55	583.938		control-noreward	OutcomeDisplay				
56	584.69		control-reward	ImageDisplay1		0.0		
56	586.93		control-reward	StartDisplay		0.0		
56	587.683		control-reward	ImageDisplay2		0.0		
56	590.691		control-reward	ChoiceDisplay	3	0.503	3	3
56	591.21		control-reward	ChosenDisplay		0.0		
56	592.296		control-reward	TurnDisplay				
56	592.547		control-reward	OutcomeDisplay				
57	593.299		control-reward	ImageDisplay1		0.0		
57	595.539		control-reward	StartDisplay		0.0		
57	596.292		control-reward	ImageDisplay2		0.0		
57	599.3		control-reward	ChoiceDisplay	3	0.567	3	3
57	599.886		control-reward	ChosenDisplay		0.0		
57	600.905		control-reward	TurnDisplay				
57	601.156		control-reward	OutcomeDisplay				
58	601.908		win-reward	ImageDisplay1		0.0		
58	604.148		win-reward	StartDisplay		0.0		
58	604.9		win-reward	ImageDisplay2		0.0		
58	607.909		win-reward	ChoiceDisplay	3	1.138	3	3
58	609.063		win-reward	ChosenDisplay		0.0		
58	609.514		win-reward	TurnDisplay				
58	609.765		win-reward	OutcomeDisplay				
59	610.517		win-noreward	ImageDisplay1		0.0		
59	612.506		win-noreward	StartDisplay		0.0		
59	613.259		win-noreward	ImageDisplay2		0.0		
59	616.518		win-noreward	ChoiceDisplay	3	1.124	3	3
59	617.655		win-noreward	ChosenDisplay		0.0		
59	618.123		win-noreward	TurnDisplay				
59	618.374		win-noreward	OutcomeDisplay				
60	619.126		loss-reward	ImageDisplay1		0.0		
60	621.366		loss-reward	StartDisplay		0.0		
60	622.118		loss-reward	ImageDisplay2		0.0		
60	625.127		loss-reward	ChoiceDisplay	3	0.834	3	3
60	625.98		loss-reward	ChosenDisplay		0.0		
60	626.732		loss-reward	TurnDisplay				
60	626.983		loss-reward	OutcomeDisplay				
61	627.735		win-noreward	ImageDisplay1		0.0		
61	629.724		win-noreward	StartDisplay		0.0		
61	630.477		win-noreward	ImageDisplay2		0.0		
61	633.736		win-noreward	ChoiceDisplay		0.0		
61	635.324		win-noreward	ChosenDisplay		0.0		
61	635.341		win-noreward	TurnDisplay				
61	635.575		win-noreward	OutcomeDisplay				
62	636.327		win-reward	ImageDisplay1		0.0		
62	638.584		win-reward	StartDisplay		0.0		
62	639.336		win-reward	ImageDisplay2		0.0		
62	642.329		win-reward	ChoiceDisplay	3	0.522	3	3
62	642.863		win-reward	ChosenDisplay		0.0		
62	643.933		win-reward	TurnDisplay				
62	644.184		win-reward	OutcomeDisplay				
63	644.936		loss-reward	ImageDisplay1		0.0		
63	647.176		loss-reward	StartDisplay		0.0		
63	647.929		loss-reward	ImageDisplay2		0.0		
63	650.938		loss-reward	ChoiceDisplay	3	0.636	3	3
63	651.589		loss-reward	ChosenDisplay		0.0		
63	652.542		loss-reward	TurnDisplay				
63	652.793		loss-reward	OutcomeDisplay				
64	653.545		loss-noreward	ImageDisplay1		0.0		
64	655.535		loss-noreward	StartDisplay		0.0		
64	656.287		loss-noreward	ImageDisplay2		0.0		
64	659.547		loss-noreward	ChoiceDisplay	3	0.964	3	3
64	660.533		loss-noreward	ChosenDisplay		0.0		
64	661.151		loss-noreward	TurnDisplay				
64	661.402		loss-noreward	OutcomeDisplay				
65	662.154		loss-reward	ImageDisplay1		0.0		
65	664.394		loss-reward	StartDisplay		0.0		
65	665.147		loss-reward	ImageDisplay2		0.0		
65	668.155		loss-reward	ChoiceDisplay	3	0.592	3	3
65	668.774		loss-reward	ChosenDisplay		0.0		
65	669.76		loss-reward	TurnDisplay				
65	670.011		loss-reward	OutcomeDisplay				
66	670.763		control-reward	ImageDisplay1		0.0		
66	673.003		control-reward	StartDisplay		0.0		
66	673.755		control-reward	ImageDisplay2		0.0		
66	676.764		control-reward	ChoiceDisplay	3	0.999	3	3
66	677.784		control-reward	ChosenDisplay		0.0		
66	678.369		control-reward	TurnDisplay				
66	678.62		control-reward	OutcomeDisplay				
67	679.372		control-noreward	ImageDisplay1		0.0		
67	681.361		control-noreward	StartDisplay		0.0		
67	682.114		control-noreward	ImageDisplay2		0.0		
67	685.373		control-noreward	ChoiceDisplay	3	0.491	3	3
67	685.875		control-noreward	ChosenDisplay		0.0		
67	686.978		control-noreward	TurnDisplay				
67	687.229		control-noreward	OutcomeDisplay				
68	687.981		win-reward	ImageDisplay1		0.0		
68	690.221		win-reward	StartDisplay		0.0		
68	690.973		win-reward	ImageDisplay2		0.0		
68	693.982		win-reward	ChoiceDisplay	3	1.109	3	3
68	695.102		win-reward	ChosenDisplay		0.0		
68	695.587		win-reward	TurnDisplay				
68	695.838		win-reward	OutcomeDisplay				
69	696.59		loss-reward	ImageDisplay1		0.0		
69	698.83		loss-reward	StartDisplay		0.0		
69	699.582		loss-reward	ImageDisplay2		0.0		
69	702.591		loss-reward	ChoiceDisplay	3	0.874	3	3
69	703.477		loss-reward	ChosenDisplay		0.0		
69	704.196		loss-reward	TurnDisplay				
69	704.447		loss-reward	OutcomeDisplay				
70	705.199		control-reward	ImageDisplay1		0.0		
70	707.439		control-reward	StartDisplay		0.0		
70	708.191		control-reward	ImageDisplay2		0.0		
70	711.2		control-reward	ChoiceDisplay	3	0.471	3	3
70	711.685		control-reward	ChosenDisplay		0.0		
70	712.805		control-reward	TurnDisplay				
70	713.056		control-reward	OutcomeDisplay				
71	713.808		control-noreward	ImageDisplay1		0.0		
71	715.797		control-noreward	StartDisplay		0.0		
71	716.55		control-noreward	ImageDisplay2		0.0		
71	719.809		control-noreward	ChoiceDisplay	3	0.705	3	3
71	720.528		control-noreward	ChosenDisplay		0.0		
71	721.414		control-noreward	TurnDisplay				
71	721.665		control-noreward	OutcomeDisplay				
72	722.417		win-noreward	ImageDisplay1		0.0		
72	724.406		win-noreward	StartDisplay		0.0		
72	725.159		win-noreward	ImageDisplay2		0.0		
72	728.418		win-noreward	ChoiceDisplay	3	0.996	3	3
72	729.438		win-noreward	ChosenDisplay		0.0		
72	730.023		win-noreward	TurnDisplay				
72	730.274		win-noreward	OutcomeDisplay				
73	731.026		win-reward	ImageDisplay1		0.0		
73	733.266		win-reward	StartDisplay		0.0		
73	734.018		win-reward	ImageDisplay2		0.0		
73	737.027		win-reward	ChoiceDisplay	3	1.465	3	3
73	738.515		win-reward	ChosenDisplay		0.0		
73	738.632		win-reward	TurnDisplay				
73	738.883		win-reward	OutcomeDisplay				
74	739.635		control-reward	ImageDisplay1		0.0		
74	741.875		control-reward	StartDisplay		0.0		
74	742.627		control-reward	ImageDisplay2		0.0		
74	745.636		control-reward	ChoiceDisplay	3	0.756	3	3
74	746.405		control-reward	ChosenDisplay		0.0		
74	747.241		control-reward	TurnDisplay				
74	747.492		control-reward	OutcomeDisplay				
75	748.244		win-reward	ImageDisplay1		0.0		
75	750.484		win-reward	StartDisplay		0.0		
75	751.236		win-reward	ImageDisplay2		0.0		
75	754.245		win-reward	ChoiceDisplay	3	0.72	3	3
75	754.981		win-reward	ChosenDisplay		0.0		
75	755.85		win-reward	TurnDisplay				
75	756.101		win-reward	OutcomeDisplay				
76	756.853		win-noreward	ImageDisplay1		0.0		
76	758.842		win-noreward	StartDisplay		0.0		
76	759.594		win-noreward	ImageDisplay2		0.0		
76	762.854		win-noreward	ChoiceDisplay	3	0.277	3	3
76	763.155		win-noreward	ChosenDisplay		0.0		
76	764.459		win-noreward	TurnDisplay				
76	764.71		win-noreward	OutcomeDisplay				
77	765.462		win-noreward	ImageDisplay1		0.0		
77	767.451		win-noreward	StartDisplay		0.0		
77	768.203		win-noreward	ImageDisplay2		0.0		
77	771.463		win-noreward	ChoiceDisplay	3	0.536	3	3
77	772.015		win-noreward	ChosenDisplay		0.0		
77	773.068		win-noreward	TurnDisplay				
77	773.319		win-noreward	OutcomeDisplay				
78	774.071		loss-reward	ImageDisplay1		0.0		
78	776.311		loss-reward	StartDisplay		0.0		
78	777.063		loss-reward	ImageDisplay2		0.0		
78	780.072		loss-reward	ChoiceDisplay	3	0.512	3	3
78	780.607		loss-reward	ChosenDisplay		0.0		
78	781.677		loss-reward	TurnDisplay				
78	781.928		loss-reward	OutcomeDisplay				
79	782.68		win-noreward	ImageDisplay1		0.0		
79	784.669		win-noreward	StartDisplay		0.0		
79	785.421		win-noreward	ImageDisplay2		0.0		
79	788.681		win-noreward	ChoiceDisplay	3	0.903	3	3
79	789.6		win-noreward	ChosenDisplay		0.0		
79	790.286		win-noreward	TurnDisplay				
79	790.537		win-noreward	OutcomeDisplay				
80	791.289		loss-reward	ImageDisplay1		0.0		
80	793.529		loss-reward	StartDisplay		0.0		
80	794.281		loss-reward	ImageDisplay2		0.0		
80	797.29		loss-reward	ChoiceDisplay	3	0.68	3	3
80	797.992		loss-reward	ChosenDisplay		0.0		
80	798.895		loss-reward	TurnDisplay				
80	799.145		loss-reward	OutcomeDisplay				
81	799.898		win-reward	ImageDisplay1		0.0		
81	802.138		win-reward	StartDisplay		0.0		
81	802.89		win-reward	ImageDisplay2		0.0		
81	805.899		win-reward	ChoiceDisplay	3	0.483	3	3
81	806.4		win-reward	ChosenDisplay		0.0		
81	807.504		win-reward	TurnDisplay				
81	807.754		win-reward	OutcomeDisplay				
82	808.507		win-reward	ImageDisplay1		0.0		
82	810.747		win-reward	StartDisplay		0.0		
82	811.499		win-reward	ImageDisplay2		0.0		
82	814.508		win-reward	ChoiceDisplay	3	1.062	3	3
82	815.594		win-reward	ChosenDisplay		0.0		
82	816.113		win-reward	TurnDisplay				
82	816.363		win-reward	OutcomeDisplay				
83	817.116		control-noreward	ImageDisplay1		0.0		
83	819.105		control-noreward	StartDisplay		0.0		
83	819.857		control-noreward	ImageDisplay2		0.0		
83	823.117		control-noreward	ChoiceDisplay	3	0.772	3	3
83	823.903		control-noreward	ChosenDisplay		0.0		
83	824.722		control-noreward	TurnDisplay				
83	824.972		control-noreward	OutcomeDisplay				
84	825.725		control-reward	ImageDisplay1		0.0		
84	827.965		control-reward	StartDisplay		0.0		
84	828.717		control-reward	ImageDisplay2		0.0		
84	831.726		control-reward	ChoiceDisplay		0.0		
84	833.314		control-reward	ChosenDisplay		0.0		
84	833.331		control-reward	TurnDisplay				
84	833.565		control-reward	OutcomeDisplay				
85	834.317		loss-noreward	ImageDisplay1		0.0		
85	836.323		loss-noreward	StartDisplay		0.0		
85	837.075		loss-noreward	ImageDisplay2		0.0		
85	840.318		loss-noreward	ChoiceDisplay	3	1.13	3	3
85	841.472		loss-noreward	ChosenDisplay		0.0		
85	841.923		loss-noreward	TurnDisplay				
85	842.174		loss-noreward	OutcomeDisplay				
86	842.926		control-reward	ImageDisplay1		0.0		
86	845.166		control-reward	StartDisplay		0.0		
86	845.918		control-reward	ImageDisplay2		0.0		
86	848.927		control-reward	ChoiceDisplay		0.0		
86	850.515		control-reward	ChosenDisplay		0.0		
86	850.532		control-reward	TurnDisplay				
86	850.766		control-reward	OutcomeDisplay				
87	851.518		win-reward	ImageDisplay1		0.0		
87	853.775		win-reward	StartDisplay		0.0		
87	854.527		win-reward	ImageDisplay2		0.0		
87	857.519		win-reward	ChoiceDisplay	3	0.433	3	3
87	857.971		win-reward	ChosenDisplay		0.0		
87	859.124		win-reward	TurnDisplay				
87	859.375		win-reward	OutcomeDisplay				
88	860.127		loss-noreward	ImageDisplay1		0.0		
88	862.116		loss-noreward	StartDisplay		0.0		
88	862.869		loss-noreward	ImageDisplay2		0.0		
88	866.128		loss-noreward	ChoiceDisplay	3	0.536	3	3
88	866.68		loss-noreward	ChosenDisplay		0.0		
88	867.733		loss-noreward	TurnDisplay				
88	867.984		loss-noreward	OutcomeDisplay				
89	868.736		loss-reward	ImageDisplay1		0.0		
89	870.976		loss-reward	StartDisplay		0.0		
89	871.728		loss-reward	ImageDisplay2		0.0		
89	874.737		loss-reward	ChoiceDisplay	3	0.307	3	3
89	875.072		loss-reward	ChosenDisplay		0.0		
89	876.342		loss-reward	TurnDisplay				
89	876.593		loss-reward	OutcomeDisplay				
90	877.345		loss-reward	ImageDisplay1		0.0		
90	879.585		loss-reward	StartDisplay		0.0		
90	880.337		loss-reward	ImageDisplay2		0.0		
90	883.346		loss-reward	ChoiceDisplay	3	0.908	3	3
90	884.266		loss-reward	ChosenDisplay		0.0		
90	884.951		loss-reward	TurnDisplay				
90	885.202		loss-reward	OutcomeDisplay				
91	885.954		control-reward	ImageDisplay1		0.0		
91	888.194		control-reward	StartDisplay		0.0		
91	888.946		control-reward	ImageDisplay2		0.0		
91	891.955		control-reward	ChoiceDisplay	3	0.765	3	3
91	892.741		control-reward	ChosenDisplay		0.0		
91	893.56		control-reward	TurnDisplay				
91	893.811		control-reward	OutcomeDisplay				
92	894.563		control-reward	ImageDisplay1		0.0		
92	896.803		control-reward	StartDisplay		0.0		
92	897.555		control-reward	ImageDisplay2		0.0		
92	900.564		control-reward	ChoiceDisplay	3	0.762	3	3
92	901.35		control-reward	ChosenDisplay		0.0		
92	902.169		control-reward	TurnDisplay				
92	902.42		control-reward	OutcomeDisplay				
93	903.172		control-reward	ImageDisplay1		0.0		
93	905.412		control-reward	StartDisplay		0.0		
93	906.164		control-reward	ImageDisplay2		0.0		
93	909.173		control-reward	ChoiceDisplay	3	0.389	3	3
93	909.574		control-reward	ChosenDisplay		0.0		
93	910.778		control-reward	TurnDisplay				
93	911.029		control-reward	OutcomeDisplay				
94	911.781		win-reward	ImageDisplay1		0.0		
94	914.021		win-reward	StartDisplay		0.0		
94	914.773		win-reward	ImageDisplay2		0.0		
94	917.782		win-reward	ChoiceDisplay	3	0.962	3	3
94	918.768		win-reward	ChosenDisplay		0.0		
94	919.387		win-reward	TurnDisplay				
94	919.638		win-reward	OutcomeDisplay				
95	920.39		win-noreward	ImageDisplay1		0.0		
95	922.379		win-noreward	StartDisplay		0.0		
95	923.131		win-noreward	ImageDisplay2		0.0		
95	926.391		win-noreward	ChoiceDisplay	3	0.501	3	3
95	926.909		win-noreward	ChosenDisplay		0.0		
95	927.996		win-noreward	TurnDisplay				
95	928.247		win-noreward	OutcomeDisplay				
