onset	duration	trial_type	response_time	stim_file	accuracy
82.845	1.0	go	0.0	Go_X	0.0
85.436	1.0	go	0.642	Go_O	1.0
87.961	1.0	go	0.552	Go_X	1.0
90.485	1.0	go	0.477	Go_O	1.0
93.009	1.0	go	0.465	Go_O	1.0
95.533	1.0	go	0.477	Go_X	1.0
98.058	0.25	stop	0.0	Go_O	1.0
100.599	1.0	go	0.403	Go_X	1.0
103.123	0.3	stop	0.0	Go_X	1.0
105.647	1.0	go	0.493	Go_O	1.0
108.171	1.0	go	0.51	Go_X	1.0
110.695	1.0	go	0.497	Go_O	1.0
113.22	0.35	stop	0.299	Go_O	0.0
115.744	1.0	go	0.414	Go_X	1.0
118.268	1.0	go	0.468	Go_O	1.0
120.792	0.3	stop	0.0	Go_X	1.0
123.317	0.35	stop	0.442	Go_O	0.0
125.841	1.0	go	0.467	Go_X	1.0
128.365	1.0	go	0.384	Go_O	1.0
130.889	0.3	stop	0.0	Go_X	1.0
133.413	1.0	go	0.433	Go_O	1.0
135.938	1.0	go	0.452	Go_X	1.0
138.462	0.35	stop	0.0	Go_O	1.0
140.986	1.0	go	0.642	Go_X	1.0
143.51	1.0	go	0.557	Go_O	1.0
146.035	0.4	stop	0.368	Go_X	0.0
148.576	1.0	go	0.395	Go_O	1.0
151.1	1.0	go	0.67	Go_X	1.0
153.624	0.35	stop	0.318	Go_O	0.0
156.148	1.0	go	0.496	Go_O	1.0
158.672	1.0	go	0.484	Go_X	1.0
161.197	1.0	go	0.476	Go_O	1.0
163.721	1.0	go	0.431	Go_X	1.0
166.245	1.0	go	0.501	Go_X	1.0
168.769	0.3	stop	0.393	Go_X	0.0
171.294	1.0	go	0.448	Go_O	1.0
173.818	1.0	go	0.461	Go_O	1.0
176.359	1.0	go	0.538	Go_X	1.0
178.883	1.0	go	0.834	Go_X	1.0
181.407	1.0	go	0.432	Go_O	1.0
183.931	0.25	stop	0.0	Go_O	1.0
186.456	1.0	go	0.417	Go_X	1.0
188.98	1.0	go	0.381	Go_O	1.0
191.504	1.0	go	0.504	Go_X	1.0
194.028	1.0	go	0.513	Go_O	1.0
196.553	1.0	go	0.474	Go_O	1.0
199.077	1.0	go	0.681	Go_X	0.0
201.601	0.3	stop	0.0	Go_X	1.0
204.125	1.0	go	0.586	Go_O	1.0
206.649	1.0	go	0.697	Go_X	1.0
209.174	0.35	stop	0.507	Go_O	0.0
211.698	1.0	go	0.39	Go_X	1.0
214.222	0.3	stop	0.0	Go_X	1.0
216.746	0.35	stop	0.98	Go_O	0.0
219.271	1.0	go	0.378	Go_O	1.0
221.795	1.0	go	0.496	Go_X	1.0
224.319	1.0	go	0.539	Go_O	1.0
226.843	1.0	go	0.573	Go_X	1.0
229.367	0.3	stop	0.498	Go_X	0.0
231.892	1.0	go	0.882	Go_O	1.0
234.416	0.25	stop	0.36	Go_O	0.0
236.94	1.0	go	0.42	Go_X	1.0
239.464	1.0	go	0.638	Go_O	1.0
241.989	1.0	go	0.474	Go_X	1.0
244.513	1.0	go	0.418	Go_O	1.0
247.037	1.0	go	0.662	Go_O	1.0
249.561	1.0	go	0.868	Go_X	1.0
252.085	1.0	go	0.44	Go_O	1.0
254.61	1.0	go	0.469	Go_X	1.0
257.134	1.0	go	0.493	Go_X	1.0
259.658	0.2	stop	0.0	Go_X	1.0
262.182	1.0	go	0.514	Go_O	1.0
264.707	1.0	go	0.598	Go_X	1.0
267.231	1.0	go	0.822	Go_O	1.0
269.755	0.25	stop	0.0	Go_O	1.0
272.279	1.0	go	0.513	Go_O	1.0
274.803	1.0	go	0.435	Go_X	1.0
277.328	1.0	go	0.494	Go_O	1.0
279.852	1.0	go	0.536	Go_X	1.0
282.376	1.0	go	0.48	Go_X	1.0
284.9	1.0	go	0.474	Go_O	0.0
287.425	0.3	stop	0.408	Go_X	0.0
289.966	1.0	go	0.405	Go_O	1.0
292.49	1.0	go	0.509	Go_X	1.0
295.014	0.25	stop	0.466	Go_O	0.0
297.538	1.0	go	0.332	Go_X	1.0
300.062	1.0	go	0.452	Go_O	1.0
302.587	0.2	stop	0.0	Go_X	1.0
305.111	1.0	go	0.659	Go_O	1.0
307.635	0.25	stop	0.0	Go_O	1.0
310.159	1.0	go	0.409	Go_X	1.0
312.684	1.0	go	0.548	Go_O	1.0
315.208	1.0	go	0.384	Go_X	1.0
317.732	1.0	go	0.0	Go_X	0.0
320.256	1.0	go	0.394	Go_O	1.0
322.78	0.3	stop	0.966	Go_X	0.0
325.305	0.25	stop	0.0	Go_O	1.0
327.829	1.0	go	0.44	Go_X	1.0
330.353	1.0	go	0.437	Go_O	1.0
332.877	0.3	stop	0.399	Go_X	0.0
335.402	1.0	go	0.626	Go_X	1.0
337.926	1.0	go	0.366	Go_O	1.0
340.467	1.0	go	0.358	Go_X	1.0
342.991	1.0	go	0.469	Go_O	1.0
345.515	1.0	go	0.381	Go_O	1.0
348.039	1.0	go	0.439	Go_X	1.0
350.564	0.25	stop	0.48	Go_O	0.0
353.105	1.0	go	0.436	Go_X	1.0
355.646	1.0	go	0.703	Go_O	1.0
358.17	1.0	go	0.433	Go_X	1.0
360.694	1.0	go	0.592	Go_O	1.0
363.218	1.0	go	0.714	Go_O	1.0
365.759	0.2	stop	0.0	Go_X	1.0
368.283	1.0	go	0.677	Go_X	1.0
370.808	1.0	go	0.548	Go_O	1.0
373.349	1.0	go	0.554	Go_X	1.0
375.889	1.0	go	0.471	Go_O	1.0
378.414	0.25	stop	0.0	Go_O	1.0
380.955	1.0	go	0.0	Go_X	0.0
383.496	1.0	go	0.938	Go_X	1.0
386.02	0.3	stop	0.303	Go_X	0.0
388.561	1.0	go	0.713	Go_O	1.0
391.085	0.25	stop	0.0	Go_O	1.0
393.626	1.0	go	0.42	Go_O	1.0
396.15	1.0	go	0.0	Go_X	0.0
398.674	1.0	go	0.439	Go_O	1.0
401.199	1.0	go	0.391	Go_X	1.0
403.74	1.0	go	0.525	Go_X	1.0
406.264	1.0	go	0.446	Go_O	1.0
408.805	1.0	go	0.0	Go_O	0.0
411.329	0.3	stop	0.512	Go_X	0.0
413.853	1.0	go	0.0	Go_X	0.0
416.377	1.0	go	0.542	Go_O	1.0
418.918	1.0	go	0.0	Go_X	0.0
421.443	0.25	stop	0.0	Go_O	1.0
423.983	1.0	go	0.0	Go_X	0.0
426.524	1.0	go	0.501	Go_O	1.0
429.065	1.0	go	0.58	Go_X	1.0
431.59	1.0	go	0.0	Go_O	0.0
434.114	0.3	stop	0.453	Go_X	0.0
436.655	1.0	go	0.0	Go_X	0.0
439.196	1.0	go	0.504	Go_O	1.0
441.72	0.25	stop	0.0	Go_O	1.0
444.261	1.0	go	0.393	Go_X	1.0
446.785	1.0	go	0.471	Go_O	1.0
449.326	0.3	stop	0.0	Go_X	1.0
451.85	1.0	go	0.578	Go_X	1.0
454.391	1.0	go	0.484	Go_O	1.0
456.915	0.35	stop	0.67	Go_O	0.0
459.456	1.0	go	0.445	Go_O	1.0
461.997	1.0	go	0.448	Go_X	0.0
464.522	1.0	go	0.454	Go_O	1.0
467.063	1.0	go	0.517	Go_X	0.0
469.587	1.0	go	0.53	Go_O	0.0
472.128	1.0	go	0.0	Go_X	0.0
474.652	0.3	stop	0.452	Go_X	0.0
477.176	1.0	go	0.479	Go_X	1.0
479.7	0.25	stop	0.0	Go_O	1.0
482.225	1.0	go	0.613	Go_O	1.0
484.749	1.0	go	0.98	Go_X	1.0
487.273	1.0	go	0.519	Go_O	1.0
489.797	1.0	go	0.0	Go_X	0.0
492.338	1.0	go	0.39	Go_O	1.0
494.862	0.3	stop	0.583	Go_X	0.0
497.387	1.0	go	0.439	Go_X	1.0
499.928	1.0	go	0.634	Go_O	1.0
502.452	1.0	go	0.491	Go_X	1.0
504.976	0.25	stop	0.0	Go_O	1.0
507.517	0.3	stop	0.0	Go_X	1.0
510.058	0.35	stop	0.0	Go_O	1.0
512.599	1.0	go	0.482	Go_O	1.0
515.123	0.4	stop	0.405	Go_X	0.0
517.664	1.0	go	0.563	Go_X	1.0
520.188	1.0	go	0.511	Go_O	1.0
522.712	1.0	go	0.542	Go_X	1.0
525.253	1.0	go	0.0	Go_O	0.0
527.778	1.0	go	0.0	Go_O	0.0
530.319	1.0	go	0.469	Go_X	1.0
532.843	1.0	go	0.415	Go_X	1.0
535.384	1.0	go	0.605	Go_O	1.0
537.927	0.35	stop	0.0	Go_O	1.0
540.482	1.0	go	0.0	Go_X	0.0
543.007	1.0	go	0.362	Go_O	1.0
545.531	0.4	stop	0.0	Go_X	1.0
548.055	1.0	go	0.602	Go_X	1.0
550.579	1.0	go	0.0	Go_O	0.0
553.12	1.0	go	0.413	Go_X	1.0
555.661	1.0	go	0.0	Go_O	0.0
558.185	1.0	go	0.829	Go_X	1.0
560.71	0.45	stop	0.0	Go_O	1.0
563.251	1.0	go	0.0	Go_O	0.0
565.775	1.0	go	0.512	Go_X	1.0
568.299	1.0	go	0.564	Go_O	1.0
570.823	0.5	stop	0.0	Go_X	1.0
573.347	1.0	go	0.382	Go_O	1.0
575.872	0.55	stop	0.0	Go_O	1.0
578.413	1.0	go	0.473	Go_X	1.0
580.953	1.0	go	0.0	Go_O	0.0
583.478	1.0	go	0.0	Go_X	0.0
586.002	1.0	go	0.415	Go_O	1.0
588.526	1.0	go	0.357	Go_X	1.0
591.05	1.0	go	0.437	Go_X	1.0
593.575	1.0	go	0.0	Go_O	0.0
596.099	0.6	stop	0.0	Go_X	1.0
598.64	1.0	go	0.503	Go_X	1.0
601.164	1.0	go	0.0	Go_O	0.0
603.688	1.0	go	0.0	Go_O	0.0
606.212	1.0	go	0.0	Go_X	0.0
608.737	0.65	stop	0.0	Go_O	1.0
611.278	1.0	go	0.751	Go_O	1.0
613.802	0.7	stop	0.428	Go_X	0.0
616.326	1.0	go	0.443	Go_X	1.0
618.85	1.0	go	0.445	Go_O	1.0
621.375	0.65	stop	0.555	Go_O	0.0
623.915	1.0	go	0.311	Go_X	1.0
626.44	1.0	go	0.0	Go_O	0.0
628.981	1.0	go	0.439	Go_X	1.0
631.505	1.0	go	0.0	Go_X	0.0
634.046	1.0	go	0.503	Go_O	1.0
636.57	1.0	go	0.0	Go_O	0.0
639.094	1.0	go	0.591	Go_X	1.0
641.635	1.0	go	0.0	Go_X	0.0
644.159	1.0	go	0.291	Go_O	1.0
646.684	1.0	go	0.0	Go_X	0.0
649.225	0.6	stop	0.511	Go_X	0.0
651.766	1.0	go	0.41	Go_O	1.0
654.29	1.0	go	0.0	Go_X	0.0
656.831	0.55	stop	0.536	Go_O	0.0
659.372	1.0	go	0.0	Go_O	0.0
661.913	0.5	stop	0.626	Go_X	0.0
664.453	1.0	go	0.399	Go_O	1.0
666.978	1.0	go	0.74	Go_X	1.0
669.502	0.45	stop	0.407	Go_O	0.0
672.043	1.0	go	0.337	Go_X	1.0
674.567	0.4	stop	0.478	Go_X	0.0
677.093	1.0	go	0.747	Go_O	1.0
679.616	1.0	go	0.624	Go_O	1.0
682.14	1.0	go	0.265	Go_X	0.0
684.681	0.35	stop	0.484	Go_O	0.0
687.222	1.0	go	0.611	Go_O	1.0
689.763	1.0	go	0.392	Go_X	1.0
692.304	1.0	go	0.366	Go_X	1.0
694.828	1.0	go	0.486	Go_O	1.0
697.369	0.3	stop	0.396	Go_X	0.0
699.91	1.0	go	0.664	Go_O	1.0
702.451	1.0	go	0.421	Go_X	1.0
704.975	0.25	stop	0.538	Go_O	0.0
707.516	1.0	go	0.583	Go_X	1.0
710.057	1.0	go	0.699	Go_O	1.0
712.581	1.0	go	0.583	Go_X	1.0
715.122	1.0	go	0.619	Go_O	0.0
717.646	0.2	stop	0.0	Go_X	1.0
720.17	1.0	go	0.653	Go_O	1.0
722.695	0.25	stop	0.0	Go_O	1.0
725.236	1.0	go	0.55	Go_X	1.0
727.76	1.0	go	0.518	Go_X	0.0
730.284	0.3	stop	0.447	Go_X	0.0
732.808	1.0	go	0.524	Go_O	1.0
735.332	1.0	go	0.41	Go_X	1.0
737.857	1.0	go	0.36	Go_O	1.0
740.381	1.0	go	0.777	Go_X	1.0
742.922	0.25	stop	0.0	Go_O	1.0
745.446	1.0	go	0.58	Go_O	1.0
747.97	0.3	stop	0.0	Go_X	1.0
750.494	1.0	go	0.561	Go_X	1.0
753.019	1.0	go	0.924	Go_O	1.0
755.543	1.0	go	0.576	Go_X	1.0
758.067	1.0	go	0.544	Go_O	1.0
760.591	1.0	go	0.935	Go_O	1.0
763.116	1.0	go	0.537	Go_X	1.0
765.64	0.35	stop	0.0	Go_O	1.0
768.164	1.0	go	0.423	Go_X	1.0
770.688	1.0	go	0.274	Go_O	1.0
773.212	0.4	stop	0.0	Go_X	1.0
775.753	1.0	go	0.744	Go_X	1.0
778.278	1.0	go	0.0	Go_O	0.0
780.802	0.45	stop	0.0	Go_O	1.0
783.326	1.0	go	0.465	Go_X	1.0
785.867	1.0	go	0.803	Go_O	1.0
788.408	1.0	go	0.0	Go_O	0.0
790.932	1.0	go	0.371	Go_X	1.0
793.456	0.5	stop	0.667	Go_X	0.0
795.981	1.0	go	0.536	Go_O	1.0
798.505	0.45	stop	0.0	Go_O	1.0
801.029	1.0	go	0.551	Go_X	1.0
803.554	1.0	go	0.0	Go_X	0.0
806.078	1.0	go	0.905	Go_O	0.0
808.618	1.0	go	0.513	Go_O	1.0
811.143	1.0	go	0.365	Go_X	1.0
813.667	0.5	stop	0.416	Go_X	0.0
816.191	1.0	go	0.269	Go_O	1.0
818.715	1.0	go	0.374	Go_X	1.0
821.24	0.45	stop	0.302	Go_O	0.0
823.764	0.4	stop	0.306	Go_X	0.0
826.305	1.0	go	0.344	Go_X	1.0
828.829	1.0	go	0.813	Go_O	1.0
831.353	1.0	go	0.622	Go_X	1.0
833.878	1.0	go	0.0	Go_O	0.0
836.402	0.35	stop	0.463	Go_O	0.0
838.926	1.0	go	0.438	Go_O	1.0
