onset	duration	trial_type	response_time	stim_file	accuracy
99.015	1.0	go	0.0	Go_X	0.0
101.539	1.0	go	0.409	Go_O	1.0
104.063	1.0	go	0.328	Go_X	1.0
106.588	1.0	go	0.362	Go_O	1.0
109.112	1.0	go	0.744	Go_X	1.0
111.636	1.0	go	0.652	Go_O	1.0
114.16	0.25	stopsuccess	0.0	Go_O	1.0
116.684	1.0	go	0.542	Go_X	1.0
119.208	0.3	stopfail	0.594	Go_X	0.0
121.733	1.0	go	0.526	Go_O	1.0
124.257	1.0	go	0.605	Go_O	1.0
126.781	1.0	go	0.542	Go_X	1.0
129.305	0.25	stopsuccess	0.0	Go_O	1.0
131.829	1.0	go	0.471	Go_X	1.0
134.353	1.0	go	0.375	Go_O	1.0
136.878	0.3	stopsuccess	0.0	Go_X	1.0
139.402	0.35	stopfail	0.402	Go_O	0.0
141.926	1.0	go	0.576	Go_X	1.0
144.45	1.0	go	0.367	Go_O	1.0
146.974	0.3	stopsuccess	0.0	Go_X	1.0
149.498	1.0	go	0.79	Go_O	0.0
152.023	1.0	go	0.592	Go_X	1.0
154.547	0.35	stopfail	0.494	Go_O	0.0
157.071	1.0	go	0.927	Go_X	1.0
159.595	1.0	go	0.439	Go_O	1.0
162.119	0.3	stopfail	0.39	Go_X	0.0
164.644	1.0	go	0.562	Go_X	1.0
167.168	1.0	go	0.361	Go_O	1.0
169.692	0.25	stopsuccess	0.0	Go_O	1.0
172.216	1.0	go	0.334	Go_O	1.0
174.74	1.0	go	0.634	Go_X	1.0
177.264	1.0	go	0.435	Go_X	1.0
179.789	1.0	go	0.416	Go_O	1.0
182.313	1.0	go	0.486	Go_O	1.0
184.837	0.3	stopsuccess	0.0	Go_X	1.0
187.361	1.0	go	0.574	Go_X	1.0
189.885	1.0	go	0.819	Go_O	1.0
192.409	1.0	go	0.427	Go_X	1.0
194.934	1.0	go	0.516	Go_X	1.0
197.458	1.0	go	0.351	Go_O	1.0
199.982	0.35	stopfail	0.433	Go_O	0.0
202.506	1.0	go	0.503	Go_O	1.0
205.03	1.0	go	0.383	Go_X	1.0
207.554	1.0	go	0.506	Go_O	1.0
210.079	1.0	go	0.58	Go_X	1.0
212.603	1.0	go	0.734	Go_O	1.0
215.127	1.0	go	0.427	Go_X	1.0
217.651	0.3	stopfail	0.45	Go_X	0.0
220.175	1.0	go	0.47	Go_X	1.0
222.699	1.0	go	0.602	Go_O	1.0
225.224	0.25	stopsuccess	0.0	Go_O	1.0
227.748	1.0	go	0.791	Go_O	1.0
230.272	0.3	stopfail	0.358	Go_X	0.0
232.796	0.25	stopfail	0.358	Go_O	0.0
235.32	1.0	go	0.746	Go_X	1.0
237.844	1.0	go	0.411	Go_O	1.0
240.369	1.0	go	0.569	Go_X	0.0
242.893	1.0	go	0.382	Go_O	1.0
245.417	0.2	stopfail	0.299	Go_X	0.0
247.941	1.0	go	0.69	Go_X	1.0
250.465	0.15	stopsuccess	0.0	Go_O	1.0
252.99	1.0	go	0.59	Go_O	1.0
255.514	1.0	go	0.327	Go_X	1.0
258.038	1.0	go	0.711	Go_X	1.0
260.562	1.0	go	0.459	Go_O	1.0
263.086	1.0	go	0.881	Go_X	1.0
265.61	1.0	go	0.0	Go_O	0.0
268.135	1.0	go	0.518	Go_O	1.0
270.659	1.0	go	0.423	Go_X	1.0
273.183	1.0	go	0.418	Go_O	1.0
275.707	0.2	stopsuccess	0.0	Go_X	1.0
278.231	1.0	go	0.573	Go_X	1.0
280.755	1.0	go	0.49	Go_O	1.0
283.28	1.0	go	0.571	Go_X	1.0
285.82	0.25	stopfail	0.35	Go_O	0.0
288.345	1.0	go	0.705	Go_O	1.0
290.869	1.0	go	0.497	Go_X	1.0
293.393	1.0	go	0.537	Go_O	1.0
295.917	1.0	go	0.464	Go_X	1.0
298.441	1.0	go	0.31	Go_O	1.0
300.965	1.0	go	0.442	Go_X	1.0
303.49	0.2	stopsuccess	0.0	Go_X	1.0
306.014	1.0	go	0.38	Go_X	1.0
308.538	1.0	go	0.345	Go_O	1.0
311.062	0.25	stopfail	0.362	Go_O	0.0
313.586	1.0	go	0.478	Go_O	1.0
316.111	1.0	go	0.417	Go_X	1.0
318.635	0.2	stopsuccess	0.0	Go_X	1.0
321.159	1.0	go	0.481	Go_O	1.0
323.683	0.25	stopfail	0.4	Go_O	0.0
326.207	1.0	go	0.523	Go_X	1.0
328.731	1.0	go	0.498	Go_O	1.0
331.256	1.0	go	0.448	Go_X	1.0
333.78	1.0	go	0.773	Go_X	1.0
336.304	1.0	go	0.528	Go_O	1.0
338.828	0.2	stopsuccess	0.0	Go_X	1.0
341.352	0.25	stopsuccess	0.0	Go_O	1.0
343.876	1.0	go	0.383	Go_X	1.0
346.401	1.0	go	0.295	Go_O	1.0
348.925	0.3	stopfail	0.385	Go_X	0.0
351.449	1.0	go	0.602	Go_X	1.0
353.973	1.0	go	0.298	Go_O	1.0
356.497	1.0	go	0.506	Go_O	1.0
359.021	1.0	go	0.475	Go_X	1.0
361.546	1.0	go	0.305	Go_O	1.0
364.07	1.0	go	0.0	Go_X	0.0
366.594	0.25	stopfail	0.608	Go_O	0.0
369.118	1.0	go	0.466	Go_O	1.0
371.642	1.0	go	0.311	Go_X	1.0
374.166	1.0	go	0.371	Go_O	1.0
376.691	1.0	go	0.379	Go_X	1.0
379.215	1.0	go	0.513	Go_O	1.0
381.739	0.2	stopfail	0.385	Go_X	0.0
384.263	1.0	go	0.613	Go_X	1.0
386.787	1.0	go	0.387	Go_X	1.0
389.312	1.0	go	0.392	Go_O	1.0
391.836	1.0	go	0.533	Go_O	1.0
394.36	0.15	stopsuccess	0.0	Go_O	1.0
396.884	1.0	go	0.476	Go_X	1.0
399.408	1.0	go	0.67	Go_X	1.0
401.932	0.2	stopsuccess	0.0	Go_X	1.0
404.457	1.0	go	0.377	Go_O	1.0
406.981	0.25	stopsuccess	0.0	Go_O	1.0
409.505	1.0	go	0.701	Go_O	1.0
412.029	1.0	go	0.478	Go_X	1.0
414.553	1.0	go	0.308	Go_X	1.0
417.077	1.0	go	0.447	Go_O	1.0
419.602	1.0	go	0.372	Go_X	1.0
422.126	1.0	go	0.774	Go_O	1.0
424.65	1.0	go	0.486	Go_X	1.0
427.174	0.3	stopfail	0.446	Go_X	0.0
429.698	1.0	go	0.398	Go_O	1.0
432.222	1.0	go	0.575	Go_X	1.0
434.747	1.0	go	0.65	Go_O	0.0
437.271	0.25	stopfail	0.436	Go_O	0.0
439.795	1.0	go	0.377	Go_O	1.0
442.319	1.0	go	0.539	Go_X	1.0
444.843	1.0	go	0.412	Go_X	1.0
447.367	1.0	go	0.368	Go_O	0.0
449.892	0.2	stopsuccess	0.0	Go_X	1.0
452.416	1.0	go	0.445	Go_X	1.0
454.94	1.0	go	0.369	Go_O	1.0
457.464	0.25	stopfail	0.287	Go_O	0.0
459.988	1.0	go	0.567	Go_X	1.0
462.512	1.0	go	0.596	Go_O	1.0
465.037	0.2	stopsuccess	0.0	Go_X	1.0
467.561	1.0	go	0.368	Go_X	1.0
470.085	1.0	go	0.413	Go_O	1.0
472.609	0.25	stopsuccess	0.0	Go_O	1.0
475.133	1.0	go	0.612	Go_X	1.0
477.658	1.0	go	0.476	Go_O	1.0
480.182	1.0	go	0.381	Go_X	1.0
482.706	1.0	go	0.413	Go_O	1.0
485.23	1.0	go	0.417	Go_X	1.0
487.754	1.0	go	0.408	Go_O	1.0
490.278	0.3	stopfail	0.352	Go_X	0.0
492.803	1.0	go	0.405	Go_X	1.0
495.327	0.25	stopfail	0.378	Go_O	0.0
497.851	1.0	go	0.41	Go_O	1.0
500.375	1.0	go	0.352	Go_O	1.0
502.899	1.0	go	0.507	Go_X	1.0
505.423	1.0	go	0.357	Go_O	1.0
507.948	1.0	go	0.494	Go_X	1.0
510.472	0.2	stopsuccess	0.0	Go_X	1.0
512.996	1.0	go	0.382	Go_O	1.0
515.52	1.0	go	0.478	Go_X	1.0
518.044	1.0	go	0.446	Go_O	1.0
520.568	0.25	stopfail	0.53	Go_O	0.0
523.093	0.2	stopfail	0.361	Go_X	0.0
525.617	0.15	stopsuccess	0.0	Go_O	1.0
528.141	1.0	go	0.553	Go_X	1.0
530.665	0.2	stopsuccess	0.0	Go_X	1.0
533.189	1.0	go	0.56	Go_X	1.0
535.713	1.0	go	0.344	Go_O	1.0
538.238	1.0	go	0.702	Go_O	1.0
540.762	1.0	go	0.451	Go_X	1.0
543.286	1.0	go	0.0	Go_X	0.0
545.81	1.0	go	0.446	Go_O	1.0
548.334	1.0	go	0.241	Go_X	1.0
550.859	1.0	go	0.438	Go_O	1.0
553.383	0.25	stopfail	0.423	Go_O	0.0
555.907	1.0	go	0.926	Go_X	1.0
558.431	1.0	go	0.466	Go_O	1.0
560.955	0.2	stopsuccess	0.0	Go_X	1.0
563.479	1.0	go	0.582	Go_O	1.0
566.004	1.0	go	0.422	Go_X	1.0
568.528	1.0	go	0.41	Go_O	1.0
571.052	1.0	go	0.459	Go_X	1.0
573.576	1.0	go	0.49	Go_X	1.0
576.1	0.25	stopsuccess	0.0	Go_O	1.0
578.624	1.0	go	0.796	Go_O	1.0
581.149	1.0	go	0.486	Go_O	1.0
583.673	1.0	go	0.704	Go_X	1.0
586.197	0.3	stopfail	0.424	Go_X	0.0
588.721	1.0	go	0.368	Go_O	1.0
591.245	0.25	stopsuccess	0.0	Go_O	1.0
593.769	1.0	go	0.784	Go_X	0.0
596.294	1.0	go	0.701	Go_X	1.0
598.818	1.0	go	0.487	Go_O	1.0
601.342	1.0	go	0.265	Go_X	1.0
603.866	1.0	go	0.558	Go_O	1.0
606.39	1.0	go	0.34	Go_X	1.0
608.914	1.0	go	0.523	Go_O	1.0
611.439	0.3	stopfail	0.376	Go_X	0.0
613.963	1.0	go	0.581	Go_X	1.0
616.487	1.0	go	0.478	Go_O	1.0
619.011	1.0	go	0.526	Go_O	1.0
621.535	1.0	go	0.533	Go_X	1.0
624.059	0.25	stopsuccess	0.0	Go_O	1.0
626.584	1.0	go	0.382	Go_O	1.0
629.108	0.3	stopfail	0.595	Go_X	0.0
631.632	1.0	go	0.465	Go_X	1.0
634.156	1.0	go	0.409	Go_X	1.0
636.68	0.25	stopsuccess	0.0	Go_O	1.0
639.205	1.0	go	0.804	Go_O	1.0
641.729	1.0	go	0.633	Go_O	1.0
644.253	1.0	go	0.814	Go_X	1.0
646.777	1.0	go	0.506	Go_X	1.0
649.301	1.0	go	0.585	Go_O	1.0
651.825	1.0	go	0.531	Go_O	1.0
654.35	1.0	go	0.0	Go_X	0.0
656.874	1.0	go	0.606	Go_X	1.0
659.398	1.0	go	0.477	Go_O	1.0
661.922	1.0	go	0.682	Go_O	1.0
664.446	0.3	stopsuccess	0.0	Go_X	1.0
666.97	1.0	go	0.953	Go_X	0.0
669.495	1.0	go	0.572	Go_X	1.0
672.019	0.35	stopfail	0.624	Go_O	0.0
674.543	1.0	go	0.577	Go_O	1.0
677.067	0.3	stopsuccess	0.0	Go_X	1.0
679.591	1.0	go	0.507	Go_X	1.0
682.115	1.0	go	0.433	Go_O	1.0
684.64	0.35	stopfail	0.403	Go_O	0.0
687.164	1.0	go	0.565	Go_O	1.0
689.688	0.3	stopsuccess	0.0	Go_X	1.0
692.212	1.0	go	0.739	Go_X	0.0
694.736	1.0	go	0.619	Go_X	1.0
697.26	1.0	go	0.451	Go_O	1.0
699.785	0.35	stopfail	0.456	Go_O	0.0
702.309	1.0	go	0.806	Go_X	0.0
704.833	1.0	go	0.589	Go_O	1.0
707.357	1.0	go	0.688	Go_X	1.0
709.881	1.0	go	0.0	Go_O	0.0
712.405	0.3	stopsuccess	0.0	Go_X	1.0
714.93	1.0	go	0.558	Go_O	1.0
717.454	1.0	go	0.578	Go_X	1.0
719.978	0.35	stopfail	0.673	Go_O	0.0
722.502	1.0	go	0.0	Go_O	0.0
725.026	1.0	go	0.601	Go_X	1.0
727.551	1.0	go	0.456	Go_X	1.0
730.075	1.0	go	0.44	Go_O	1.0
732.599	0.3	stopsuccess	0.0	Go_X	1.0
735.123	1.0	go	0.552	Go_X	1.0
737.647	0.35	stopfail	0.401	Go_O	0.0
740.171	1.0	go	0.0	Go_O	0.0
742.712	1.0	go	0.491	Go_X	1.0
745.236	0.3	stopsuccess	0.0	Go_X	1.0
747.761	1.0	go	0.428	Go_O	1.0
750.285	1.0	go	0.506	Go_O	1.0
752.809	1.0	go	0.456	Go_X	1.0
755.333	1.0	go	0.486	Go_X	1.0
757.857	0.35	stopfail	0.487	Go_O	0.0
760.381	1.0	go	0.53	Go_O	1.0
762.906	0.3	stopfail	0.376	Go_X	0.0
765.43	1.0	go	0.553	Go_O	1.0
767.954	1.0	go	0.578	Go_X	1.0
770.478	1.0	go	0.294	Go_O	1.0
773.002	1.0	go	0.425	Go_X	1.0
775.526	1.0	go	0.583	Go_X	1.0
778.051	1.0	go	0.558	Go_O	1.0
780.575	0.25	stopsuccess	0.0	Go_O	1.0
783.099	1.0	go	0.511	Go_X	1.0
785.623	1.0	go	0.482	Go_O	1.0
788.147	0.3	stopsuccess	0.0	Go_X	1.0
790.672	1.0	go	0.545	Go_O	1.0
793.196	1.0	go	0.345	Go_X	1.0
795.72	0.35	stopfail	0.306	Go_O	0.0
798.244	1.0	go	0.686	Go_O	1.0
800.768	1.0	go	0.522	Go_X	1.0
803.292	1.0	go	0.0	Go_X	0.0
805.817	1.0	go	0.463	Go_O	1.0
808.341	0.3	stopfail	0.622	Go_X	0.0
810.865	1.0	go	0.475	Go_X	1.0
813.389	0.25	stopfail	0.439	Go_O	0.0
815.913	1.0	go	0.581	Go_O	1.0
818.437	1.0	go	0.646	Go_X	1.0
820.962	1.0	go	0.616	Go_O	1.0
823.486	1.0	go	0.391	Go_O	1.0
826.01	1.0	go	0.525	Go_X	1.0
828.534	0.2	stopsuccess	0.0	Go_X	1.0
831.058	1.0	go	0.62	Go_O	1.0
833.582	1.0	go	0.599	Go_X	1.0
836.107	0.25	stopsuccess	0.0	Go_O	1.0
838.631	0.3	stopfail	0.549	Go_X	0.0
841.155	1.0	go	0.379	Go_O	0.0
843.679	1.0	go	0.332	Go_X	1.0
846.203	1.0	go	0.749	Go_X	0.0
848.727	1.0	go	0.648	Go_O	1.0
851.252	0.25	stopfail	0.445	Go_O	0.0
853.776	1.0	go	0.448	Go_O	1.0
