frame	onset	duration	trial_type	event_type	response_type	response_time	stim_file	accuracy
0	70.652		loss-noreward	ImageDisplay1		0.0		
0	72.641	0.75	loss-noreward	StartDisplay				
0	73.394		loss-noreward	ImageDisplay2		0.0		
0	76.637	1.6	loss-noreward	ChoiceDisplay	1	1.265	1	1
0	77.924	0.335	loss-noreward	ChosenDisplay		0.0		
0	78.241	0.25	loss-noreward	TurnDisplay				
0	78.492	0.75	loss-noreward	OutcomeDisplay				
1	79.244		control-reward	ImageDisplay1		0.0		
1	81.234	0.75	control-reward	StartDisplay				
1	81.986		control-reward	ImageDisplay2		0.0		
1	85.246	1.6	control-reward	ChoiceDisplay	1	0.971	1	1
1	86.232	0.629	control-reward	ChosenDisplay		0.0		
1	86.85	0.25	control-reward	TurnDisplay				
1	87.101	0.75	control-reward	OutcomeDisplay				
2	87.853		win-reward	ImageDisplay1		0.0		
2	89.843	0.75	win-reward	StartDisplay				
2	90.595		win-reward	ImageDisplay2		0.0		
2	93.854	1.6	win-reward	ChoiceDisplay	1	1.33	1	1
2	95.208	0.27	win-reward	ChosenDisplay		0.0		
2	95.459	0.25	win-reward	TurnDisplay				
2	95.71	0.75	win-reward	OutcomeDisplay				
3	96.462		loss-reward	ImageDisplay1		0.0		
3	98.702	0.75	loss-reward	StartDisplay				
3	99.454		loss-reward	ImageDisplay2		0.0		
3	102.463	1.6	loss-reward	ChoiceDisplay	1	1.145	1	1
3	103.633	0.455	loss-reward	ChosenDisplay		0.0		
3	104.068	0.25	loss-reward	TurnDisplay				
3	104.319	0.75	loss-reward	OutcomeDisplay				
4	105.071		control-reward	ImageDisplay1		0.0		
4	107.311	0.75	control-reward	StartDisplay				
4	108.063		control-reward	ImageDisplay2		0.0		
4	111.072	1.6	control-reward	ChoiceDisplay	1	1.116	1	1
4	112.209	0.484	control-reward	ChosenDisplay		0.0		
4	112.677	0.25	control-reward	TurnDisplay				
4	112.928	0.75	control-reward	OutcomeDisplay				
5	113.68		control-noreward	ImageDisplay1		0.0		
5	115.669	0.75	control-noreward	StartDisplay				
5	116.421		control-noreward	ImageDisplay2		0.0		
5	119.681	1.6	control-noreward	ChoiceDisplay	1	1.204	1	1
5	120.901	0.396	control-noreward	ChosenDisplay		0.0		
5	121.286	0.25	control-noreward	TurnDisplay				
5	121.537	0.75	control-noreward	OutcomeDisplay				
6	122.289		loss-reward	ImageDisplay1		0.0		
6	124.529	0.75	loss-reward	StartDisplay				
6	125.281		loss-reward	ImageDisplay2		0.0		
6	128.29	1.6	loss-reward	ChoiceDisplay	1	1.304	1	1
6	129.611	0.296	loss-reward	ChosenDisplay		0.0		
6	129.895	0.25	loss-reward	TurnDisplay				
6	130.146	0.75	loss-reward	OutcomeDisplay				
7	130.898		win-noreward	ImageDisplay1		0.0		
7	132.887	0.75	win-noreward	StartDisplay				
7	133.639		win-noreward	ImageDisplay2		0.0		
7	136.899	1.6	win-noreward	ChoiceDisplay	1	1.585	1	1
7	138.487	0.0	win-noreward	ChosenDisplay		0.0		
7	138.504	0.25	win-noreward	TurnDisplay				
7	138.738	0.75	win-noreward	OutcomeDisplay				
8	139.49		control-reward	ImageDisplay1		0.0		
8	141.747	0.75	control-reward	StartDisplay				
8	142.499		control-reward	ImageDisplay2		0.0		
8	145.491	1.6	control-reward	ChoiceDisplay	1	0.986	1	1
8	146.494	0.614	control-reward	ChosenDisplay		0.0		
8	147.096	0.25	control-reward	TurnDisplay				
8	147.347	0.75	control-reward	OutcomeDisplay				
9	148.099		win-reward	ImageDisplay1		0.0		
9	150.339	0.75	win-reward	StartDisplay				
9	151.091		win-reward	ImageDisplay2		0.0		
9	154.1	1.6	win-reward	ChoiceDisplay	1	0.804	1	1
9	154.919	0.796	win-reward	ChosenDisplay		0.0		
9	155.705	0.25	win-reward	TurnDisplay				
9	155.955	0.75	win-reward	OutcomeDisplay				
10	156.708		loss-reward	ImageDisplay1		0.0		
10	158.697	0.75	loss-reward	StartDisplay				
10	159.449		loss-reward	ImageDisplay2		0.0		
10	162.709	1.6	loss-reward	ChoiceDisplay	1	1.152	1	1
10	163.879	0.448	loss-reward	ChosenDisplay		0.0		
10	164.314	0.25	loss-reward	TurnDisplay				
10	164.564	0.75	loss-reward	OutcomeDisplay				
11	165.317		win-reward	ImageDisplay1		0.0		
11	167.557	0.75	win-reward	StartDisplay				
11	168.309		win-reward	ImageDisplay2		0.0		
11	171.318	1.6	win-reward	ChoiceDisplay	1	0.928	1	1
11	172.271	0.672	win-reward	ChosenDisplay		0.0		
11	172.923	0.25	win-reward	TurnDisplay				
11	173.173	0.75	win-reward	OutcomeDisplay				
12	173.926		loss-reward	ImageDisplay1		0.0		
12	176.165	0.75	loss-reward	StartDisplay				
12	176.918		loss-reward	ImageDisplay2		0.0		
12	179.927	1.6	loss-reward	ChoiceDisplay	1	1.261	1	1
12	181.214	0.339	loss-reward	ChosenDisplay		0.0		
12	181.531	0.25	loss-reward	TurnDisplay				
12	181.782	0.75	loss-reward	OutcomeDisplay				
13	182.534		loss-noreward	ImageDisplay1		0.0		
13	184.774	0.75	loss-noreward	StartDisplay				
13	185.527		loss-noreward	ImageDisplay2		0.0		
13	188.536	1.6	loss-noreward	ChoiceDisplay	1	1.268	1	1
13	189.823	0.332	loss-noreward	ChosenDisplay		0.0		
13	190.14	0.25	loss-noreward	TurnDisplay				
13	190.391	0.75	loss-noreward	OutcomeDisplay				
14	191.143		loss-noreward	ImageDisplay1		0.0		
14	193.383	0.75	loss-noreward	StartDisplay				
14	194.136		loss-noreward	ImageDisplay2		0.0		
14	197.144	1.6	loss-noreward	ChoiceDisplay	1	1.339	1	1
14	198.498	0.261	loss-noreward	ChosenDisplay		0.0		
14	198.749	0.25	loss-noreward	TurnDisplay				
14	199.0	0.75	loss-noreward	OutcomeDisplay				
15	199.752		control-noreward	ImageDisplay1		0.0		
15	201.741	0.75	control-noreward	StartDisplay				
15	202.494		control-noreward	ImageDisplay2		0.0		
15	205.753	1.6	control-noreward	ChoiceDisplay	1	1.31	1	1
15	207.074	0.29	control-noreward	ChosenDisplay		0.0		
15	207.358	0.25	control-noreward	TurnDisplay				
15	207.609	0.75	control-noreward	OutcomeDisplay				
16	208.361		win-reward	ImageDisplay1		0.0		
16	210.35	0.75	win-reward	StartDisplay				
16	211.103		win-reward	ImageDisplay2		0.0		
16	214.362	1.6	win-reward	ChoiceDisplay	1	1.245	1	1
16	215.633	0.355	win-reward	ChosenDisplay		0.0		
16	215.967	0.25	win-reward	TurnDisplay				
16	216.218	0.75	win-reward	OutcomeDisplay				
17	216.97		control-noreward	ImageDisplay1		0.0		
17	218.959	0.75	control-noreward	StartDisplay				
17	219.711		control-noreward	ImageDisplay2		0.0		
17	222.971	1.6	control-noreward	ChoiceDisplay	1	0.978	1	1
17	223.974	0.622	control-noreward	ChosenDisplay		0.0		
17	224.576	0.25	control-noreward	TurnDisplay				
17	224.827	0.75	control-noreward	OutcomeDisplay				
18	225.579		control-noreward	ImageDisplay1		0.0		
18	227.568	0.75	control-noreward	StartDisplay				
18	228.32		control-noreward	ImageDisplay2		0.0		
18	231.58	1.6	control-noreward	ChoiceDisplay	1	1.406	1	1
18	233.001	0.194	control-noreward	ChosenDisplay		0.0		
18	233.185	0.25	control-noreward	TurnDisplay				
18	233.436	0.75	control-noreward	OutcomeDisplay				
19	234.188		loss-noreward	ImageDisplay1		0.0		
19	236.428	0.75	loss-noreward	StartDisplay				
19	237.18		loss-noreward	ImageDisplay2		0.0		
19	240.189	1.6	loss-noreward	ChoiceDisplay	1	1.139	1	1
19	241.342	0.461	loss-noreward	ChosenDisplay		0.0		
19	241.794	0.25	loss-noreward	TurnDisplay				
19	242.044	0.75	loss-noreward	OutcomeDisplay				
20	242.797		win-noreward	ImageDisplay1		0.0		
20	245.037	0.75	win-noreward	StartDisplay				
20	245.789		win-noreward	ImageDisplay2		0.0		
20	248.798	1.6	win-noreward	ChoiceDisplay		0.0		
20	250.386	0.0	win-noreward	ChosenDisplay		0.0		
20	250.403	0.25	win-noreward	TurnDisplay				
20	250.637	0.75	win-noreward	OutcomeDisplay				
21	251.389		win-noreward	ImageDisplay1		0.0		
21	253.646	0.75	win-noreward	StartDisplay				
21	254.398		win-noreward	ImageDisplay2		0.0		
21	257.39	1.6	win-noreward	ChoiceDisplay	1	0.94	1	1
21	258.343	0.66	win-noreward	ChosenDisplay		0.0		
21	258.995	0.25	win-noreward	TurnDisplay				
21	259.245	0.75	win-noreward	OutcomeDisplay				
22	259.998		loss-reward	ImageDisplay1		0.0		
22	262.238	0.75	loss-reward	StartDisplay				
22	262.99		loss-reward	ImageDisplay2		0.0		
22	265.999	1.6	loss-reward	ChoiceDisplay	1	1.025	1	1
22	267.052	0.575	loss-reward	ChosenDisplay		0.0		
22	267.604	0.25	loss-reward	TurnDisplay				
22	267.854	0.75	loss-reward	OutcomeDisplay				
23	268.607		win-reward	ImageDisplay1		0.0		
23	270.847	0.75	win-reward	StartDisplay				
23	271.599		win-reward	ImageDisplay2		0.0		
23	274.608	1.6	win-reward	ChoiceDisplay	1	1.349	1	1
23	275.978	0.251	win-reward	ChosenDisplay		0.0		
23	276.213	0.25	win-reward	TurnDisplay				
23	276.463	0.75	win-reward	OutcomeDisplay				
24	277.216		win-reward	ImageDisplay1		0.0		
24	279.205	0.75	win-reward	StartDisplay				
24	279.957		win-reward	ImageDisplay2		0.0		
24	283.217	1.6	win-reward	ChoiceDisplay	1	1.325	1	1
24	284.554	0.275	win-reward	ChosenDisplay		0.0		
24	284.821	0.25	win-reward	TurnDisplay				
24	285.072	0.75	win-reward	OutcomeDisplay				
25	285.824		control-noreward	ImageDisplay1		0.0		
25	288.064	0.75	control-noreward	StartDisplay				
25	288.817		control-noreward	ImageDisplay2		0.0		
25	291.826	1.6	control-noreward	ChoiceDisplay	1	1.372	1	1
25	293.213	0.228	control-noreward	ChosenDisplay		0.0		
25	293.43	0.25	control-noreward	TurnDisplay				
25	293.681	0.75	control-noreward	OutcomeDisplay				
26	294.433		win-reward	ImageDisplay1		0.0		
26	296.423	0.75	win-reward	StartDisplay				
26	297.175		win-reward	ImageDisplay2		0.0		
26	300.434	1.6	win-reward	ChoiceDisplay	1	1.017	1	1
26	301.471	0.583	win-reward	ChosenDisplay		0.0		
26	302.039	0.25	win-reward	TurnDisplay				
26	302.29	0.75	win-reward	OutcomeDisplay				
27	303.042		control-noreward	ImageDisplay1		0.0		
27	305.031	0.75	control-noreward	StartDisplay				
27	305.784		control-noreward	ImageDisplay2		0.0		
27	309.043	1.6	control-noreward	ChoiceDisplay	1	0.876	1	1
27	309.946	0.724	control-noreward	ChosenDisplay		0.0		
27	310.648	0.25	control-noreward	TurnDisplay				
27	310.899	0.75	control-noreward	OutcomeDisplay				
28	311.651		control-noreward	ImageDisplay1		0.0		
28	313.891	0.75	control-noreward	StartDisplay				
28	314.643		control-noreward	ImageDisplay2		0.0		
28	317.652	1.6	control-noreward	ChoiceDisplay	1	1.459	1	1
28	319.123	0.141	control-noreward	ChosenDisplay		0.0		
28	319.257	0.25	control-noreward	TurnDisplay				
28	319.508	0.75	control-noreward	OutcomeDisplay				
29	320.26		loss-reward	ImageDisplay1		0.0		
29	322.249	0.75	loss-reward	StartDisplay				
29	323.001		loss-reward	ImageDisplay2		0.0		
29	326.261	1.6	loss-reward	ChoiceDisplay	1	1.002	1	1
29	327.281	0.598	loss-reward	ChosenDisplay		0.0		
29	327.866	0.25	loss-reward	TurnDisplay				
29	328.117	0.75	loss-reward	OutcomeDisplay				
30	328.869		win-reward	ImageDisplay1		0.0		
30	330.858	0.75	win-reward	StartDisplay				
30	331.61		win-reward	ImageDisplay2		0.0		
30	334.87	1.6	win-reward	ChoiceDisplay	1	1.405	1	1
30	336.291	0.195	win-reward	ChosenDisplay		0.0		
30	336.475	0.25	win-reward	TurnDisplay				
30	336.726	0.75	win-reward	OutcomeDisplay				
31	337.478		win-reward	ImageDisplay1		0.0		
31	339.718	0.75	win-reward	StartDisplay				
31	340.47		win-reward	ImageDisplay2		0.0		
31	343.479	1.6	win-reward	ChoiceDisplay	1	1.332	1	1
31	344.833	0.268	win-reward	ChosenDisplay		0.0		
31	345.084	0.25	win-reward	TurnDisplay				
31	345.334	0.75	win-reward	OutcomeDisplay				
32	346.087		loss-noreward	ImageDisplay1		0.0		
32	348.327	0.75	loss-noreward	StartDisplay				
32	349.079		loss-noreward	ImageDisplay2		0.0		
32	352.088	1.6	loss-noreward	ChoiceDisplay	1	1.414	1	1
32	353.525	0.186	loss-noreward	ChosenDisplay		0.0		
32	353.693	0.25	loss-noreward	TurnDisplay				
32	353.943	0.75	loss-noreward	OutcomeDisplay				
33	354.696		loss-noreward	ImageDisplay1		0.0		
33	356.936	0.75	loss-noreward	StartDisplay				
33	357.688		loss-noreward	ImageDisplay2		0.0		
33	360.697	1.6	loss-noreward	ChoiceDisplay	1	1.036	1	1
33	361.75	0.564	loss-noreward	ChosenDisplay		0.0		
33	362.301	0.25	loss-noreward	TurnDisplay				
33	362.552	0.75	loss-noreward	OutcomeDisplay				
34	363.304		control-reward	ImageDisplay1		0.0		
34	365.294	0.75	control-reward	StartDisplay				
34	366.046		control-reward	ImageDisplay2		0.0		
34	369.306	1.6	control-reward	ChoiceDisplay	1	1.419	1	1
34	370.743	0.181	control-reward	ChosenDisplay		0.0		
34	370.91	0.25	control-reward	TurnDisplay				
34	371.161	0.75	control-reward	OutcomeDisplay				
35	371.913		win-noreward	ImageDisplay1		0.0		
35	373.903	0.75	win-noreward	StartDisplay				
35	374.655		win-noreward	ImageDisplay2		0.0		
35	377.914	1.6	win-noreward	ChoiceDisplay	1	0.412	1	1
35	378.349	1.188	win-noreward	ChosenDisplay		0.0		
35	379.519	0.25	win-noreward	TurnDisplay				
35	379.77	0.75	win-noreward	OutcomeDisplay				
36	380.522		loss-noreward	ImageDisplay1		0.0		
36	382.511	0.75	loss-noreward	StartDisplay				
36	383.264		loss-noreward	ImageDisplay2		0.0		
36	386.523	1.6	loss-noreward	ChoiceDisplay	1	1.426	1	1
36	387.961	0.174	loss-noreward	ChosenDisplay		0.0		
36	388.128	0.25	loss-noreward	TurnDisplay				
36	388.379	0.75	loss-noreward	OutcomeDisplay				
37	389.131		win-reward	ImageDisplay1		0.0		
37	391.12	0.75	win-reward	StartDisplay				
37	391.873		win-reward	ImageDisplay2		0.0		
37	395.132	1.6	win-reward	ChoiceDisplay		0.0		
37	396.72	0.0	win-reward	ChosenDisplay		0.0		
37	396.737	0.25	win-reward	TurnDisplay				
37	396.971	0.75	win-reward	OutcomeDisplay				
38	397.723		loss-reward	ImageDisplay1		0.0		
38	399.98	0.75	loss-reward	StartDisplay				
38	400.732		loss-reward	ImageDisplay2		0.0		
38	403.724	1.6	loss-reward	ChoiceDisplay	1	1.102	1	1
38	404.844	0.498	loss-reward	ChosenDisplay		0.0		
38	405.329	0.25	loss-reward	TurnDisplay				
38	405.58	0.75	loss-reward	OutcomeDisplay				
39	406.332		control-reward	ImageDisplay1		0.0		
39	408.572	0.75	control-reward	StartDisplay				
39	409.324		control-reward	ImageDisplay2		0.0		
39	412.333	1.6	control-reward	ChoiceDisplay		0.0		
39	413.921	0.0	control-reward	ChosenDisplay		0.0		
39	413.938	0.25	control-reward	TurnDisplay				
39	414.172	0.75	control-reward	OutcomeDisplay				
40	414.924		control-noreward	ImageDisplay1		0.0		
40	417.181	0.75	control-noreward	StartDisplay				
40	417.933		control-noreward	ImageDisplay2		0.0		
40	420.926	1.6	control-noreward	ChoiceDisplay	1	1.227	1	1
40	422.179	0.373	control-noreward	ChosenDisplay		0.0		
40	422.53	0.25	control-noreward	TurnDisplay				
40	422.781	0.75	control-noreward	OutcomeDisplay				
41	423.533		control-noreward	ImageDisplay1		0.0		
41	425.773	0.75	control-noreward	StartDisplay				
41	426.525		control-noreward	ImageDisplay2		0.0		
41	429.534	1.6	control-noreward	ChoiceDisplay	1	1.409	1	1
41	430.955	0.191	control-noreward	ChosenDisplay		0.0		
41	431.139	0.25	control-noreward	TurnDisplay				
41	431.39	0.75	control-noreward	OutcomeDisplay				
42	432.142		win-noreward	ImageDisplay1		0.0		
42	434.382	0.75	win-noreward	StartDisplay				
42	435.134		win-noreward	ImageDisplay2		0.0		
42	438.143	1.6	win-noreward	ChoiceDisplay	1	1.179	1	1
42	439.347	0.421	win-noreward	ChosenDisplay		0.0		
42	439.748	0.25	win-noreward	TurnDisplay				
42	439.999	0.75	win-noreward	OutcomeDisplay				
43	440.751		win-reward	ImageDisplay1		0.0		
43	442.991	0.75	win-reward	StartDisplay				
43	443.743		win-reward	ImageDisplay2		0.0		
43	446.752	1.6	win-reward	ChoiceDisplay	1	1.504	1	1
43	448.273	0.0	win-reward	ChosenDisplay		0.0		
43	448.357	0.25	win-reward	TurnDisplay				
43	448.507	0.75	win-reward	OutcomeDisplay				
44	449.26		control-reward	ImageDisplay1		0.0		
44	451.516	0.75	control-reward	StartDisplay				
44	452.269		control-reward	ImageDisplay2		0.0		
44	455.261	1.6	control-reward	ChoiceDisplay	1	1.337	1	1
44	456.615	0.263	control-reward	ChosenDisplay		0.0		
44	456.866	0.25	control-reward	TurnDisplay				
44	457.116	0.75	control-reward	OutcomeDisplay				
45	457.869		loss-noreward	ImageDisplay1		0.0		
45	460.109	0.75	loss-noreward	StartDisplay				
45	460.861		loss-noreward	ImageDisplay2		0.0		
45	463.87	1.6	loss-noreward	ChoiceDisplay	1	1.01	1	1
45	464.906	0.59	loss-noreward	ChosenDisplay		0.0		
45	465.474	0.25	loss-noreward	TurnDisplay				
45	465.725	0.75	loss-noreward	OutcomeDisplay				
46	466.477		win-noreward	ImageDisplay1		0.0		
46	468.717	0.75	win-noreward	StartDisplay				
46	469.47		win-noreward	ImageDisplay2		0.0		
46	472.479	1.6	win-noreward	ChoiceDisplay	1	0.59	1	1
46	473.097	1.01	win-noreward	ChosenDisplay		0.0		
46	474.083	0.25	win-noreward	TurnDisplay				
46	474.334	0.75	win-noreward	OutcomeDisplay				
47	475.086		control-reward	ImageDisplay1		0.0		
47	477.076	0.75	control-reward	StartDisplay				
47	477.828		control-reward	ImageDisplay2		0.0		
47	481.087	1.6	control-reward	ChoiceDisplay	1	1.169	1	1
47	482.274	0.431	control-reward	ChosenDisplay		0.0		
47	482.692	0.25	control-reward	TurnDisplay				
47	482.943	0.75	control-reward	OutcomeDisplay				
48	483.695		win-noreward	ImageDisplay1		0.0		
48	485.684	0.75	win-noreward	StartDisplay				
48	486.437		win-noreward	ImageDisplay2		0.0		
48	489.696	1.6	win-noreward	ChoiceDisplay		0.0		
48	491.284	0.0	win-noreward	ChosenDisplay		0.0		
48	491.301	0.25	win-noreward	TurnDisplay				
48	491.535	0.75	win-noreward	OutcomeDisplay				
49	492.287		loss-reward	ImageDisplay1		0.0		
49	494.544	0.75	loss-reward	StartDisplay				
49	495.296		loss-reward	ImageDisplay2		0.0		
49	498.289	1.6	loss-reward	ChoiceDisplay	1	1.306	1	1
49	499.609	0.294	loss-reward	ChosenDisplay		0.0		
49	499.893	0.25	loss-reward	TurnDisplay				
49	500.144	0.75	loss-reward	OutcomeDisplay				
50	500.896		control-noreward	ImageDisplay1		0.0		
50	503.136	0.75	control-noreward	StartDisplay				
50	503.889		control-noreward	ImageDisplay2		0.0		
50	506.897	1.6	control-noreward	ChoiceDisplay	1	1.569	1	1
50	508.485	0.0	control-noreward	ChosenDisplay		0.0		
50	508.502	0.25	control-noreward	TurnDisplay				
50	508.72	0.75	control-noreward	OutcomeDisplay				
51	509.472		win-reward	ImageDisplay1		0.0		
51	511.478	0.75	win-reward	StartDisplay				
51	512.213		win-reward	ImageDisplay2		0.0		
51	515.473	1.6	win-reward	ChoiceDisplay	1	0.944	1	1
51	516.442	0.656	win-reward	ChosenDisplay		0.0		
51	517.078	0.25	win-reward	TurnDisplay				
51	517.328	0.75	win-reward	OutcomeDisplay				
52	518.081		loss-reward	ImageDisplay1		0.0		
52	520.07	0.75	loss-reward	StartDisplay				
52	520.822		loss-reward	ImageDisplay2		0.0		
52	524.082	1.6	loss-reward	ChoiceDisplay	1	1.176	1	1
52	525.285	0.424	loss-reward	ChosenDisplay		0.0		
52	525.687	0.25	loss-reward	TurnDisplay				
52	525.937	0.75	loss-reward	OutcomeDisplay				
53	526.69		win-noreward	ImageDisplay1		0.0		
53	528.679	0.75	win-noreward	StartDisplay				
53	529.431		win-noreward	ImageDisplay2		0.0		
53	532.691	1.6	win-noreward	ChoiceDisplay		0.0		
53	534.279	0.0	win-noreward	ChosenDisplay		0.0		
53	534.295	0.25	win-noreward	TurnDisplay				
53	534.529	0.75	win-noreward	OutcomeDisplay				
54	535.282		loss-noreward	ImageDisplay1		0.0		
54	537.288	0.75	loss-noreward	StartDisplay				
54	538.04		loss-noreward	ImageDisplay2		0.0		
54	541.283	1.6	loss-noreward	ChoiceDisplay	1	1.292	1	1
54	542.587	0.308	loss-noreward	ChosenDisplay		0.0		
54	542.888	0.25	loss-noreward	TurnDisplay				
54	543.138	0.75	loss-noreward	OutcomeDisplay				
55	543.891		control-reward	ImageDisplay1		0.0		
55	545.88	0.75	control-reward	StartDisplay				
55	546.632		control-reward	ImageDisplay2		0.0		
55	549.892	1.6	control-reward	ChoiceDisplay	1	1.511	1	1
55	551.413	0.0	control-reward	ChosenDisplay		0.0		
55	551.497	0.25	control-reward	TurnDisplay				
55	551.664	0.75	control-reward	OutcomeDisplay				
56	552.399		win-noreward	ImageDisplay1		0.0		
56	554.656	0.75	win-noreward	StartDisplay				
56	555.408		win-noreward	ImageDisplay2		0.0		
56	558.4	1.6	win-noreward	ChoiceDisplay	1	1.21	1	1
56	559.637	0.39	win-noreward	ChosenDisplay		0.0		
56	560.005	0.25	win-noreward	TurnDisplay				
56	560.256	0.75	win-noreward	OutcomeDisplay				
57	561.008		win-reward	ImageDisplay1		0.0		
57	563.248	0.75	win-reward	StartDisplay				
57	564.0		win-reward	ImageDisplay2		0.0		
57	567.009	1.6	win-reward	ChoiceDisplay		0.0		
57	568.597	0.0	win-reward	ChosenDisplay		0.0		
57	568.614	0.25	win-reward	TurnDisplay				
57	568.848	0.75	win-reward	OutcomeDisplay				
58	569.6		loss-reward	ImageDisplay1		0.0		
58	571.606	0.75	loss-reward	StartDisplay				
58	572.358		loss-reward	ImageDisplay2		0.0		
58	575.601	1.6	loss-reward	ChoiceDisplay	1	1.034	1	1
58	576.655	0.566	loss-reward	ChosenDisplay		0.0		
58	577.206	0.25	loss-reward	TurnDisplay				
58	577.457	0.75	loss-reward	OutcomeDisplay				
59	578.209		control-noreward	ImageDisplay1		0.0		
59	580.198	0.75	control-noreward	StartDisplay				
59	580.951		control-noreward	ImageDisplay2		0.0		
59	584.21	1.6	control-noreward	ChoiceDisplay	1	1.203	1	1
59	585.431	0.397	control-noreward	ChosenDisplay		0.0		
59	585.815	0.25	control-noreward	TurnDisplay				
59	586.066	0.75	control-noreward	OutcomeDisplay				
60	586.818		loss-noreward	ImageDisplay1		0.0		
60	588.807	0.75	loss-noreward	StartDisplay				
60	589.56		loss-noreward	ImageDisplay2		0.0		
60	592.819	1.6	loss-noreward	ChoiceDisplay	1	1.514	1	1
60	594.34	0.0	loss-noreward	ChosenDisplay		0.0		
60	594.424	0.25	loss-noreward	TurnDisplay				
60	594.591	0.75	loss-noreward	OutcomeDisplay				
61	595.343		control-reward	ImageDisplay1		0.0		
61	597.333	0.75	control-reward	StartDisplay				
61	598.085		control-reward	ImageDisplay2		0.0		
61	601.345	1.6	control-reward	ChoiceDisplay	1	1.043	1	1
61	602.414	0.557	control-reward	ChosenDisplay		0.0		
61	602.949	0.25	control-reward	TurnDisplay				
61	603.2	0.75	control-reward	OutcomeDisplay				
62	603.952		win-noreward	ImageDisplay1		0.0		
62	605.941	0.75	win-noreward	StartDisplay				
62	606.694		win-noreward	ImageDisplay2		0.0		
62	609.953	1.6	win-noreward	ChoiceDisplay	1	0.844	1	1
62	610.823	0.756	win-noreward	ChosenDisplay		0.0		
62	611.558	0.25	win-noreward	TurnDisplay				
62	611.809	0.75	win-noreward	OutcomeDisplay				
63	612.561		loss-reward	ImageDisplay1		0.0		
63	614.55	0.75	loss-reward	StartDisplay				
63	615.303		loss-reward	ImageDisplay2		0.0		
63	618.562	1.6	loss-reward	ChoiceDisplay	1	1.257	1	1
63	619.833	0.343	loss-reward	ChosenDisplay		0.0		
63	620.167	0.25	loss-reward	TurnDisplay				
63	620.418	0.75	loss-reward	OutcomeDisplay				
64	621.17		loss-reward	ImageDisplay1		0.0		
64	623.159	0.75	loss-reward	StartDisplay				
64	623.912		loss-reward	ImageDisplay2		0.0		
64	627.171	1.6	loss-reward	ChoiceDisplay	1	1.352	1	1
64	628.542	0.248	loss-reward	ChosenDisplay		0.0		
64	628.776	0.25	loss-reward	TurnDisplay				
64	629.027	0.75	loss-reward	OutcomeDisplay				
65	629.779		loss-reward	ImageDisplay1		0.0		
65	631.768	0.75	loss-reward	StartDisplay				
65	632.52		loss-reward	ImageDisplay2		0.0		
65	635.78	1.6	loss-reward	ChoiceDisplay	1	0.74	1	1
65	636.532	0.86	loss-reward	ChosenDisplay		0.0		
65	637.385	0.25	loss-reward	TurnDisplay				
65	637.636	0.75	loss-reward	OutcomeDisplay				
66	638.388		loss-noreward	ImageDisplay1		0.0		
66	640.628	0.75	loss-noreward	StartDisplay				
66	641.38		loss-noreward	ImageDisplay2		0.0		
66	644.389	1.6	loss-noreward	ChoiceDisplay		0.0		
66	645.977	0.0	loss-noreward	ChosenDisplay		0.0		
66	645.994	0.25	loss-noreward	TurnDisplay				
66	646.228	0.75	loss-noreward	OutcomeDisplay				
67	646.98		control-reward	ImageDisplay1		0.0		
67	649.237	0.75	control-reward	StartDisplay				
67	649.989		control-reward	ImageDisplay2		0.0		
67	652.981	1.6	control-reward	ChoiceDisplay	1	0.758	1	1
67	653.767	0.842	control-reward	ChosenDisplay		0.0		
67	654.586	0.25	control-reward	TurnDisplay				
67	654.837	0.75	control-reward	OutcomeDisplay				
68	655.589		control-noreward	ImageDisplay1		0.0		
68	657.829	0.75	control-noreward	StartDisplay				
68	658.581		control-noreward	ImageDisplay2		0.0		
68	661.59	1.6	control-noreward	ChoiceDisplay	1	1.083	1	1
68	662.693	0.517	control-noreward	ChosenDisplay		0.0		
68	663.195	0.25	control-noreward	TurnDisplay				
68	663.446	0.75	control-noreward	OutcomeDisplay				
69	664.198		control-noreward	ImageDisplay1		0.0		
69	666.187	0.75	control-noreward	StartDisplay				
69	666.939		control-noreward	ImageDisplay2		0.0		
69	670.199	1.6	control-noreward	ChoiceDisplay		0.0		
69	671.787	0.0	control-noreward	ChosenDisplay		0.0		
69	671.804	0.25	control-noreward	TurnDisplay				
69	672.038	0.75	control-noreward	OutcomeDisplay				
70	672.79		loss-noreward	ImageDisplay1		0.0		
70	674.796	0.75	loss-noreward	StartDisplay				
70	675.548		loss-noreward	ImageDisplay2		0.0		
70	678.791	1.6	loss-noreward	ChoiceDisplay	1	1.395	1	1
70	680.212	0.205	loss-noreward	ChosenDisplay		0.0		
70	680.396	0.25	loss-noreward	TurnDisplay				
70	680.647	0.75	loss-noreward	OutcomeDisplay				
71	681.399		control-reward	ImageDisplay1		0.0		
71	683.639	0.75	control-reward	StartDisplay				
71	684.391		control-reward	ImageDisplay2		0.0		
71	687.4	1.6	control-reward	ChoiceDisplay	1	1.231	1	1
71	688.654	0.369	control-reward	ChosenDisplay		0.0		
71	689.005	0.25	control-reward	TurnDisplay				
71	689.256	0.75	control-reward	OutcomeDisplay				
72	690.008		win-noreward	ImageDisplay1		0.0		
72	692.248	0.75	win-noreward	StartDisplay				
72	693.0		win-noreward	ImageDisplay2		0.0		
72	696.009	1.6	win-noreward	ChoiceDisplay		0.0		
72	697.597	0.0	win-noreward	ChosenDisplay		0.0		
72	697.614	0.25	win-noreward	TurnDisplay				
72	697.848	0.75	win-noreward	OutcomeDisplay				
73	698.6		control-reward	ImageDisplay1		0.0		
73	700.857	0.75	control-reward	StartDisplay				
73	701.609		control-reward	ImageDisplay2		0.0		
73	704.601	1.6	control-reward	ChoiceDisplay	1	1.142	1	1
73	705.755	0.458	control-reward	ChosenDisplay		0.0		
73	706.206	0.25	control-reward	TurnDisplay				
73	706.457	0.75	control-reward	OutcomeDisplay				
74	707.209		win-reward	ImageDisplay1		0.0		
74	709.198	0.75	win-reward	StartDisplay				
74	709.95		win-reward	ImageDisplay2		0.0		
74	713.21	1.6	win-reward	ChoiceDisplay	1	1.41	1	1
74	714.631	0.19	win-reward	ChosenDisplay		0.0		
74	714.815	0.25	win-reward	TurnDisplay				
74	715.065	0.75	win-reward	OutcomeDisplay				
75	715.818		control-reward	ImageDisplay1		0.0		
75	717.807	0.75	control-reward	StartDisplay				
75	718.559		control-reward	ImageDisplay2		0.0		
75	721.819	1.6	control-reward	ChoiceDisplay	1	0.487	1	1
75	722.32	1.113	control-reward	ChosenDisplay		0.0		
75	723.424	0.25	control-reward	TurnDisplay				
75	723.674	0.75	control-reward	OutcomeDisplay				
76	724.427		control-noreward	ImageDisplay1		0.0		
76	726.416	0.75	control-noreward	StartDisplay				
76	727.168		control-noreward	ImageDisplay2		0.0		
76	730.428	1.6	control-noreward	ChoiceDisplay	1	1.32	1	1
76	731.765	0.28	control-noreward	ChosenDisplay		0.0		
76	732.033	0.25	control-noreward	TurnDisplay				
76	732.283	0.75	control-noreward	OutcomeDisplay				
77	733.036		control-noreward	ImageDisplay1		0.0		
77	735.275	0.75	control-noreward	StartDisplay				
77	736.028		control-noreward	ImageDisplay2		0.0		
77	739.037	1.6	control-noreward	ChoiceDisplay		0.0		
77	740.625	0.0	control-noreward	ChosenDisplay		0.0		
77	740.641	0.25	control-noreward	TurnDisplay				
77	740.875	0.75	control-noreward	OutcomeDisplay				
78	741.628		loss-reward	ImageDisplay1		0.0		
78	743.634	0.75	loss-reward	StartDisplay				
78	744.386		loss-reward	ImageDisplay2		0.0		
78	747.629	1.6	loss-reward	ChoiceDisplay	1	1.08	1	1
78	748.732	0.52	loss-reward	ChosenDisplay		0.0		
78	749.234	0.25	loss-reward	TurnDisplay				
78	749.484	0.75	loss-reward	OutcomeDisplay				
79	750.237		loss-reward	ImageDisplay1		0.0		
79	752.477	0.75	loss-reward	StartDisplay				
79	753.229		loss-reward	ImageDisplay2		0.0		
79	756.238	1.6	loss-reward	ChoiceDisplay	1	0.721	1	1
79	756.973	0.879	loss-reward	ChosenDisplay		0.0		
79	757.842	0.25	loss-reward	TurnDisplay				
79	758.093	0.75	loss-reward	OutcomeDisplay				
80	758.845		win-reward	ImageDisplay1		0.0		
80	761.085	0.75	win-reward	StartDisplay				
80	761.838		win-reward	ImageDisplay2		0.0		
80	764.847	1.6	win-reward	ChoiceDisplay	1	0.414	1	1
80	765.281	1.186	win-reward	ChosenDisplay		0.0		
80	766.451	0.25	win-reward	TurnDisplay				
80	766.702	0.75	win-reward	OutcomeDisplay				
81	767.454		loss-reward	ImageDisplay1		0.0		
81	769.694	0.75	loss-reward	StartDisplay				
81	770.447		loss-reward	ImageDisplay2		0.0		
81	773.456	1.6	loss-reward	ChoiceDisplay	1	1.169	1	1
81	774.642	0.431	loss-reward	ChosenDisplay		0.0		
81	775.06	0.25	loss-reward	TurnDisplay				
81	775.311	0.75	loss-reward	OutcomeDisplay				
82	776.063		control-reward	ImageDisplay1		0.0		
82	778.052	0.75	control-reward	StartDisplay				
82	778.805		control-reward	ImageDisplay2		0.0		
82	782.064	1.6	control-reward	ChoiceDisplay	1	1.281	1	1
82	783.368	0.319	control-reward	ChosenDisplay		0.0		
82	783.669	0.25	control-reward	TurnDisplay				
82	783.92	0.75	control-reward	OutcomeDisplay				
83	784.672		win-noreward	ImageDisplay1		0.0		
83	786.912	0.75	win-noreward	StartDisplay				
83	787.664		win-noreward	ImageDisplay2		0.0		
83	790.673	1.6	win-noreward	ChoiceDisplay		0.0		
83	792.261	0.0	win-noreward	ChosenDisplay		0.0		
83	792.278	0.25	win-noreward	TurnDisplay				
83	792.512	0.75	win-noreward	OutcomeDisplay				
84	793.264		loss-noreward	ImageDisplay1		0.0		
84	795.27	0.75	loss-noreward	StartDisplay				
84	796.023		loss-noreward	ImageDisplay2		0.0		
84	799.265	1.6	loss-noreward	ChoiceDisplay	1	1.392	1	1
84	800.67	0.208	loss-noreward	ChosenDisplay		0.0		
84	800.87	0.25	loss-noreward	TurnDisplay				
84	801.121	0.75	loss-noreward	OutcomeDisplay				
85	801.873		win-reward	ImageDisplay1		0.0		
85	803.862	0.75	win-reward	StartDisplay				
85	804.615		win-reward	ImageDisplay2		0.0		
85	807.874	1.6	win-reward	ChoiceDisplay		0.0		
85	809.462	0.0	win-reward	ChosenDisplay		0.0		
85	809.479	0.25	win-reward	TurnDisplay				
85	809.713	0.75	win-reward	OutcomeDisplay				
86	810.465		loss-reward	ImageDisplay1		0.0		
86	812.722	0.75	loss-reward	StartDisplay				
86	813.474		loss-reward	ImageDisplay2		0.0		
86	816.467	1.6	loss-reward	ChoiceDisplay	1	0.795	1	1
86	817.286	0.805	loss-reward	ChosenDisplay		0.0		
86	818.071	0.25	loss-reward	TurnDisplay				
86	818.322	0.75	loss-reward	OutcomeDisplay				
87	819.074		control-reward	ImageDisplay1		0.0		
87	821.064	0.75	control-reward	StartDisplay				
87	821.816		control-reward	ImageDisplay2		0.0		
87	825.075	1.6	control-reward	ChoiceDisplay	1	0.7	1	1
87	825.794	0.9	control-reward	ChosenDisplay		0.0		
87	826.68	0.25	control-reward	TurnDisplay				
87	826.931	0.75	control-reward	OutcomeDisplay				
88	827.683		control-reward	ImageDisplay1		0.0		
88	829.923	0.75	control-reward	StartDisplay				
88	830.675		control-reward	ImageDisplay2		0.0		
88	833.684	1.6	control-reward	ChoiceDisplay	1	1.425	1	1
88	835.122	0.175	control-reward	ChosenDisplay		0.0		
88	835.289	0.25	control-reward	TurnDisplay				
88	835.54	0.75	control-reward	OutcomeDisplay				
89	836.292		loss-noreward	ImageDisplay1		0.0		
89	838.281	0.75	loss-noreward	StartDisplay				
89	839.034		loss-noreward	ImageDisplay2		0.0		
89	842.293	1.6	loss-noreward	ChoiceDisplay	1	0.941	1	1
89	843.246	0.659	loss-noreward	ChosenDisplay		0.0		
89	843.898	0.25	loss-noreward	TurnDisplay				
89	844.149	0.75	loss-noreward	OutcomeDisplay				
90	844.901		win-noreward	ImageDisplay1		0.0		
90	846.89	0.75	win-noreward	StartDisplay				
90	847.642		win-noreward	ImageDisplay2		0.0		
90	850.902	1.6	win-noreward	ChoiceDisplay	1	0.974	1	1
90	851.888	0.626	win-noreward	ChosenDisplay		0.0		
90	852.507	0.25	win-noreward	TurnDisplay				
90	852.758	0.75	win-noreward	OutcomeDisplay				
91	853.51		win-noreward	ImageDisplay1		0.0		
91	855.499	0.75	win-noreward	StartDisplay				
91	856.251		win-noreward	ImageDisplay2		0.0		
91	859.511	1.6	win-noreward	ChoiceDisplay	1	1.252	1	1
91	860.781	0.348	win-noreward	ChosenDisplay		0.0		
91	861.116	0.25	win-noreward	TurnDisplay				
91	861.367	0.75	win-noreward	OutcomeDisplay				
92	862.119		win-reward	ImageDisplay1		0.0		
92	864.359	0.75	win-reward	StartDisplay				
92	865.111		win-reward	ImageDisplay2		0.0		
92	868.12	1.6	win-reward	ChoiceDisplay		0.0		
92	869.708	0.0	win-reward	ChosenDisplay		0.0		
92	869.725	0.25	win-reward	TurnDisplay				
92	869.959	0.75	win-reward	OutcomeDisplay				
93	870.711		control-noreward	ImageDisplay1		0.0		
93	872.968	0.75	control-noreward	StartDisplay				
93	873.72		control-noreward	ImageDisplay2		0.0		
93	876.712	1.6	control-noreward	ChoiceDisplay	1	1.325	1	1
93	878.049	0.275	control-noreward	ChosenDisplay		0.0		
93	878.317	0.25	control-noreward	TurnDisplay				
93	878.568	0.75	control-noreward	OutcomeDisplay				
94	879.32		win-reward	ImageDisplay1		0.0		
94	881.56	0.75	win-reward	StartDisplay				
94	882.312		win-reward	ImageDisplay2		0.0		
94	885.321	1.6	win-reward	ChoiceDisplay		0.0		
94	886.909	0.0	win-reward	ChosenDisplay		0.0		
94	886.926	0.25	win-reward	TurnDisplay				
94	887.16	0.75	win-reward	OutcomeDisplay				
95	887.912		loss-reward	ImageDisplay1		0.0		
95	889.918	0.75	loss-reward	StartDisplay				
95	890.67		loss-reward	ImageDisplay2		0.0		
95	893.913	1.6	loss-reward	ChoiceDisplay	1	0.72	1	1
95	894.649	0.88	loss-reward	ChosenDisplay		0.0		
95	895.518	0.25	loss-reward	TurnDisplay				
95	895.769	0.75	loss-reward	OutcomeDisplay				
