onset	duration	trial_type	response_time	stim_file	accuracy
433.485	1.0	go	0.0	Go_O	0.0
436.01	1.0	go	0.0	Go_X	0.0
438.534	1.0	go	0.0	Go_X	0.0
441.058	1.0	go	0.782	Go_O	0.0
443.582	1.0	go	0.347	Go_X	1.0
446.106	1.0	go	0.429	Go_O	1.0
448.63	0.25	stop	0.459	Go_O	0.0
451.155	1.0	go	0.816	Go_O	1.0
453.679	0.2	stop	0.427	Go_X	0.0
456.203	1.0	go	0.475	Go_X	1.0
458.727	1.0	go	0.573	Go_X	1.0
461.251	1.0	go	0.366	Go_O	1.0
463.775	0.15	stop	0.0	Go_O	1.0
466.3	1.0	go	0.522	Go_X	1.0
468.824	1.0	go	0.413	Go_O	1.0
471.348	0.2	stop	0.0	Go_X	1.0
473.872	0.25	stop	0.0	Go_O	1.0
476.396	1.0	go	0.52	Go_X	1.0
478.92	1.0	go	0.582	Go_O	1.0
481.444	0.3	stop	0.0	Go_X	1.0
483.969	1.0	go	0.632	Go_X	1.0
486.493	1.0	go	0.792	Go_O	1.0
489.017	0.35	stop	0.0	Go_O	1.0
491.541	1.0	go	0.397	Go_O	1.0
494.065	1.0	go	0.699	Go_X	1.0
496.589	0.4	stop	0.0	Go_X	1.0
499.114	1.0	go	0.663	Go_X	1.0
501.638	1.0	go	0.776	Go_O	1.0
504.162	0.45	stop	0.0	Go_O	1.0
506.686	1.0	go	0.612	Go_O	1.0
509.21	1.0	go	0.767	Go_X	1.0
511.734	1.0	go	0.811	Go_X	1.0
514.259	1.0	go	0.599	Go_O	1.0
516.783	1.0	go	0.897	Go_O	1.0
519.307	0.5	stop	0.0	Go_X	1.0
521.831	1.0	go	0.587	Go_X	1.0
524.355	1.0	go	0.502	Go_O	1.0
526.879	1.0	go	0.97	Go_X	1.0
529.404	1.0	go	0.576	Go_O	1.0
531.928	1.0	go	0.662	Go_X	1.0
534.452	0.55	stop	0.681	Go_O	0.0
536.976	1.0	go	0.765	Go_X	1.0
539.5	1.0	go	0.758	Go_O	1.0
542.024	1.0	go	0.683	Go_O	1.0
544.549	1.0	go	0.86	Go_X	1.0
547.073	1.0	go	0.658	Go_X	1.0
549.597	1.0	go	0.685	Go_O	1.0
552.121	0.5	stop	0.0	Go_X	1.0
554.645	1.0	go	0.785	Go_X	1.0
557.169	1.0	go	0.731	Go_O	1.0
559.693	0.55	stop	0.662	Go_O	0.0
562.218	1.0	go	0.69	Go_O	1.0
564.742	0.5	stop	0.0	Go_X	1.0
567.266	0.55	stop	0.0	Go_O	1.0
569.79	1.0	go	0.975	Go_X	1.0
572.314	1.0	go	0.932	Go_X	1.0
574.838	1.0	go	0.0	Go_O	0.0
577.363	1.0	go	0.756	Go_O	1.0
579.887	0.6	stop	0.0	Go_X	1.0
582.411	1.0	go	0.803	Go_X	1.0
584.935	0.65	stop	0.0	Go_O	1.0
587.459	1.0	go	0.0	Go_O	0.0
589.983	1.0	go	0.853	Go_X	1.0
592.508	1.0	go	0.79	Go_O	1.0
595.032	1.0	go	0.749	Go_X	1.0
597.556	1.0	go	0.639	Go_X	1.0
600.08	1.0	go	0.493	Go_O	1.0
602.604	1.0	go	0.725	Go_O	1.0
605.128	1.0	go	0.98	Go_X	1.0
607.653	1.0	go	0.432	Go_X	1.0
610.177	0.7	stop	0.575	Go_X	0.0
612.701	1.0	go	0.898	Go_O	1.0
615.225	1.0	go	0.0	Go_X	0.0
617.749	1.0	go	0.668	Go_O	1.0
620.273	0.65	stop	0.0	Go_O	1.0
622.797	1.0	go	0.768	Go_X	1.0
625.322	1.0	go	0.851	Go_O	1.0
627.846	1.0	go	0.586	Go_O	1.0
630.37	1.0	go	0.581	Go_X	1.0
632.894	1.0	go	0.554	Go_X	1.0
635.418	1.0	go	0.895	Go_O	1.0
637.942	0.7	stop	0.76	Go_X	0.0
640.467	1.0	go	0.584	Go_X	1.0
642.991	1.0	go	0.824	Go_O	1.0
645.515	0.65	stop	0.0	Go_O	1.0
648.039	1.0	go	0.777	Go_O	1.0
650.563	1.0	go	0.0	Go_X	0.0
653.087	0.7	stop	0.583	Go_X	0.0
655.612	1.0	go	0.858	Go_X	1.0
658.136	0.65	stop	0.0	Go_O	1.0
660.66	1.0	go	0.758	Go_O	1.0
663.184	1.0	go	0.992	Go_X	1.0
665.708	1.0	go	0.0	Go_O	0.0
668.232	1.0	go	0.851	Go_X	1.0
670.757	1.0	go	0.768	Go_O	1.0
673.281	0.7	stop	0.0	Go_X	1.0
675.805	0.75	stop	0.407	Go_O	0.0
678.329	1.0	go	0.713	Go_X	1.0
680.853	1.0	go	0.887	Go_O	1.0
683.377	0.7	stop	0.0	Go_X	1.0
685.902	1.0	go	0.679	Go_X	1.0
688.426	1.0	go	0.578	Go_O	1.0
690.95	1.0	go	0.893	Go_X	1.0
693.474	1.0	go	0.0	Go_O	0.0
695.998	1.0	go	0.0	Go_X	0.0
698.522	1.0	go	0.584	Go_O	1.0
701.046	0.75	stop	0.717	Go_O	0.0
703.571	1.0	go	0.924	Go_O	1.0
706.095	1.0	go	0.694	Go_X	1.0
708.619	1.0	go	0.0	Go_O	0.0
711.143	1.0	go	0.548	Go_X	1.0
713.667	1.0	go	0.901	Go_O	1.0
716.191	0.7	stop	0.789	Go_X	0.0
718.716	1.0	go	0.683	Go_X	1.0
721.24	1.0	go	0.907	Go_X	1.0
723.764	1.0	go	0.852	Go_O	1.0
726.288	1.0	go	0.705	Go_O	1.0
728.812	0.65	stop	0.766	Go_O	0.0
731.336	1.0	go	0.75	Go_X	1.0
733.861	1.0	go	0.939	Go_X	1.0
736.385	0.6	stop	0.727	Go_X	0.0
738.909	1.0	go	0.487	Go_O	1.0
741.433	0.55	stop	0.0	Go_O	1.0
743.957	1.0	go	0.933	Go_O	1.0
746.481	1.0	go	0.692	Go_X	1.0
749.006	1.0	go	0.858	Go_X	1.0
751.53	1.0	go	0.0	Go_O	0.0
754.054	1.0	go	0.806	Go_O	1.0
756.578	1.0	go	0.824	Go_X	0.0
759.102	1.0	go	0.576	Go_O	1.0
761.626	0.6	stop	0.0	Go_X	1.0
764.151	1.0	go	0.754	Go_X	1.0
766.675	1.0	go	0.793	Go_O	1.0
769.199	1.0	go	0.708	Go_X	1.0
771.723	0.65	stop	0.0	Go_O	1.0
774.247	1.0	go	0.577	Go_X	1.0
776.771	1.0	go	0.897	Go_O	1.0
779.295	1.0	go	0.737	Go_O	1.0
781.82	1.0	go	0.0	Go_X	0.0
784.344	0.7	stop	0.454	Go_X	0.0
786.868	1.0	go	0.623	Go_O	1.0
789.392	1.0	go	0.838	Go_X	0.0
791.916	0.65	stop	0.0	Go_O	1.0
794.44	1.0	go	0.928	Go_X	1.0
796.965	1.0	go	0.0	Go_O	0.0
799.489	0.7	stop	0.0	Go_X	1.0
802.013	1.0	go	0.855	Go_X	1.0
804.537	1.0	go	0.0	Go_O	0.0
807.061	0.75	stop	0.0	Go_O	1.0
809.585	1.0	go	0.766	Go_O	1.0
812.11	1.0	go	0.0	Go_X	0.0
814.634	1.0	go	0.0	Go_O	0.0
817.158	1.0	go	0.892	Go_X	1.0
819.682	1.0	go	0.578	Go_X	1.0
822.206	1.0	go	0.962	Go_O	1.0
824.73	0.8	stop	0.0	Go_X	1.0
827.255	1.0	go	0.943	Go_O	1.0
829.779	0.85	stop	0.787	Go_O	0.0
832.303	1.0	go	0.0	Go_X	0.0
834.827	1.0	go	0.0	Go_O	0.0
837.351	1.0	go	0.0	Go_X	0.0
839.875	1.0	go	0.915	Go_O	1.0
842.399	1.0	go	0.753	Go_X	1.0
844.924	0.8	stop	0.579	Go_X	0.0
847.448	1.0	go	0.523	Go_O	1.0
849.972	1.0	go	0.694	Go_X	1.0
852.496	1.0	go	0.622	Go_X	1.0
855.02	0.75	stop	0.544	Go_O	0.0
857.544	0.7	stop	0.901	Go_X	0.0
860.069	0.65	stop	0.0	Go_O	1.0
862.593	1.0	go	0.928	Go_O	1.0
865.117	0.7	stop	0.806	Go_X	0.0
867.641	1.0	go	0.823	Go_X	1.0
870.165	1.0	go	0.925	Go_O	1.0
872.689	1.0	go	0.706	Go_O	0.0
875.214	1.0	go	0.758	Go_X	1.0
877.738	1.0	go	0.692	Go_X	1.0
880.262	1.0	go	0.0	Go_O	0.0
882.786	1.0	go	0.446	Go_O	1.0
885.31	1.0	go	0.0	Go_X	0.0
887.834	0.65	stop	0.0	Go_O	1.0
890.359	1.0	go	0.585	Go_O	1.0
892.883	1.0	go	0.0	Go_X	0.0
895.407	0.7	stop	0.515	Go_X	0.0
897.931	1.0	go	0.863	Go_X	1.0
900.455	1.0	go	0.617	Go_O	1.0
902.979	1.0	go	0.0	Go_O	0.0
905.504	1.0	go	0.904	Go_X	1.0
908.028	1.0	go	0.649	Go_X	1.0
910.552	0.65	stop	0.0	Go_O	1.0
913.076	1.0	go	0.0	Go_O	0.0
915.6	1.0	go	0.0	Go_X	0.0
918.124	1.0	go	0.579	Go_O	1.0
920.648	0.7	stop	0.868	Go_X	0.0
923.173	1.0	go	0.794	Go_X	0.0
925.697	0.65	stop	0.0	Go_O	1.0
928.221	1.0	go	0.688	Go_O	1.0
930.745	1.0	go	0.493	Go_X	1.0
933.269	1.0	go	0.669	Go_O	1.0
935.793	1.0	go	0.564	Go_O	1.0
938.318	1.0	go	0.559	Go_X	1.0
940.842	1.0	go	0.769	Go_X	1.0
943.366	1.0	go	0.66	Go_O	1.0
945.89	0.7	stop	0.0	Go_X	1.0
948.414	1.0	go	0.0	Go_O	0.0
950.938	1.0	go	0.843	Go_X	1.0
953.463	1.0	go	0.719	Go_X	1.0
955.987	1.0	go	0.946	Go_O	1.0
958.511	0.75	stop	0.0	Go_O	1.0
961.035	1.0	go	0.982	Go_O	1.0
963.559	0.8	stop	0.918	Go_X	0.0
966.083	1.0	go	0.785	Go_X	1.0
968.608	1.0	go	0.0	Go_O	0.0
971.132	0.75	stop	0.76	Go_O	0.0
973.656	1.0	go	0.0	Go_X	0.0
976.18	1.0	go	0.994	Go_X	1.0
978.704	1.0	go	0.958	Go_O	1.0
981.228	1.0	go	0.0	Go_X	0.0
983.753	1.0	go	0.99	Go_O	1.0
986.277	1.0	go	0.858	Go_X	1.0
988.801	1.0	go	0.0	Go_O	0.0
991.325	1.0	go	0.0	Go_X	0.0
993.849	1.0	go	0.951	Go_O	1.0
996.373	1.0	go	0.917	Go_X	1.0
998.897	0.7	stop	0.0	Go_X	1.0
1001.422	1.0	go	0.946	Go_O	1.0
1003.946	1.0	go	0.723	Go_O	0.0
1006.47	0.75	stop	0.867	Go_O	0.0
1008.994	1.0	go	0.872	Go_X	1.0
1011.518	0.7	stop	0.0	Go_X	1.0
1014.042	1.0	go	0.629	Go_X	1.0
1016.567	1.0	go	0.887	Go_O	1.0
1019.091	0.75	stop	0.783	Go_O	0.0
1021.615	1.0	go	0.658	Go_X	1.0
1024.139	0.7	stop	0.789	Go_X	0.0
1026.663	1.0	go	0.0	Go_O	0.0
1029.187	1.0	go	0.689	Go_X	1.0
1031.712	1.0	go	0.521	Go_O	1.0
1034.236	0.65	stop	0.838	Go_O	0.0
1036.76	1.0	go	0.0	Go_O	0.0
1039.284	1.0	go	0.76	Go_X	1.0
1041.808	1.0	go	0.792	Go_O	1.0
1044.332	1.0	go	0.0	Go_X	0.0
1046.857	0.6	stop	0.0	Go_X	1.0
1049.381	1.0	go	0.0	Go_O	0.0
1051.905	1.0	go	0.97	Go_X	1.0
1054.429	0.65	stop	0.774	Go_O	0.0
1056.953	1.0	go	0.0	Go_O	0.0
1059.477	1.0	go	0.0	Go_X	0.0
1062.001	1.0	go	0.603	Go_X	1.0
1064.526	1.0	go	0.868	Go_O	1.0
1067.05	0.6	stop	0.903	Go_X	0.0
1069.574	1.0	go	0.981	Go_O	1.0
1072.098	0.55	stop	0.0	Go_O	1.0
1074.622	1.0	go	0.883	Go_X	1.0
1077.146	1.0	go	0.858	Go_O	1.0
1079.671	0.6	stop	0.0	Go_X	1.0
1082.195	1.0	go	0.862	Go_X	1.0
1084.719	1.0	go	0.919	Go_O	1.0
1087.243	1.0	go	0.953	Go_X	1.0
1089.767	1.0	go	0.744	Go_X	1.0
1092.291	0.65	stop	0.547	Go_O	0.0
1094.816	1.0	go	0.0	Go_O	0.0
1097.34	0.6	stop	0.639	Go_X	0.0
1099.864	1.0	go	0.85	Go_O	1.0
1102.388	1.0	go	0.967	Go_X	1.0
1104.912	1.0	go	0.536	Go_X	1.0
1107.436	1.0	go	0.996	Go_O	1.0
1109.961	1.0	go	0.81	Go_X	1.0
1112.485	1.0	go	0.782	Go_O	1.0
1115.009	0.55	stop	0.0	Go_O	1.0
1117.533	1.0	go	0.998	Go_O	1.0
1120.057	1.0	go	0.653	Go_X	1.0
1122.581	0.6	stop	0.0	Go_X	1.0
1125.106	1.0	go	0.692	Go_X	1.0
1127.63	1.0	go	0.703	Go_O	1.0
1130.154	0.65	stop	0.782	Go_O	0.0
1132.678	1.0	go	0.743	Go_X	1.0
1135.202	1.0	go	0.625	Go_O	1.0
1137.726	1.0	go	0.0	Go_X	0.0
1140.25	1.0	go	0.0	Go_O	0.0
1142.775	0.6	stop	0.0	Go_X	1.0
1145.299	1.0	go	0.857	Go_X	0.0
1147.823	0.65	stop	0.0	Go_O	1.0
1150.347	1.0	go	0.891	Go_O	0.0
1152.871	1.0	go	0.0	Go_X	0.0
1155.395	1.0	go	0.69	Go_O	1.0
1157.92	1.0	go	0.607	Go_O	1.0
1160.444	1.0	go	0.61	Go_X	1.0
1162.968	0.7	stop	0.0	Go_X	1.0
1165.492	1.0	go	0.514	Go_O	1.0
1168.016	1.0	go	0.925	Go_X	0.0
1170.54	0.75	stop	0.837	Go_O	0.0
1173.065	0.7	stop	0.411	Go_X	0.0
1175.589	1.0	go	0.75	Go_O	1.0
1178.113	1.0	go	0.994	Go_X	0.0
1180.637	1.0	go	0.74	Go_O	1.0
1183.161	1.0	go	0.744	Go_X	1.0
1185.685	0.65	stop	0.0	Go_O	1.0
1188.21	1.0	go	0.895	Go_X	1.0
