onset	duration	trial_type	response_time	stim_file	accuracy
58.719	1.0	go	0.933	Go_X	1.0
61.26	1.0	go	0.38	Go_O	1.0
63.784	1.0	go	0.403	Go_O	1.0
66.308	1.0	go	0.301	Go_X	1.0
68.832	1.0	go	0.345	Go_X	1.0
71.357	1.0	go	0.369	Go_O	1.0
73.881	0.25	stopfail	0.398	Go_O	0.0
76.405	1.0	go	0.438	Go_O	1.0
78.929	0.2	stopfail	0.347	Go_X	0.0
81.453	1.0	go	0.386	Go_X	1.0
83.978	1.0	go	0.533	Go_X	1.0
86.502	1.0	go	0.326	Go_O	1.0
89.026	0.15	stopsuccess	0.0	Go_O	1.0
91.55	1.0	go	0.482	Go_O	1.0
94.074	1.0	go	0.304	Go_X	1.0
96.599	0.2	stopsuccess	0.0	Go_X	1.0
99.123	0.25	stopfail	0.303	Go_O	0.0
101.647	1.0	go	0.574	Go_X	1.0
104.171	1.0	go	0.535	Go_O	1.0
106.695	0.2	stopsuccess	0.0	Go_X	1.0
109.22	1.0	go	0.504	Go_X	1.0
111.744	1.0	go	0.494	Go_O	1.0
114.268	0.25	stopsuccess	0.0	Go_O	1.0
116.792	1.0	go	0.332	Go_X	1.0
119.316	1.0	go	0.329	Go_O	1.0
121.841	0.3	stopsuccess	0.0	Go_X	1.0
124.365	1.0	go	0.403	Go_X	1.0
126.889	1.0	go	0.401	Go_O	1.0
129.413	0.35	stopfail	0.467	Go_O	0.0
131.937	1.0	go	0.447	Go_O	0.0
134.462	1.0	go	0.499	Go_X	1.0
136.986	1.0	go	0.529	Go_X	1.0
139.51	1.0	go	0.389	Go_O	1.0
142.034	1.0	go	0.579	Go_O	1.0
144.558	0.3	stopsuccess	0.0	Go_X	1.0
147.083	1.0	go	0.37	Go_X	1.0
149.607	1.0	go	0.965	Go_O	1.0
152.131	1.0	go	0.359	Go_X	1.0
154.655	1.0	go	0.318	Go_O	1.0
157.179	1.0	go	0.369	Go_X	1.0
159.704	0.35	stopfail	0.48	Go_O	0.0
162.228	1.0	go	0.383	Go_X	1.0
164.752	1.0	go	0.48	Go_O	1.0
167.276	1.0	go	0.522	Go_X	1.0
169.8	1.0	go	0.244	Go_O	1.0
172.325	1.0	go	0.517	Go_O	1.0
174.849	1.0	go	0.385	Go_X	1.0
177.373	0.3	stopfail	0.422	Go_X	0.0
179.897	1.0	go	0.448	Go_O	1.0
182.421	1.0	go	0.461	Go_X	0.0
184.946	0.25	stopsuccess	0.0	Go_O	1.0
187.47	1.0	go	0.453	Go_O	1.0
189.994	0.3	stopfail	0.445	Go_X	0.0
192.518	0.25	stopfail	0.277	Go_O	0.0
195.042	1.0	go	0.372	Go_X	1.0
197.567	1.0	go	0.325	Go_O	1.0
200.091	1.0	go	0.468	Go_X	1.0
202.615	1.0	go	0.487	Go_X	1.0
205.139	0.2	stopsuccess	0.0	Go_X	1.0
207.663	1.0	go	0.349	Go_O	1.0
210.188	0.25	stopfail	0.381	Go_O	0.0
212.712	1.0	go	0.498	Go_X	1.0
215.236	1.0	go	0.428	Go_O	1.0
217.76	1.0	go	0.348	Go_X	1.0
220.284	1.0	go	0.571	Go_O	1.0
222.809	1.0	go	0.516	Go_X	1.0
225.333	1.0	go	0.504	Go_O	1.0
227.857	1.0	go	0.565	Go_O	1.0
230.381	1.0	go	0.318	Go_X	1.0
232.906	1.0	go	0.368	Go_O	1.0
235.43	0.2	stopsuccess	0.0	Go_X	1.0
237.954	1.0	go	0.44	Go_X	0.0
240.478	1.0	go	0.381	Go_X	0.0
243.002	1.0	go	0.435	Go_O	0.0
245.527	0.25	stopsuccess	0.0	Go_O	1.0
248.051	1.0	go	0.423	Go_O	1.0
250.575	1.0	go	0.503	Go_X	1.0
253.099	1.0	go	0.627	Go_X	1.0
255.623	1.0	go	0.367	Go_O	1.0
258.148	1.0	go	0.496	Go_X	1.0
260.672	1.0	go	0.468	Go_O	1.0
263.196	0.3	stopsuccess	0.0	Go_X	1.0
265.72	1.0	go	0.539	Go_X	1.0
268.244	1.0	go	0.561	Go_O	1.0
270.769	0.35	stopfail	0.488	Go_O	0.0
273.293	1.0	go	0.382	Go_X	1.0
275.817	1.0	go	0.687	Go_O	1.0
278.341	0.3	stopsuccess	0.0	Go_X	1.0
280.865	1.0	go	0.517	Go_X	1.0
283.39	0.35	stopfail	0.498	Go_O	0.0
285.914	1.0	go	0.443	Go_O	1.0
288.438	1.0	go	0.562	Go_X	1.0
290.962	1.0	go	0.517	Go_O	1.0
293.486	1.0	go	0.463	Go_X	1.0
296.011	1.0	go	0.425	Go_O	1.0
298.535	0.3	stopfail	0.392	Go_X	0.0
301.059	0.25	stopfail	0.26	Go_O	0.0
303.583	1.0	go	0.431	Go_X	1.0
306.107	1.0	go	0.629	Go_O	1.0
308.632	0.2	stopsuccess	0.0	Go_X	1.0
311.156	1.0	go	0.384	Go_X	1.0
313.68	1.0	go	0.487	Go_O	1.0
316.204	1.0	go	0.386	Go_X	1.0
318.728	1.0	go	0.44	Go_O	1.0
321.253	1.0	go	0.494	Go_O	1.0
323.777	1.0	go	0.566	Go_X	0.0
326.301	0.25	stopfail	0.346	Go_O	0.0
328.825	1.0	go	0.278	Go_X	1.0
331.349	1.0	go	0.357	Go_O	1.0
333.874	1.0	go	0.466	Go_O	1.0
336.398	1.0	go	0.315	Go_X	1.0
338.922	1.0	go	0.904	Go_X	1.0
341.446	0.2	stopsuccess	0.0	Go_X	1.0
343.97	1.0	go	0.421	Go_O	1.0
346.495	1.0	go	0.0	Go_X	0.0
349.019	1.0	go	0.309	Go_O	1.0
351.543	1.0	go	0.288	Go_X	1.0
354.067	0.25	stopfail	0.288	Go_O	0.0
356.591	1.0	go	0.238	Go_O	0.0
359.116	1.0	go	0.404	Go_X	1.0
361.64	0.2	stopfail	0.436	Go_X	0.0
364.164	1.0	go	0.296	Go_O	1.0
366.688	0.15	stopsuccess	0.0	Go_O	1.0
369.212	1.0	go	0.4	Go_X	1.0
371.737	1.0	go	0.464	Go_O	1.0
374.261	1.0	go	0.469	Go_X	1.0
376.785	1.0	go	0.599	Go_O	1.0
379.309	1.0	go	0.692	Go_X	1.0
381.833	1.0	go	0.463	Go_O	1.0
384.358	1.0	go	0.459	Go_X	1.0
386.882	0.2	stopsuccess	0.0	Go_X	1.0
389.406	1.0	go	0.595	Go_O	1.0
391.93	1.0	go	0.546	Go_X	1.0
394.454	1.0	go	0.489	Go_O	1.0
396.979	0.25	stopsuccess	0.0	Go_O	1.0
399.503	1.0	go	0.543	Go_X	1.0
402.027	1.0	go	0.607	Go_O	1.0
404.551	1.0	go	0.568	Go_X	1.0
407.076	1.0	go	0.383	Go_O	1.0
409.6	0.3	stopfail	0.451	Go_X	0.0
412.124	1.0	go	0.667	Go_O	1.0
414.648	1.0	go	0.5	Go_X	1.0
417.172	0.25	stopsuccess	0.0	Go_O	1.0
419.697	1.0	go	0.427	Go_O	1.0
422.221	1.0	go	0.455	Go_X	1.0
424.745	0.3	stopsuccess	0.0	Go_X	1.0
427.269	1.0	go	0.384	Go_X	1.0
429.793	1.0	go	0.426	Go_O	1.0
432.318	0.35	stopfail	0.415	Go_O	0.0
434.842	1.0	go	0.446	Go_O	1.0
437.366	1.0	go	0.379	Go_X	1.0
439.89	1.0	go	0.515	Go_X	1.0
442.414	1.0	go	0.455	Go_O	1.0
444.939	1.0	go	0.347	Go_O	1.0
447.463	1.0	go	0.305	Go_X	1.0
449.987	0.3	stopsuccess	0.0	Go_X	1.0
452.511	1.0	go	0.514	Go_X	1.0
455.035	0.35	stopfail	0.592	Go_O	0.0
457.56	1.0	go	0.299	Go_O	1.0
460.084	1.0	go	0.344	Go_X	1.0
462.608	1.0	go	0.644	Go_O	1.0
465.132	1.0	go	0.377	Go_O	1.0
467.656	1.0	go	0.543	Go_X	1.0
470.181	0.3	stopsuccess	0.0	Go_X	1.0
472.705	1.0	go	0.412	Go_X	1.0
475.229	1.0	go	0.458	Go_O	1.0
477.753	1.0	go	0.449	Go_X	1.0
480.277	0.35	stopsuccess	0.0	Go_O	1.0
482.802	0.4	stopfail	0.337	Go_X	0.0
485.326	0.35	stopsuccess	0.0	Go_O	1.0
487.85	1.0	go	0.561	Go_O	1.0
490.374	0.4	stopfail	0.587	Go_X	0.0
492.898	1.0	go	0.498	Go_O	1.0
495.423	1.0	go	0.578	Go_X	0.0
497.947	1.0	go	0.545	Go_X	1.0
500.471	1.0	go	0.484	Go_O	1.0
502.995	1.0	go	0.371	Go_X	1.0
505.519	1.0	go	0.503	Go_O	1.0
508.044	1.0	go	0.883	Go_X	1.0
510.568	1.0	go	0.355	Go_O	1.0
513.092	0.35	stopfail	0.461	Go_O	0.0
515.616	1.0	go	0.45	Go_X	1.0
518.14	1.0	go	0.462	Go_O	1.0
520.665	0.3	stopsuccess	0.0	Go_X	1.0
523.189	1.0	go	0.45	Go_X	1.0
525.713	1.0	go	0.494	Go_O	1.0
528.237	1.0	go	0.499	Go_X	1.0
530.761	1.0	go	0.364	Go_O	1.0
533.286	1.0	go	0.388	Go_O	1.0
535.81	0.35	stopfail	0.37	Go_O	0.0
538.334	1.0	go	0.244	Go_X	1.0
540.858	1.0	go	0.445	Go_X	0.0
543.382	1.0	go	0.578	Go_O	0.0
545.907	0.3	stopfail	0.378	Go_X	0.0
548.431	1.0	go	0.364	Go_X	0.0
550.955	0.25	stopfail	0.34	Go_O	0.0
553.479	1.0	go	0.528	Go_O	1.0
556.003	1.0	go	0.623	Go_X	1.0
558.528	1.0	go	0.58	Go_O	1.0
561.052	1.0	go	0.574	Go_X	1.0
563.576	1.0	go	0.611	Go_O	1.0
566.1	1.0	go	0.445	Go_O	1.0
568.625	1.0	go	0.307	Go_X	1.0
571.149	0.2	stopfail	0.426	Go_X	0.0
573.673	1.0	go	0.409	Go_O	1.0
576.197	1.0	go	0.455	Go_X	1.0
578.721	1.0	go	0.556	Go_X	1.0
581.246	1.0	go	0.541	Go_O	1.0
583.77	0.15	stopsuccess	0.0	Go_O	1.0
586.294	1.0	go	0.588	Go_O	1.0
588.818	0.2	stopsuccess	0.0	Go_X	1.0
591.342	1.0	go	0.442	Go_X	1.0
593.867	1.0	go	0.493	Go_O	1.0
596.391	0.25	stopsuccess	0.0	Go_O	1.0
598.915	1.0	go	0.592	Go_X	1.0
601.439	1.0	go	0.523	Go_X	1.0
603.963	1.0	go	0.743	Go_O	1.0
606.488	1.0	go	0.547	Go_X	1.0
609.012	1.0	go	0.643	Go_O	1.0
611.536	1.0	go	0.42	Go_X	1.0
614.06	1.0	go	0.586	Go_O	1.0
616.584	1.0	go	0.452	Go_O	1.0
619.109	1.0	go	0.43	Go_X	1.0
621.633	1.0	go	0.457	Go_O	1.0
624.157	0.3	stopsuccess	0.0	Go_X	1.0
626.681	1.0	go	0.595	Go_X	0.0
629.205	1.0	go	0.394	Go_X	1.0
631.73	0.35	stopfail	0.48	Go_O	0.0
634.254	1.0	go	0.655	Go_O	1.0
636.778	0.3	stopsuccess	0.0	Go_X	1.0
639.302	1.0	go	0.562	Go_X	1.0
641.826	1.0	go	0.684	Go_O	1.0
644.351	0.35	stopsuccess	0.0	Go_O	1.0
646.875	1.0	go	0.85	Go_X	0.0
649.399	0.4	stopfail	0.473	Go_X	0.0
651.923	1.0	go	0.426	Go_O	1.0
654.447	1.0	go	0.676	Go_X	1.0
656.972	1.0	go	0.611	Go_O	1.0
659.496	0.35	stopsuccess	0.0	Go_O	1.0
662.02	1.0	go	0.407	Go_X	1.0
664.544	1.0	go	0.51	Go_O	1.0
667.068	1.0	go	0.488	Go_O	1.0
669.593	1.0	go	0.465	Go_X	1.0
672.117	0.4	stopfail	0.566	Go_X	0.0
674.641	1.0	go	0.591	Go_X	1.0
677.165	1.0	go	0.582	Go_O	1.0
679.689	0.35	stopsuccess	0.0	Go_O	1.0
682.214	1.0	go	0.532	Go_O	1.0
684.738	1.0	go	0.859	Go_X	1.0
687.262	1.0	go	0.454	Go_X	1.0
689.786	1.0	go	0.581	Go_O	1.0
692.31	0.4	stopfail	0.558	Go_X	0.0
694.835	1.0	go	0.353	Go_X	0.0
697.359	0.35	stopfail	0.38	Go_O	0.0
699.883	1.0	go	0.595	Go_O	1.0
702.407	1.0	go	0.371	Go_X	1.0
704.931	0.3	stopsuccess	0.0	Go_X	1.0
707.456	1.0	go	0.52	Go_O	1.0
709.98	1.0	go	0.451	Go_O	1.0
712.504	1.0	go	0.468	Go_X	1.0
715.028	1.0	go	0.617	Go_O	1.0
717.552	0.35	stopsuccess	0.0	Go_O	1.0
720.077	1.0	go	0.433	Go_X	1.0
722.601	0.4	stopsuccess	0.0	Go_X	1.0
725.125	1.0	go	0.628	Go_O	1.0
727.649	1.0	go	0.804	Go_X	1.0
730.174	1.0	go	0.442	Go_X	1.0
732.698	1.0	go	0.42	Go_O	1.0
735.222	1.0	go	0.394	Go_X	1.0
737.746	1.0	go	0.7	Go_O	1.0
740.27	0.45	stopfail	0.474	Go_O	0.0
742.795	1.0	go	0.585	Go_O	1.0
745.319	1.0	go	0.585	Go_X	1.0
747.843	0.4	stopfail	0.499	Go_X	0.0
750.367	1.0	go	0.42	Go_X	1.0
752.891	1.0	go	0.404	Go_O	1.0
755.416	0.35	stopfail	0.381	Go_O	0.0
757.94	1.0	go	0.307	Go_X	1.0
760.464	1.0	go	0.44	Go_O	1.0
762.988	1.0	go	0.588	Go_X	1.0
765.512	1.0	go	0.467	Go_O	1.0
768.037	0.3	stopsuccess	0.0	Go_X	1.0
770.561	1.0	go	0.453	Go_X	1.0
773.085	0.35	stopfail	0.377	Go_O	0.0
775.609	1.0	go	0.357	Go_O	1.0
778.133	1.0	go	0.374	Go_O	1.0
780.658	1.0	go	0.325	Go_X	1.0
783.182	1.0	go	0.516	Go_O	1.0
785.706	1.0	go	0.489	Go_X	1.0
788.23	0.3	stopfail	0.428	Go_X	0.0
790.754	1.0	go	0.515	Go_O	1.0
793.279	1.0	go	0.414	Go_X	0.0
795.803	0.25	stopsuccess	0.0	Go_O	1.0
798.327	0.3	stopfail	0.3	Go_X	0.0
800.851	1.0	go	0.254	Go_X	1.0
803.375	1.0	go	0.515	Go_O	1.0
805.9	1.0	go	0.611	Go_O	1.0
808.424	1.0	go	0.373	Go_X	1.0
810.948	0.25	stopsuccess	0.0	Go_O	1.0
813.472	1.0	go	0.57	Go_X	0.0
