onset	duration	trial_type	response_time	stim_file	accuracy
57.383	1.0	go	0.844	Go_X	0.0
59.907	1.0	go	0.824	Go_O	0.0
62.431	1.0	go	0.678	Go_O	0.0
64.955	1.0	go	0.973	Go_X	0.0
67.479	1.0	go	0.811	Go_O	0.0
70.004	1.0	go	0.87	Go_X	0.0
72.528	0.25	stopsuccess	0.0	Go_O	1.0
75.069	1.0	go	0.601	Go_O	0.0
77.61	0.3	stopsuccess	0.0	Go_X	1.0
80.151	1.0	go	0.826	Go_X	0.0
82.675	1.0	go	0.493	Go_O	0.0
85.199	1.0	go	0.489	Go_X	0.0
87.723	0.35	stopsuccess	0.0	Go_O	1.0
90.248	1.0	go	0.767	Go_X	0.0
92.772	1.0	go	0.601	Go_O	0.0
95.296	0.4	stopsuccess	0.0	Go_X	1.0
97.837	0.45	stopsuccess	0.0	Go_O	1.0
100.361	1.0	go	0.777	Go_O	1.0
102.885	1.0	go	0.0	Go_X	0.0
105.41	0.5	stopfail	0.607	Go_X	0.0
107.934	1.0	go	0.361	Go_X	0.0
110.458	1.0	go	0.312	Go_O	0.0
112.982	0.45	stopsuccess	0.0	Go_O	1.0
115.506	1.0	go	0.723	Go_X	0.0
118.031	1.0	go	0.92	Go_O	0.0
120.555	0.5	stopsuccess	0.0	Go_X	1.0
123.096	1.0	go	0.765	Go_X	0.0
125.62	1.0	go	0.763	Go_O	0.0
128.144	0.55	stopsuccess	0.0	Go_O	1.0
130.668	1.0	go	0.504	Go_X	0.0
133.193	1.0	go	0.845	Go_O	0.0
135.717	1.0	go	0.0	Go_X	0.0
138.241	1.0	go	0.44	Go_O	1.0
140.765	1.0	go	0.43	Go_X	1.0
143.289	0.6	stopfail	0.697	Go_X	0.0
145.814	1.0	go	0.699	Go_O	0.0
148.338	1.0	go	0.395	Go_X	0.0
150.862	1.0	go	0.713	Go_O	0.0
153.386	1.0	go	0.713	Go_O	1.0
155.911	1.0	go	0.552	Go_X	0.0
158.435	0.55	stopfail	0.537	Go_O	0.0
160.959	1.0	go	0.668	Go_X	0.0
163.483	1.0	go	0.952	Go_O	1.0
166.007	1.0	go	0.74	Go_O	0.0
168.532	1.0	go	0.504	Go_X	0.0
171.056	1.0	go	0.0	Go_X	0.0
173.58	1.0	go	0.752	Go_O	0.0
176.104	0.5	stopfail	0.529	Go_X	0.0
178.628	1.0	go	0.513	Go_X	0.0
181.153	1.0	go	0.37	Go_O	0.0
183.677	0.45	stopfail	0.58	Go_O	0.0
186.201	1.0	go	0.421	Go_X	0.0
188.725	0.4	stopsuccess	0.0	Go_X	1.0
191.25	0.45	stopfail	0.456	Go_O	0.0
193.774	1.0	go	0.478	Go_O	0.0
196.298	1.0	go	0.361	Go_X	0.0
198.822	1.0	go	0.88	Go_O	0.0
201.346	1.0	go	0.647	Go_O	0.0
203.871	0.4	stopfail	0.576	Go_X	0.0
206.412	1.0	go	0.0	Go_X	0.0
208.936	0.35	stopfail	0.413	Go_O	0.0
211.46	1.0	go	0.961	Go_O	1.0
213.984	1.0	go	0.692	Go_X	1.0
216.508	1.0	go	0.739	Go_O	0.0
219.033	1.0	go	0.716	Go_X	0.0
221.557	1.0	go	0.504	Go_O	0.0
224.081	1.0	go	0.348	Go_X	0.0
226.605	1.0	go	0.376	Go_X	0.0
229.129	1.0	go	0.253	Go_O	0.0
231.654	1.0	go	0.331	Go_X	0.0
234.178	0.3	stopfail	0.361	Go_X	0.0
236.719	1.0	go	0.517	Go_O	0.0
239.243	1.0	go	0.35	Go_X	0.0
241.767	1.0	go	0.346	Go_O	0.0
244.291	0.25	stopsuccess	0.0	Go_O	1.0
246.816	1.0	go	0.39	Go_X	0.0
249.34	1.0	go	0.602	Go_O	0.0
251.864	1.0	go	0.499	Go_O	0.0
254.388	1.0	go	0.691	Go_X	0.0
256.913	1.0	go	0.0	Go_O	0.0
259.437	1.0	go	0.0	Go_X	0.0
261.978	0.3	stopfail	0.778	Go_X	0.0
264.502	1.0	go	0.815	Go_O	0.0
267.026	1.0	go	0.457	Go_X	1.0
269.55	0.25	stopsuccess	0.0	Go_O	1.0
272.075	1.0	go	0.189	Go_O	1.0
274.599	1.0	go	0.829	Go_X	1.0
277.123	0.3	stopfail	0.585	Go_X	0.0
279.647	1.0	go	0.512	Go_O	0.0
282.171	0.25	stopsuccess	0.0	Go_O	1.0
284.696	1.0	go	0.588	Go_X	0.0
287.22	1.0	go	0.4	Go_X	0.0
289.744	1.0	go	0.189	Go_O	0.0
292.268	1.0	go	0.424	Go_X	0.0
294.809	1.0	go	0.512	Go_O	0.0
297.35	0.3	stopfail	0.369	Go_X	0.0
299.874	0.25	stopfail	0.664	Go_O	0.0
302.399	1.0	go	0.916	Go_O	0.0
304.923	1.0	go	0.595	Go_X	0.0
307.447	0.2	stopsuccess	0.0	Go_X	1.0
309.971	1.0	go	0.404	Go_O	0.0
312.495	1.0	go	0.376	Go_X	0.0
315.02	1.0	go	0.569	Go_O	0.0
317.544	1.0	go	0.0	Go_X	0.0
320.068	1.0	go	0.771	Go_O	0.0
322.592	1.0	go	0.0	Go_X	0.0
325.116	0.25	stopfail	0.411	Go_O	0.0
327.641	1.0	go	0.6	Go_X	0.0
330.182	1.0	go	0.305	Go_O	0.0
332.706	1.0	go	0.323	Go_O	1.0
335.23	1.0	go	0.842	Go_X	1.0
337.754	1.0	go	0.604	Go_X	1.0
340.278	0.2	stopsuccess	0.0	Go_X	1.0
342.803	1.0	go	0.325	Go_O	1.0
345.327	1.0	go	0.476	Go_X	1.0
347.851	1.0	go	0.596	Go_O	1.0
350.38	1.0	go	0.33	Go_O	0.0
352.916	0.25	stopsuccess	0.0	Go_O	1.0
355.44	1.0	go	0.588	Go_X	1.0
357.965	1.0	go	0.869	Go_O	0.0
360.489	0.3	stopfail	0.239	Go_X	0.0
363.013	1.0	go	0.42	Go_X	1.0
365.537	0.25	stopsuccess	0.0	Go_O	1.0
368.062	1.0	go	0.477	Go_X	0.0
370.586	1.0	go	0.0	Go_O	0.0
373.11	1.0	go	0.604	Go_X	0.0
375.634	1.0	go	0.599	Go_O	0.0
378.158	1.0	go	0.422	Go_X	0.0
380.683	1.0	go	0.773	Go_O	0.0
383.207	1.0	go	0.357	Go_X	0.0
385.731	0.3	stopfail	0.975	Go_X	0.0
388.255	1.0	go	0.752	Go_O	0.0
390.779	1.0	go	0.465	Go_X	0.0
393.32	1.0	go	0.644	Go_O	0.0
395.845	0.25	stopfail	0.628	Go_O	0.0
398.369	1.0	go	0.628	Go_X	0.0
400.893	1.0	go	0.518	Go_O	1.0
403.434	1.0	go	0.535	Go_X	0.0
405.958	1.0	go	0.308	Go_O	0.0
408.482	0.2	stopfail	0.611	Go_X	0.0
411.007	1.0	go	0.779	Go_X	0.0
413.531	1.0	go	0.0	Go_O	0.0
416.072	0.15	stopsuccess	0.0	Go_O	1.0
418.613	1.0	go	0.404	Go_O	0.0
421.137	1.0	go	0.289	Go_X	0.0
423.661	0.2	stopsuccess	0.0	Go_X	1.0
426.185	1.0	go	0.542	Go_O	1.0
428.71	1.0	go	0.521	Go_X	0.0
431.234	0.25	stopfail	0.284	Go_O	0.0
433.775	1.0	go	0.705	Go_X	0.0
436.299	1.0	go	0.486	Go_O	0.0
438.84	1.0	go	0.809	Go_O	0.0
441.364	1.0	go	0.429	Go_X	0.0
443.888	1.0	go	0.398	Go_O	0.0
446.412	1.0	go	0.456	Go_X	0.0
448.937	0.2	stopfail	0.566	Go_X	0.0
451.461	1.0	go	0.533	Go_X	0.0
453.985	0.15	stopsuccess	0.0	Go_O	1.0
456.526	1.0	go	0.786	Go_O	0.0
459.05	1.0	go	0.245	Go_O	1.0
461.574	1.0	go	0.431	Go_X	0.0
464.099	1.0	go	0.376	Go_O	1.0
466.623	1.0	go	0.616	Go_X	1.0
469.147	0.2	stopsuccess	0.0	Go_X	1.0
471.688	1.0	go	0.0	Go_O	0.0
474.212	1.0	go	0.642	Go_X	0.0
476.736	1.0	go	0.41	Go_X	1.0
479.261	0.25	stopsuccess	0.0	Go_O	1.0
481.802	0.3	stopfail	0.889	Go_X	0.0
484.343	0.25	stopfail	0.692	Go_O	0.0
486.883	1.0	go	0.673	Go_O	0.0
489.408	0.2	stopsuccess	0.0	Go_X	1.0
491.932	1.0	go	0.369	Go_X	0.0
494.456	1.0	go	0.568	Go_O	0.0
496.98	1.0	go	0.313	Go_X	0.0
499.505	1.0	go	0.625	Go_O	0.0
502.029	1.0	go	0.554	Go_O	0.0
504.553	1.0	go	0.0	Go_X	0.0
507.077	1.0	go	0.775	Go_O	0.0
509.601	1.0	go	0.725	Go_X	1.0
512.126	0.25	stopfail	0.864	Go_O	0.0
514.65	1.0	go	0.457	Go_O	1.0
517.191	1.0	go	0.907	Go_X	1.0
519.732	0.2	stopsuccess	0.0	Go_X	1.0
522.273	1.0	go	0.584	Go_O	1.0
524.814	1.0	go	0.919	Go_X	1.0
527.338	1.0	go	0.0	Go_X	0.0
529.862	1.0	go	0.633	Go_O	0.0
532.386	1.0	go	0.0	Go_O	0.0
534.927	0.25	stopfail	0.436	Go_O	0.0
537.451	1.0	go	0.0	Go_X	0.0
539.976	1.0	go	0.0	Go_O	0.0
542.5	1.0	go	0.0	Go_X	0.0
545.043	0.2	stopsuccess	0.0	Go_X	1.0
547.598	1.0	go	0.438	Go_O	0.0
550.123	0.25	stopsuccess	0.0	Go_O	1.0
552.663	1.0	go	0.989	Go_X	1.0
555.188	1.0	go	0.0	Go_X	0.0
557.712	1.0	go	0.0	Go_O	0.0
560.236	1.0	go	0.553	Go_O	1.0
562.76	1.0	go	0.968	Go_X	1.0
565.285	1.0	go	0.731	Go_O	0.0
567.809	1.0	go	0.0	Go_X	0.0
570.335	0.3	stopfail	0.557	Go_X	0.0
572.874	1.0	go	0.502	Go_O	0.0
575.398	1.0	go	0.272	Go_X	0.0
577.922	1.0	go	0.467	Go_X	0.0
580.447	1.0	go	0.497	Go_O	0.0
582.971	0.25	stopsuccess	0.0	Go_O	1.0
585.512	1.0	go	0.4	Go_O	0.0
588.036	0.3	stopfail	0.444	Go_X	0.0
590.56	1.0	go	0.525	Go_X	1.0
593.084	1.0	go	0.6	Go_X	0.0
595.609	0.25	stopfail	0.293	Go_O	0.0
598.149	1.0	go	0.813	Go_O	0.0
600.674	1.0	go	0.624	Go_X	0.0
603.215	1.0	go	0.248	Go_O	0.0
605.739	1.0	go	0.328	Go_O	0.0
608.263	1.0	go	0.448	Go_X	0.0
610.787	1.0	go	0.401	Go_X	1.0
613.311	1.0	go	0.748	Go_O	1.0
615.836	1.0	go	0.0	Go_O	0.0
618.36	1.0	go	0.769	Go_X	0.0
620.884	1.0	go	0.452	Go_O	0.0
623.408	0.2	stopfail	0.345	Go_X	0.0
625.933	1.0	go	0.0	Go_X	0.0
628.457	1.0	go	0.863	Go_O	0.0
630.981	0.15	stopsuccess	0.0	Go_O	1.0
633.505	1.0	go	0.596	Go_X	0.0
636.029	0.2	stopsuccess	0.0	Go_X	1.0
638.57	1.0	go	0.78	Go_O	0.0
641.095	1.0	go	0.0	Go_X	0.0
643.64	0.25	stopfail	0.492	Go_O	0.0
646.176	1.0	go	0.562	Go_X	0.0
648.701	0.2	stopfail	0.331	Go_X	0.0
651.225	1.0	go	0.646	Go_O	0.0
653.749	1.0	go	0.645	Go_O	1.0
656.273	1.0	go	0.538	Go_X	1.0
658.797	0.15	stopsuccess	0.0	Go_O	1.0
661.322	1.0	go	0.674	Go_O	0.0
663.846	1.0	go	0.818	Go_X	0.0
666.37	1.0	go	0.948	Go_O	0.0
668.894	1.0	go	0.0	Go_X	0.0
671.419	0.2	stopfail	0.823	Go_X	0.0
673.959	1.0	go	0.0	Go_X	0.0
676.5	1.0	go	0.249	Go_O	0.0
679.041	0.15	stopsuccess	0.0	Go_O	1.0
681.566	1.0	go	0.392	Go_O	0.0
684.09	1.0	go	0.578	Go_X	0.0
686.614	1.0	go	0.412	Go_O	1.0
689.155	1.0	go	0.0	Go_X	0.0
691.679	0.2	stopfail	0.565	Go_X	0.0
694.22	1.0	go	0.0	Go_X	0.0
696.744	0.15	stopsuccess	0.0	Go_O	1.0
699.268	1.0	go	0.35	Go_O	0.0
701.793	1.0	go	0.62	Go_X	0.0
704.317	0.2	stopsuccess	0.0	Go_X	1.0
706.858	1.0	go	0.583	Go_O	1.0
709.382	1.0	go	0.0	Go_X	0.0
711.923	1.0	go	0.0	Go_O	0.0
714.447	1.0	go	0.675	Go_O	1.0
716.971	0.25	stopsuccess	0.0	Go_O	1.0
719.512	1.0	go	0.803	Go_X	1.0
722.037	0.3	stopfail	0.221	Go_X	0.0
724.577	1.0	go	0.621	Go_X	1.0
727.102	1.0	go	0.517	Go_O	1.0
729.626	1.0	go	0.587	Go_X	1.0
732.15	1.0	go	0.542	Go_O	1.0
734.674	1.0	go	0.528	Go_O	0.0
737.199	1.0	go	0.422	Go_X	0.0
739.739	0.25	stopfail	0.586	Go_O	0.0
742.264	1.0	go	0.7	Go_O	1.0
744.788	1.0	go	0.613	Go_X	1.0
747.312	0.2	stopsuccess	0.0	Go_X	1.0
749.836	1.0	go	0.0	Go_O	0.0
752.361	1.0	go	0.562	Go_X	0.0
754.885	0.25	stopfail	0.401	Go_O	0.0
757.426	1.0	go	0.762	Go_X	1.0
759.95	1.0	go	0.377	Go_O	0.0
762.474	1.0	go	0.731	Go_X	1.0
764.998	1.0	go	0.762	Go_O	1.0
767.523	0.2	stopfail	0.52	Go_X	0.0
770.064	1.0	go	0.763	Go_X	0.0
772.588	0.15	stopsuccess	0.0	Go_O	1.0
775.129	1.0	go	0.205	Go_O	0.0
777.653	1.0	go	0.732	Go_X	0.0
780.177	1.0	go	0.308	Go_O	0.0
782.718	1.0	go	0.544	Go_X	0.0
785.242	1.0	go	0.475	Go_O	0.0
787.766	0.2	stopsuccess	0.0	Go_X	1.0
790.291	1.0	go	0.533	Go_X	0.0
792.815	1.0	go	0.664	Go_O	0.0
795.339	0.25	stopsuccess	0.0	Go_O	1.0
797.863	0.3	stopsuccess	0.0	Go_X	1.0
800.387	1.0	go	0.497	Go_O	0.0
802.912	1.0	go	0.673	Go_X	0.0
805.453	1.0	go	0.0	Go_X	0.0
807.994	1.0	go	0.228	Go_O	0.0
810.518	0.35	stopsuccess	0.0	Go_O	1.0
813.059	1.0	go	0.341	Go_O	0.0
