onset	duration	trial_type	response_time	stim_file	accuracy
41.153	1.0	go	0.675	Go_O	1.0
43.778	1.0	go	0.482	Go_X	1.0
46.302	1.0	go	0.413	Go_O	1.0
48.826	1.0	go	0.321	Go_X	1.0
51.35	1.0	go	0.459	Go_X	1.0
53.874	1.0	go	0.481	Go_O	1.0
56.398	0.25	stopfail	0.434	Go_O	0.0
58.939	1.0	go	0.389	Go_X	1.0
61.464	0.2	stopsuccess	0.0	Go_X	1.0
64.004	1.0	go	0.392	Go_O	1.0
66.529	1.0	go	0.411	Go_O	1.0
69.053	1.0	go	0.296	Go_X	1.0
71.577	0.25	stopfail	0.424	Go_O	0.0
74.101	1.0	go	0.367	Go_O	1.0
76.625	1.0	go	0.532	Go_X	1.0
79.15	0.2	stopfail	0.336	Go_X	0.0
81.674	0.15	stopsuccess	0.0	Go_O	1.0
84.198	1.0	go	0.436	Go_X	1.0
86.722	1.0	go	0.408	Go_O	1.0
89.246	0.2	stopfail	0.359	Go_X	0.0
91.77	1.0	go	0.499	Go_X	1.0
94.295	1.0	go	0.481	Go_O	1.0
96.819	0.15	stopsuccess	0.0	Go_O	1.0
99.343	1.0	go	0.425	Go_X	1.0
101.867	1.0	go	0.584	Go_O	1.0
104.391	0.2	stopfail	0.336	Go_X	0.0
106.916	1.0	go	0.394	Go_O	1.0
109.44	1.0	go	0.479	Go_X	1.0
111.964	0.15	stopsuccess	0.0	Go_O	1.0
114.488	1.0	go	0.376	Go_O	1.0
117.012	1.0	go	0.385	Go_X	0.0
119.536	1.0	go	0.447	Go_X	1.0
122.061	1.0	go	0.463	Go_O	1.0
124.585	1.0	go	0.402	Go_O	1.0
127.109	0.2	stopfail	0.509	Go_X	0.0
129.633	1.0	go	0.385	Go_X	1.0
132.157	1.0	go	0.649	Go_X	1.0
134.682	1.0	go	0.461	Go_O	1.0
137.206	1.0	go	0.494	Go_O	1.0
139.73	1.0	go	0.423	Go_X	1.0
142.254	0.15	stopsuccess	0.0	Go_O	1.0
144.778	1.0	go	0.633	Go_O	1.0
147.302	1.0	go	0.52	Go_X	1.0
149.827	1.0	go	0.34	Go_X	0.0
152.351	1.0	go	0.457	Go_O	1.0
154.875	1.0	go	0.415	Go_O	1.0
157.399	1.0	go	0.408	Go_X	1.0
159.923	0.2	stopfail	0.495	Go_X	0.0
162.448	1.0	go	0.635	Go_X	0.0
164.972	1.0	go	0.604	Go_O	1.0
167.496	0.15	stopsuccess	0.0	Go_O	1.0
170.02	1.0	go	0.358	Go_X	1.0
172.544	0.2	stopsuccess	0.0	Go_X	1.0
175.069	0.25	stopfail	0.375	Go_O	0.0
177.593	1.0	go	0.374	Go_O	1.0
180.117	1.0	go	0.481	Go_X	1.0
182.641	1.0	go	0.521	Go_O	1.0
185.165	1.0	go	0.702	Go_O	1.0
187.689	0.2	stopfail	0.52	Go_X	0.0
190.214	1.0	go	0.517	Go_X	1.0
192.738	0.15	stopsuccess	0.0	Go_O	1.0
195.262	1.0	go	0.481	Go_O	1.0
197.786	1.0	go	0.357	Go_X	1.0
200.31	1.0	go	0.377	Go_X	1.0
202.835	1.0	go	0.477	Go_O	1.0
205.359	1.0	go	0.541	Go_O	1.0
207.883	1.0	go	0.661	Go_X	1.0
210.407	1.0	go	0.37	Go_O	1.0
212.931	1.0	go	0.443	Go_X	1.0
215.455	1.0	go	0.455	Go_X	1.0
217.98	0.2	stopsuccess	0.0	Go_X	1.0
220.504	1.0	go	0.43	Go_O	1.0
223.028	1.0	go	0.4	Go_X	1.0
225.552	1.0	go	0.508	Go_O	1.0
228.077	0.25	stopfail	0.532	Go_O	0.0
230.601	1.0	go	0.765	Go_O	1.0
233.125	1.0	go	0.768	Go_X	1.0
235.649	1.0	go	0.927	Go_O	1.0
238.173	1.0	go	0.803	Go_X	1.0
240.697	1.0	go	0.812	Go_X	1.0
243.221	1.0	go	0.569	Go_O	1.0
245.746	0.2	stopsuccess	0.0	Go_X	1.0
248.27	1.0	go	0.604	Go_O	1.0
250.794	1.0	go	0.678	Go_X	0.0
253.318	0.25	stopsuccess	0.0	Go_O	1.0
255.842	1.0	go	0.545	Go_O	1.0
258.367	1.0	go	0.553	Go_X	1.0
260.891	0.3	stopfail	0.47	Go_X	0.0
263.415	1.0	go	0.612	Go_X	1.0
265.939	0.25	stopsuccess	0.0	Go_O	1.0
268.463	1.0	go	0.0	Go_O	0.0
270.987	1.0	go	0.477	Go_X	1.0
273.512	1.0	go	0.465	Go_O	1.0
276.036	1.0	go	0.608	Go_O	0.0
278.56	1.0	go	0.907	Go_X	1.0
281.084	0.3	stopsuccess	0.0	Go_X	1.0
283.608	0.35	stopsuccess	0.0	Go_O	1.0
286.133	1.0	go	0.358	Go_O	1.0
288.657	1.0	go	0.562	Go_X	1.0
291.181	0.4	stopsuccess	0.0	Go_X	1.0
293.705	1.0	go	0.599	Go_X	1.0
296.229	1.0	go	0.55	Go_O	1.0
298.753	1.0	go	0.524	Go_X	1.0
301.278	1.0	go	0.0	Go_O	0.0
303.802	1.0	go	0.364	Go_X	1.0
306.326	1.0	go	0.515	Go_O	1.0
308.85	0.45	stopfail	0.522	Go_O	0.0
311.374	1.0	go	0.462	Go_X	1.0
313.899	1.0	go	0.445	Go_O	1.0
316.423	1.0	go	0.812	Go_X	1.0
318.947	1.0	go	0.619	Go_O	1.0
321.471	1.0	go	0.618	Go_O	1.0
323.995	0.4	stopfail	0.515	Go_X	0.0
326.519	1.0	go	0.542	Go_X	1.0
329.044	1.0	go	0.532	Go_X	1.0
331.568	1.0	go	0.523	Go_O	1.0
334.092	1.0	go	0.46	Go_O	1.0
336.616	0.35	stopfail	0.555	Go_O	0.0
339.14	1.0	go	0.5	Go_X	1.0
341.665	1.0	go	0.32	Go_X	1.0
344.189	0.3	stopsuccess	0.0	Go_X	1.0
346.713	1.0	go	0.541	Go_O	1.0
349.237	0.35	stopfail	0.496	Go_O	0.0
351.761	1.0	go	0.763	Go_O	1.0
354.285	1.0	go	0.926	Go_X	1.0
356.81	1.0	go	0.456	Go_O	1.0
359.334	1.0	go	0.6	Go_X	1.0
361.858	1.0	go	0.549	Go_O	1.0
364.382	1.0	go	0.654	Go_X	1.0
366.906	1.0	go	0.85	Go_X	1.0
369.431	0.3	stopfail	0.671	Go_X	0.0
371.955	1.0	go	0.521	Go_O	1.0
374.479	1.0	go	0.864	Go_X	0.0
377.003	1.0	go	0.588	Go_O	1.0
379.527	0.25	stopsuccess	0.0	Go_O	1.0
382.051	1.0	go	0.809	Go_X	1.0
384.576	1.0	go	0.548	Go_O	1.0
387.1	1.0	go	0.729	Go_X	1.0
389.624	1.0	go	0.732	Go_O	1.0
392.148	0.3	stopfail	0.513	Go_X	0.0
394.672	1.0	go	0.937	Go_X	1.0
397.197	1.0	go	0.0	Go_O	0.0
399.721	0.25	stopfail	0.464	Go_O	0.0
402.245	1.0	go	0.411	Go_O	1.0
404.769	1.0	go	0.58	Go_X	1.0
407.293	0.2	stopsuccess	0.0	Go_X	1.0
409.817	1.0	go	0.86	Go_X	1.0
412.342	1.0	go	0.671	Go_O	1.0
414.866	0.25	stopsuccess	0.0	Go_O	1.0
417.39	1.0	go	0.522	Go_X	1.0
419.914	1.0	go	0.632	Go_O	1.0
422.438	1.0	go	0.485	Go_O	1.0
424.963	1.0	go	0.4	Go_X	1.0
427.487	1.0	go	0.871	Go_X	1.0
430.011	1.0	go	0.413	Go_O	1.0
432.535	0.3	stopfail	0.312	Go_X	0.0
435.059	1.0	go	0.49	Go_X	1.0
437.583	0.25	stopsuccess	0.0	Go_O	1.0
440.108	1.0	go	0.777	Go_O	0.0
442.632	1.0	go	0.538	Go_X	1.0
445.156	1.0	go	0.803	Go_O	1.0
447.68	1.0	go	0.6	Go_O	1.0
450.204	1.0	go	0.685	Go_X	1.0
452.729	0.3	stopsuccess	0.0	Go_X	1.0
455.253	1.0	go	0.508	Go_O	1.0
457.777	1.0	go	0.0	Go_X	0.0
460.301	1.0	go	0.923	Go_O	1.0
462.825	0.35	stopfail	0.451	Go_O	0.0
465.349	0.3	stopfail	0.446	Go_X	0.0
467.874	0.25	stopsuccess	0.0	Go_O	1.0
470.398	1.0	go	0.464	Go_X	1.0
472.922	0.3	stopfail	0.456	Go_X	0.0
475.446	1.0	go	0.358	Go_O	1.0
477.97	1.0	go	0.702	Go_X	1.0
480.495	1.0	go	0.618	Go_O	1.0
483.019	1.0	go	0.901	Go_X	1.0
485.543	1.0	go	0.0	Go_O	0.0
488.067	1.0	go	0.419	Go_X	1.0
490.591	1.0	go	0.473	Go_O	1.0
493.115	1.0	go	0.471	Go_X	1.0
495.64	0.25	stopsuccess	0.0	Go_O	1.0
498.164	1.0	go	0.397	Go_O	1.0
500.688	1.0	go	0.619	Go_X	1.0
503.212	0.3	stopfail	0.632	Go_X	0.0
505.736	1.0	go	0.622	Go_O	1.0
508.261	1.0	go	0.524	Go_X	1.0
510.785	1.0	go	0.904	Go_X	1.0
513.309	1.0	go	0.552	Go_O	1.0
515.833	1.0	go	0.603	Go_O	0.0
518.357	0.25	stopsuccess	0.0	Go_O	1.0
520.882	1.0	go	0.664	Go_X	1.0
523.406	1.0	go	0.489	Go_X	1.0
525.93	1.0	go	0.742	Go_O	1.0
528.454	0.3	stopsuccess	0.0	Go_X	1.0
530.978	1.0	go	0.485	Go_X	1.0
533.502	0.35	stopsuccess	0.0	Go_O	1.0
536.027	1.0	go	0.487	Go_O	1.0
538.551	1.0	go	0.774	Go_X	1.0
541.075	1.0	go	0.48	Go_O	1.0
543.599	1.0	go	0.558	Go_O	1.0
546.123	1.0	go	0.646	Go_X	1.0
548.648	1.0	go	0.761	Go_O	1.0
551.172	1.0	go	0.882	Go_X	1.0
553.696	0.4	stopfail	0.725	Go_X	0.0
556.22	1.0	go	0.0	Go_X	0.0
558.744	1.0	go	0.968	Go_O	1.0
561.268	1.0	go	0.691	Go_X	1.0
563.793	1.0	go	0.421	Go_O	1.0
566.317	0.35	stopfail	0.426	Go_O	0.0
568.841	1.0	go	0.477	Go_O	1.0
571.365	0.3	stopfail	0.58	Go_X	0.0
573.889	1.0	go	0.538	Go_X	1.0
576.414	1.0	go	0.699	Go_O	1.0
578.938	0.25	stopsuccess	0.0	Go_O	1.0
581.462	1.0	go	0.805	Go_X	1.0
583.986	1.0	go	0.877	Go_O	1.0
586.51	1.0	go	0.607	Go_X	1.0
589.034	1.0	go	0.694	Go_X	1.0
591.559	1.0	go	0.595	Go_O	1.0
594.083	1.0	go	0.582	Go_X	0.0
596.607	1.0	go	0.375	Go_O	1.0
599.131	1.0	go	0.616	Go_O	1.0
601.655	1.0	go	0.518	Go_X	1.0
604.18	1.0	go	0.753	Go_X	1.0
606.704	0.3	stopfail	0.563	Go_X	0.0
609.228	1.0	go	0.578	Go_O	1.0
611.752	1.0	go	0.566	Go_O	1.0
614.276	0.25	stopsuccess	0.0	Go_O	1.0
616.8	1.0	go	0.0	Go_X	0.0
619.325	0.3	stopfail	0.481	Go_X	0.0
621.849	1.0	go	0.536	Go_X	1.0
624.373	1.0	go	0.434	Go_O	1.0
626.897	0.25	stopsuccess	0.0	Go_O	1.0
629.421	1.0	go	0.657	Go_O	1.0
631.946	0.3	stopsuccess	0.0	Go_X	1.0
634.47	1.0	go	0.75	Go_X	1.0
636.994	1.0	go	0.454	Go_X	1.0
639.518	1.0	go	0.523	Go_O	1.0
642.042	0.35	stopfail	0.386	Go_O	0.0
644.566	1.0	go	0.456	Go_X	1.0
647.091	1.0	go	0.521	Go_O	1.0
649.615	1.0	go	0.704	Go_O	1.0
652.139	1.0	go	0.514	Go_X	0.0
654.663	0.3	stopfail	0.549	Go_X	0.0
657.187	1.0	go	0.589	Go_O	1.0
659.712	1.0	go	0.62	Go_X	1.0
662.236	0.25	stopsuccess	0.0	Go_O	1.0
664.76	1.0	go	0.594	Go_O	1.0
667.284	1.0	go	0.57	Go_X	1.0
669.808	1.0	go	0.509	Go_X	1.0
672.332	1.0	go	0.535	Go_O	1.0
674.857	0.3	stopsuccess	0.0	Go_X	1.0
677.381	1.0	go	0.58	Go_O	1.0
679.905	0.35	stopsuccess	0.0	Go_O	1.0
682.429	1.0	go	0.713	Go_X	1.0
684.953	1.0	go	0.546	Go_X	1.0
687.478	0.4	stopsuccess	0.0	Go_X	1.0
690.002	1.0	go	0.493	Go_O	1.0
692.526	1.0	go	0.525	Go_X	1.0
695.05	1.0	go	0.676	Go_O	1.0
697.574	1.0	go	0.803	Go_O	1.0
700.098	0.45	stopsuccess	0.0	Go_O	1.0
702.623	1.0	go	0.525	Go_X	1.0
705.147	0.5	stopfail	0.374	Go_X	0.0
707.671	1.0	go	0.712	Go_X	1.0
710.195	1.0	go	0.559	Go_O	1.0
712.719	1.0	go	0.424	Go_X	1.0
715.244	1.0	go	0.0	Go_O	0.0
717.768	1.0	go	0.522	Go_O	1.0
720.292	1.0	go	0.542	Go_X	1.0
722.816	0.45	stopfail	0.488	Go_O	0.0
725.34	1.0	go	0.536	Go_O	1.0
727.864	1.0	go	0.921	Go_X	1.0
730.389	0.4	stopfail	0.487	Go_X	0.0
732.913	1.0	go	0.755	Go_O	1.0
735.437	1.0	go	0.0	Go_X	0.0
737.961	0.35	stopfail	0.558	Go_O	0.0
740.485	1.0	go	0.452	Go_O	1.0
743.01	1.0	go	0.69	Go_X	1.0
745.534	1.0	go	0.768	Go_X	1.0
748.058	1.0	go	0.601	Go_O	1.0
750.582	0.3	stopfail	0.455	Go_X	0.0
753.106	1.0	go	0.454	Go_O	1.0
755.63	0.25	stopfail	0.495	Go_O	0.0
758.155	1.0	go	0.431	Go_X	1.0
760.679	1.0	go	0.496	Go_X	1.0
763.203	1.0	go	0.451	Go_O	1.0
765.727	1.0	go	0.0	Go_O	0.0
768.251	1.0	go	0.509	Go_X	1.0
770.776	0.2	stopsuccess	0.0	Go_X	1.0
773.3	1.0	go	0.626	Go_X	1.0
775.824	1.0	go	0.654	Go_O	1.0
778.348	0.25	stopsuccess	0.0	Go_O	1.0
780.872	0.3	stopfail	0.491	Go_X	0.0
783.396	1.0	go	0.424	Go_O	1.0
785.921	1.0	go	0.88	Go_X	1.0
788.445	1.0	go	0.611	Go_X	0.0
790.969	1.0	go	0.554	Go_O	1.0
793.493	0.25	stopfail	0.579	Go_O	0.0
796.017	1.0	go	0.487	Go_O	1.0
