onset	duration	trial_type	response_time	stim_file	accuracy
0.5659999999999954	1.0	go	0.675	Go_O	1.0
3.1909999999999954	1.0	go	0.482	Go_X	1.0
5.714999999999996	1.0	go	0.413	Go_O	1.0
8.238999999999997	1.0	go	0.321	Go_X	1.0
10.762999999999998	1.0	go	0.459	Go_X	1.0
13.286999999999999	1.0	go	0.481	Go_O	1.0
15.811	0.25	stopfail	0.434	Go_O	0.0
18.351999999999997	1.0	go	0.389	Go_X	1.0
20.876999999999995	0.2	stopsuccess	0.0	Go_X	1.0
23.417	1.0	go	0.392	Go_O	1.0
25.941999999999993	1.0	go	0.411	Go_O	1.0
28.465999999999994	1.0	go	0.296	Go_X	1.0
30.989999999999995	0.25	stopfail	0.424	Go_O	0.0
33.513999999999996	1.0	go	0.367	Go_O	1.0
36.038	1.0	go	0.532	Go_X	1.0
38.563	0.2	stopfail	0.336	Go_X	0.0
41.087	0.15	stopsuccess	0.0	Go_O	1.0
43.61099999999999	1.0	go	0.436	Go_X	1.0
46.13499999999999	1.0	go	0.408	Go_O	1.0
48.65899999999999	0.2	stopfail	0.359	Go_X	0.0
51.18299999999999	1.0	go	0.499	Go_X	1.0
53.708	1.0	go	0.481	Go_O	1.0
56.232	0.15	stopsuccess	0.0	Go_O	1.0
58.756	1.0	go	0.425	Go_X	1.0
61.28	1.0	go	0.584	Go_O	1.0
63.804	0.2	stopfail	0.336	Go_X	0.0
66.329	1.0	go	0.394	Go_O	1.0
68.853	1.0	go	0.479	Go_X	1.0
71.377	0.15	stopsuccess	0.0	Go_O	1.0
73.901	1.0	go	0.376	Go_O	1.0
76.425	1.0	go	0.385	Go_X	0.0
78.949	1.0	go	0.447	Go_X	1.0
81.474	1.0	go	0.463	Go_O	1.0
83.99799999999999	1.0	go	0.402	Go_O	1.0
86.52199999999999	0.2	stopfail	0.509	Go_X	0.0
89.046	1.0	go	0.385	Go_X	1.0
91.57000000000001	1.0	go	0.649	Go_X	1.0
94.09499999999998	1.0	go	0.461	Go_O	1.0
96.61899999999999	1.0	go	0.494	Go_O	1.0
99.14299999999999	1.0	go	0.423	Go_X	1.0
101.66699999999999	0.15	stopsuccess	0.0	Go_O	1.0
104.19099999999999	1.0	go	0.633	Go_O	1.0
106.71499999999999	1.0	go	0.52	Go_X	1.0
109.24	1.0	go	0.34	Go_X	0.0
111.764	1.0	go	0.457	Go_O	1.0
114.288	1.0	go	0.415	Go_O	1.0
116.812	1.0	go	0.408	Go_X	1.0
119.336	0.2	stopfail	0.495	Go_X	0.0
121.861	1.0	go	0.635	Go_X	0.0
124.385	1.0	go	0.604	Go_O	1.0
126.909	0.15	stopsuccess	0.0	Go_O	1.0
129.433	1.0	go	0.358	Go_X	1.0
131.957	0.2	stopsuccess	0.0	Go_X	1.0
134.48199999999997	0.25	stopfail	0.375	Go_O	0.0
137.00599999999997	1.0	go	0.374	Go_O	1.0
139.52999999999997	1.0	go	0.481	Go_X	1.0
142.05399999999997	1.0	go	0.521	Go_O	1.0
144.57799999999997	1.0	go	0.702	Go_O	1.0
147.10199999999998	0.2	stopfail	0.52	Go_X	0.0
149.627	1.0	go	0.517	Go_X	1.0
152.151	0.15	stopsuccess	0.0	Go_O	1.0
154.675	1.0	go	0.481	Go_O	1.0
157.199	1.0	go	0.357	Go_X	1.0
159.723	1.0	go	0.377	Go_X	1.0
162.248	1.0	go	0.477	Go_O	1.0
164.772	1.0	go	0.541	Go_O	1.0
167.296	1.0	go	0.661	Go_X	1.0
169.82	1.0	go	0.37	Go_O	1.0
172.344	1.0	go	0.443	Go_X	1.0
174.868	1.0	go	0.455	Go_X	1.0
177.39299999999997	0.2	stopsuccess	0.0	Go_X	1.0
179.91699999999997	1.0	go	0.43	Go_O	1.0
182.44099999999997	1.0	go	0.4	Go_X	1.0
184.96499999999997	1.0	go	0.508	Go_O	1.0
187.49	0.25	stopfail	0.532	Go_O	0.0
190.014	1.0	go	0.765	Go_O	1.0
192.538	1.0	go	0.768	Go_X	1.0
195.062	1.0	go	0.927	Go_O	1.0
197.586	1.0	go	0.803	Go_X	1.0
200.11	1.0	go	0.812	Go_X	1.0
202.63400000000001	1.0	go	0.569	Go_O	1.0
205.159	0.2	stopsuccess	0.0	Go_X	1.0
207.683	1.0	go	0.604	Go_O	1.0
210.207	1.0	go	0.678	Go_X	0.0
212.731	0.25	stopsuccess	0.0	Go_O	1.0
215.255	1.0	go	0.545	Go_O	1.0
217.78000000000003	1.0	go	0.553	Go_X	1.0
220.30400000000003	0.3	stopfail	0.47	Go_X	0.0
222.82800000000003	1.0	go	0.612	Go_X	1.0
225.35200000000003	0.25	stopsuccess	0.0	Go_O	1.0
227.87600000000003	1.0	go	0.0	Go_O	0.0
230.40000000000003	1.0	go	0.477	Go_X	1.0
232.925	1.0	go	0.465	Go_O	1.0
235.449	1.0	go	0.608	Go_O	0.0
237.973	1.0	go	0.907	Go_X	1.0
240.497	0.3	stopsuccess	0.0	Go_X	1.0
243.02100000000002	0.35	stopsuccess	0.0	Go_O	1.0
245.546	1.0	go	0.358	Go_O	1.0
248.07	1.0	go	0.562	Go_X	1.0
250.594	0.4	stopsuccess	0.0	Go_X	1.0
253.118	1.0	go	0.599	Go_X	1.0
255.642	1.0	go	0.55	Go_O	1.0
258.166	1.0	go	0.524	Go_X	1.0
260.69100000000003	1.0	go	0.0	Go_O	0.0
263.21500000000003	1.0	go	0.364	Go_X	1.0
265.73900000000003	1.0	go	0.515	Go_O	1.0
268.26300000000003	0.45	stopfail	0.522	Go_O	0.0
270.78700000000003	1.0	go	0.462	Go_X	1.0
273.312	1.0	go	0.445	Go_O	1.0
275.836	1.0	go	0.812	Go_X	1.0
278.36	1.0	go	0.619	Go_O	1.0
280.884	1.0	go	0.618	Go_O	1.0
283.408	0.4	stopfail	0.515	Go_X	0.0
285.932	1.0	go	0.542	Go_X	1.0
288.457	1.0	go	0.532	Go_X	1.0
290.981	1.0	go	0.523	Go_O	1.0
293.505	1.0	go	0.46	Go_O	1.0
296.029	0.35	stopfail	0.555	Go_O	0.0
298.553	1.0	go	0.5	Go_X	1.0
301.07800000000003	1.0	go	0.32	Go_X	1.0
303.60200000000003	0.3	stopsuccess	0.0	Go_X	1.0
306.12600000000003	1.0	go	0.541	Go_O	1.0
308.65000000000003	0.35	stopfail	0.496	Go_O	0.0
311.17400000000004	1.0	go	0.763	Go_O	1.0
313.69800000000004	1.0	go	0.926	Go_X	1.0
316.223	1.0	go	0.456	Go_O	1.0
318.747	1.0	go	0.6	Go_X	1.0
321.271	1.0	go	0.549	Go_O	1.0
323.795	1.0	go	0.654	Go_X	1.0
326.319	1.0	go	0.85	Go_X	1.0
328.844	0.3	stopfail	0.671	Go_X	0.0
331.368	1.0	go	0.521	Go_O	1.0
333.892	1.0	go	0.864	Go_X	0.0
336.416	1.0	go	0.588	Go_O	1.0
338.94	0.25	stopsuccess	0.0	Go_O	1.0
341.464	1.0	go	0.809	Go_X	1.0
343.98900000000003	1.0	go	0.548	Go_O	1.0
346.51300000000003	1.0	go	0.729	Go_X	1.0
349.03700000000003	1.0	go	0.732	Go_O	1.0
351.56100000000004	0.3	stopfail	0.513	Go_X	0.0
354.08500000000004	1.0	go	0.937	Go_X	1.0
356.61	1.0	go	0.0	Go_O	0.0
359.134	0.25	stopfail	0.464	Go_O	0.0
361.658	1.0	go	0.411	Go_O	1.0
364.182	1.0	go	0.58	Go_X	1.0
366.706	0.2	stopsuccess	0.0	Go_X	1.0
369.23	1.0	go	0.86	Go_X	1.0
371.755	1.0	go	0.671	Go_O	1.0
374.279	0.25	stopsuccess	0.0	Go_O	1.0
376.803	1.0	go	0.522	Go_X	1.0
379.327	1.0	go	0.632	Go_O	1.0
381.851	1.0	go	0.485	Go_O	1.0
384.37600000000003	1.0	go	0.4	Go_X	1.0
386.90000000000003	1.0	go	0.871	Go_X	1.0
389.42400000000004	1.0	go	0.413	Go_O	1.0
391.94800000000004	0.3	stopfail	0.312	Go_X	0.0
394.47200000000004	1.0	go	0.49	Go_X	1.0
396.99600000000004	0.25	stopsuccess	0.0	Go_O	1.0
399.521	1.0	go	0.777	Go_O	0.0
402.045	1.0	go	0.538	Go_X	1.0
404.569	1.0	go	0.803	Go_O	1.0
407.093	1.0	go	0.6	Go_O	1.0
409.617	1.0	go	0.685	Go_X	1.0
412.142	0.3	stopsuccess	0.0	Go_X	1.0
414.666	1.0	go	0.508	Go_O	1.0
417.19	1.0	go	0.0	Go_X	0.0
419.714	1.0	go	0.923	Go_O	1.0
422.238	0.35	stopfail	0.451	Go_O	0.0
424.762	0.3	stopfail	0.446	Go_X	0.0
427.28700000000003	0.25	stopsuccess	0.0	Go_O	1.0
429.81100000000004	1.0	go	0.464	Go_X	1.0
432.33500000000004	0.3	stopfail	0.456	Go_X	0.0
434.85900000000004	1.0	go	0.358	Go_O	1.0
437.38300000000004	1.0	go	0.702	Go_X	1.0
439.908	1.0	go	0.618	Go_O	1.0
442.432	1.0	go	0.901	Go_X	1.0
444.956	1.0	go	0.0	Go_O	0.0
447.48	1.0	go	0.419	Go_X	1.0
450.004	1.0	go	0.473	Go_O	1.0
452.528	1.0	go	0.471	Go_X	1.0
455.053	0.25	stopsuccess	0.0	Go_O	1.0
457.577	1.0	go	0.397	Go_O	1.0
460.101	1.0	go	0.619	Go_X	1.0
462.625	0.3	stopfail	0.632	Go_X	0.0
465.149	1.0	go	0.622	Go_O	1.0
467.67400000000004	1.0	go	0.524	Go_X	1.0
470.19800000000004	1.0	go	0.904	Go_X	1.0
472.722	1.0	go	0.552	Go_O	1.0
475.246	1.0	go	0.603	Go_O	0.0
477.77	0.25	stopsuccess	0.0	Go_O	1.0
480.29499999999996	1.0	go	0.664	Go_X	1.0
482.81899999999996	1.0	go	0.489	Go_X	1.0
485.34299999999996	1.0	go	0.742	Go_O	1.0
487.86699999999996	0.3	stopsuccess	0.0	Go_X	1.0
490.39099999999996	1.0	go	0.485	Go_X	1.0
492.91499999999996	0.35	stopsuccess	0.0	Go_O	1.0
495.44000000000005	1.0	go	0.487	Go_O	1.0
497.96400000000006	1.0	go	0.774	Go_X	1.0
500.48800000000006	1.0	go	0.48	Go_O	1.0
503.01200000000006	1.0	go	0.558	Go_O	1.0
505.53600000000006	1.0	go	0.646	Go_X	1.0
508.06100000000004	1.0	go	0.761	Go_O	1.0
510.58500000000004	1.0	go	0.882	Go_X	1.0
513.109	0.4	stopfail	0.725	Go_X	0.0
515.633	1.0	go	0.0	Go_X	0.0
518.157	1.0	go	0.968	Go_O	1.0
520.681	1.0	go	0.691	Go_X	1.0
523.206	1.0	go	0.421	Go_O	1.0
525.73	0.35	stopfail	0.426	Go_O	0.0
528.254	1.0	go	0.477	Go_O	1.0
530.778	0.3	stopfail	0.58	Go_X	0.0
533.302	1.0	go	0.538	Go_X	1.0
535.827	1.0	go	0.699	Go_O	1.0
538.351	0.25	stopsuccess	0.0	Go_O	1.0
540.875	1.0	go	0.805	Go_X	1.0
543.399	1.0	go	0.877	Go_O	1.0
545.923	1.0	go	0.607	Go_X	1.0
548.447	1.0	go	0.694	Go_X	1.0
550.972	1.0	go	0.595	Go_O	1.0
553.496	1.0	go	0.582	Go_X	0.0
556.02	1.0	go	0.375	Go_O	1.0
558.544	1.0	go	0.616	Go_O	1.0
561.068	1.0	go	0.518	Go_X	1.0
563.593	1.0	go	0.753	Go_X	1.0
566.117	0.3	stopfail	0.563	Go_X	0.0
568.641	1.0	go	0.578	Go_O	1.0
571.165	1.0	go	0.566	Go_O	1.0
573.689	0.25	stopsuccess	0.0	Go_O	1.0
576.213	1.0	go	0.0	Go_X	0.0
578.738	0.3	stopfail	0.481	Go_X	0.0
581.2620000000001	1.0	go	0.536	Go_X	1.0
583.7860000000001	1.0	go	0.434	Go_O	1.0
586.3100000000001	0.25	stopsuccess	0.0	Go_O	1.0
588.8340000000001	1.0	go	0.657	Go_O	1.0
591.359	0.3	stopsuccess	0.0	Go_X	1.0
593.883	1.0	go	0.75	Go_X	1.0
596.407	1.0	go	0.454	Go_X	1.0
598.931	1.0	go	0.523	Go_O	1.0
601.455	0.35	stopfail	0.386	Go_O	0.0
603.979	1.0	go	0.456	Go_X	1.0
606.504	1.0	go	0.521	Go_O	1.0
609.028	1.0	go	0.704	Go_O	1.0
611.552	1.0	go	0.514	Go_X	0.0
614.076	0.3	stopfail	0.549	Go_X	0.0
616.6	1.0	go	0.589	Go_O	1.0
619.125	1.0	go	0.62	Go_X	1.0
621.649	0.25	stopsuccess	0.0	Go_O	1.0
624.173	1.0	go	0.594	Go_O	1.0
626.697	1.0	go	0.57	Go_X	1.0
629.221	1.0	go	0.509	Go_X	1.0
631.745	1.0	go	0.535	Go_O	1.0
634.27	0.3	stopsuccess	0.0	Go_X	1.0
636.794	1.0	go	0.58	Go_O	1.0
639.318	0.35	stopsuccess	0.0	Go_O	1.0
641.842	1.0	go	0.713	Go_X	1.0
644.366	1.0	go	0.546	Go_X	1.0
646.891	0.4	stopsuccess	0.0	Go_X	1.0
649.415	1.0	go	0.493	Go_O	1.0
651.939	1.0	go	0.525	Go_X	1.0
654.463	1.0	go	0.676	Go_O	1.0
656.987	1.0	go	0.803	Go_O	1.0
659.511	0.45	stopsuccess	0.0	Go_O	1.0
662.0360000000001	1.0	go	0.525	Go_X	1.0
664.5600000000001	0.5	stopfail	0.374	Go_X	0.0
667.0840000000001	1.0	go	0.712	Go_X	1.0
669.6080000000001	1.0	go	0.559	Go_O	1.0
672.1320000000001	1.0	go	0.424	Go_X	1.0
674.657	1.0	go	0.0	Go_O	0.0
677.181	1.0	go	0.522	Go_O	1.0
679.705	1.0	go	0.542	Go_X	1.0
682.229	0.45	stopfail	0.488	Go_O	0.0
684.753	1.0	go	0.536	Go_O	1.0
687.277	1.0	go	0.921	Go_X	1.0
689.802	0.4	stopfail	0.487	Go_X	0.0
692.326	1.0	go	0.755	Go_O	1.0
694.85	1.0	go	0.0	Go_X	0.0
697.374	0.35	stopfail	0.558	Go_O	0.0
699.898	1.0	go	0.452	Go_O	1.0
702.423	1.0	go	0.69	Go_X	1.0
704.947	1.0	go	0.768	Go_X	1.0
707.471	1.0	go	0.601	Go_O	1.0
709.995	0.3	stopfail	0.455	Go_X	0.0
712.519	1.0	go	0.454	Go_O	1.0
715.043	0.25	stopfail	0.495	Go_O	0.0
717.568	1.0	go	0.431	Go_X	1.0
720.092	1.0	go	0.496	Go_X	1.0
722.616	1.0	go	0.451	Go_O	1.0
725.14	1.0	go	0.0	Go_O	0.0
727.664	1.0	go	0.509	Go_X	1.0
730.189	0.2	stopsuccess	0.0	Go_X	1.0
732.713	1.0	go	0.626	Go_X	1.0
735.237	1.0	go	0.654	Go_O	1.0
737.761	0.25	stopsuccess	0.0	Go_O	1.0
740.285	0.3	stopfail	0.491	Go_X	0.0
742.809	1.0	go	0.424	Go_O	1.0
745.3340000000001	1.0	go	0.88	Go_X	1.0
747.8580000000001	1.0	go	0.611	Go_X	0.0
750.3820000000001	1.0	go	0.554	Go_O	1.0
752.9060000000001	0.25	stopfail	0.579	Go_O	0.0
755.4300000000001	1.0	go	0.487	Go_O	1.0
