onset	duration	trial_type	response_time	stim_file	accuracy
50.57	1.0	go	0.435	Go_O	1.0
53.094	1.0	go	0.396	Go_X	1.0
55.618	1.0	go	0.381	Go_O	1.0
58.142	1.0	go	0.431	Go_X	1.0
60.666	1.0	go	0.421	Go_X	1.0
63.191	1.0	go	0.356	Go_O	1.0
65.715	0.25	stopfail	0.355	Go_O	0.0
68.239	1.0	go	0.317	Go_X	1.0
70.763	0.2	stopfail	0.439	Go_X	0.0
73.287	1.0	go	0.386	Go_O	1.0
75.811	1.0	go	0.549	Go_O	1.0
78.336	1.0	go	0.426	Go_X	1.0
80.86	0.15	stopsuccess	0.0	Go_O	1.0
83.384	1.0	go	0.409	Go_O	1.0
85.908	1.0	go	0.462	Go_X	1.0
88.432	0.2	stopfail	0.282	Go_X	0.0
90.957	0.15	stopsuccess	0.0	Go_O	1.0
93.481	1.0	go	0.322	Go_O	1.0
96.005	1.0	go	0.361	Go_X	1.0
98.529	0.2	stopfail	0.132	Go_X	0.0
101.053	1.0	go	0.429	Go_X	1.0
103.577	1.0	go	0.447	Go_O	1.0
106.102	0.15	stopfail	0.345	Go_O	0.0
108.626	1.0	go	0.576	Go_O	1.0
111.15	1.0	go	0.393	Go_X	1.0
113.674	0.1	stopsuccess	0.0	Go_X	1.0
116.198	1.0	go	0.444	Go_X	1.0
118.722	1.0	go	0.494	Go_O	1.0
121.247	0.15	stopsuccess	0.0	Go_O	1.0
123.771	1.0	go	0.494	Go_O	1.0
126.295	1.0	go	0.326	Go_X	1.0
128.819	1.0	go	0.385	Go_O	1.0
131.343	1.0	go	0.229	Go_X	0.0
133.867	1.0	go	0.5	Go_O	1.0
136.392	0.2	stopsuccess	0.0	Go_X	1.0
138.916	1.0	go	0.364	Go_X	1.0
141.44	1.0	go	0.438	Go_X	1.0
143.964	1.0	go	0.339	Go_O	1.0
146.488	1.0	go	0.351	Go_X	1.0
149.012	1.0	go	0.379	Go_O	1.0
151.537	0.25	stopfail	0.429	Go_O	0.0
154.061	1.0	go	0.533	Go_X	1.0
156.585	1.0	go	0.62	Go_O	1.0
159.109	1.0	go	0.32	Go_X	1.0
161.633	1.0	go	0.237	Go_O	1.0
164.157	1.0	go	0.525	Go_O	1.0
166.682	1.0	go	0.528	Go_X	1.0
169.206	0.2	stopsuccess	0.0	Go_X	1.0
171.73	1.0	go	0.379	Go_X	1.0
174.254	1.0	go	0.239	Go_O	1.0
176.778	0.25	stopfail	0.361	Go_O	0.0
179.302	1.0	go	0.435	Go_X	0.0
181.827	0.2	stopsuccess	0.0	Go_X	1.0
184.351	0.25	stopsuccess	0.0	Go_O	1.0
186.875	1.0	go	0.36	Go_O	1.0
189.399	1.0	go	0.392	Go_X	1.0
191.923	1.0	go	0.491	Go_O	1.0
194.448	1.0	go	0.368	Go_X	1.0
196.972	0.3	stopfail	0.417	Go_X	0.0
199.496	1.0	go	0.41	Go_O	1.0
202.02	0.25	stopfail	0.446	Go_O	0.0
204.544	1.0	go	0.6	Go_X	1.0
207.068	1.0	go	0.347	Go_O	1.0
209.593	1.0	go	0.398	Go_O	1.0
212.117	1.0	go	0.305	Go_X	1.0
214.641	1.0	go	0.505	Go_X	1.0
217.165	1.0	go	0.51	Go_O	1.0
219.689	1.0	go	0.452	Go_X	1.0
222.213	1.0	go	0.55	Go_O	1.0
224.738	1.0	go	0.396	Go_X	0.0
227.262	0.2	stopsuccess	0.0	Go_X	1.0
229.786	1.0	go	0.493	Go_O	1.0
232.31	1.0	go	0.355	Go_X	1.0
234.834	1.0	go	0.317	Go_O	1.0
237.358	0.25	stopsuccess	0.0	Go_O	1.0
239.883	1.0	go	0.445	Go_O	1.0
242.407	1.0	go	0.339	Go_X	1.0
244.931	1.0	go	0.435	Go_X	1.0
247.455	1.0	go	0.557	Go_O	1.0
249.979	1.0	go	0.478	Go_X	1.0
252.503	1.0	go	0.0	Go_O	0.0
255.028	0.3	stopfail	0.306	Go_X	0.0
257.552	1.0	go	0.321	Go_O	1.0
260.076	1.0	go	0.45	Go_X	1.0
262.6	0.25	stopfail	0.385	Go_O	0.0
265.124	1.0	go	0.393	Go_O	1.0
267.649	1.0	go	0.803	Go_X	1.0
270.173	0.2	stopsuccess	0.0	Go_X	1.0
272.697	1.0	go	0.292	Go_O	1.0
275.221	0.25	stopfail	0.406	Go_O	0.0
277.745	1.0	go	0.408	Go_X	1.0
280.269	1.0	go	0.479	Go_O	1.0
282.794	1.0	go	0.4	Go_X	1.0
285.318	1.0	go	0.358	Go_X	1.0
287.842	1.0	go	0.423	Go_O	1.0
290.366	0.2	stopsuccess	0.0	Go_X	1.0
292.89	0.25	stopfail	0.317	Go_O	0.0
295.414	1.0	go	0.404	Go_O	1.0
297.939	1.0	go	0.374	Go_X	1.0
300.463	0.2	stopsuccess	0.0	Go_X	1.0
302.987	1.0	go	0.608	Go_X	1.0
305.511	1.0	go	0.445	Go_O	1.0
308.035	1.0	go	0.0	Go_X	0.0
310.559	1.0	go	0.35	Go_O	1.0
313.084	1.0	go	0.463	Go_O	1.0
315.608	1.0	go	0.352	Go_X	1.0
318.132	0.25	stopfail	0.446	Go_O	0.0
320.656	1.0	go	0.415	Go_X	1.0
323.18	1.0	go	0.405	Go_O	1.0
325.704	1.0	go	0.51	Go_O	1.0
328.229	1.0	go	0.384	Go_X	1.0
330.753	1.0	go	0.477	Go_X	0.0
333.277	0.2	stopsuccess	0.0	Go_X	1.0
335.801	1.0	go	0.303	Go_O	1.0
338.325	1.0	go	0.514	Go_O	1.0
340.849	1.0	go	0.422	Go_X	1.0
343.374	1.0	go	0.401	Go_O	1.0
345.898	0.25	stopfail	0.33	Go_O	0.0
348.422	1.0	go	0.387	Go_X	1.0
350.946	1.0	go	0.419	Go_O	1.0
353.47	0.2	stopfail	0.378	Go_X	0.0
355.995	1.0	go	0.474	Go_X	1.0
358.519	0.15	stopfail	0.63	Go_O	0.0
361.043	1.0	go	0.343	Go_O	1.0
363.567	1.0	go	0.443	Go_X	1.0
366.091	1.0	go	0.903	Go_X	1.0
368.615	1.0	go	0.47	Go_O	1.0
371.14	1.0	go	0.444	Go_X	1.0
373.664	1.0	go	0.331	Go_O	1.0
376.188	1.0	go	0.422	Go_X	1.0
378.712	0.1	stopsuccess	0.0	Go_X	1.0
381.236	1.0	go	0.492	Go_O	1.0
383.76	1.0	go	0.535	Go_X	1.0
386.285	1.0	go	0.489	Go_O	1.0
388.809	0.15	stopfail	0.314	Go_O	0.0
391.333	1.0	go	0.347	Go_X	1.0
393.857	1.0	go	0.373	Go_O	1.0
396.381	1.0	go	0.578	Go_X	1.0
398.905	1.0	go	0.0	Go_O	0.0
401.43	0.1	stopfail	0.725	Go_X	0.0
403.954	1.0	go	0.578	Go_X	1.0
406.478	1.0	go	0.308	Go_O	0.0
409.002	0.05	stopfail	0.462	Go_O	0.0
411.526	1.0	go	0.402	Go_X	1.0
414.05	1.0	go	0.687	Go_O	1.0
416.575	0.0	stopsuccess	0.0	Go_X	1.0
419.116	1.0	go	0.805	Go_X	1.0
421.64	1.0	go	0.301	Go_O	1.0
424.164	0.05	stopsuccess	0.0	Go_O	1.0
426.688	1.0	go	0.311	Go_O	1.0
429.212	1.0	go	0.478	Go_X	1.0
431.736	1.0	go	0.354	Go_X	1.0
434.261	1.0	go	0.453	Go_O	1.0
436.785	1.0	go	0.45	Go_O	1.0
439.309	1.0	go	0.45	Go_X	1.0
441.833	0.1	stopsuccess	0.0	Go_X	1.0
444.357	1.0	go	0.554	Go_X	1.0
446.881	0.15	stopsuccess	0.0	Go_O	1.0
449.406	1.0	go	0.369	Go_O	1.0
451.93	1.0	go	0.509	Go_X	1.0
454.454	1.0	go	0.429	Go_O	1.0
456.978	1.0	go	0.58	Go_O	1.0
459.502	1.0	go	0.432	Go_X	1.0
462.026	0.2	stopsuccess	0.0	Go_X	1.0
464.551	1.0	go	0.582	Go_X	1.0
467.075	1.0	go	0.466	Go_O	0.0
469.599	1.0	go	0.555	Go_O	1.0
472.123	0.25	stopfail	0.314	Go_O	0.0
474.647	0.2	stopfail	0.376	Go_X	0.0
477.172	0.15	stopsuccess	0.0	Go_O	1.0
479.696	1.0	go	0.895	Go_X	1.0
482.22	0.2	stopsuccess	0.0	Go_X	1.0
484.744	1.0	go	0.377	Go_O	1.0
487.268	1.0	go	0.433	Go_X	1.0
489.792	1.0	go	0.463	Go_X	1.0
492.317	1.0	go	0.362	Go_O	1.0
494.841	1.0	go	0.36	Go_O	1.0
497.365	1.0	go	0.389	Go_X	1.0
499.889	1.0	go	0.398	Go_X	1.0
502.413	1.0	go	0.365	Go_O	1.0
504.937	0.25	stopfail	0.371	Go_O	0.0
507.462	1.0	go	0.416	Go_O	1.0
509.986	1.0	go	0.258	Go_X	1.0
512.51	0.2	stopfail	0.361	Go_X	0.0
515.034	1.0	go	0.587	Go_O	1.0
517.558	1.0	go	0.557	Go_X	1.0
520.082	1.0	go	0.44	Go_O	1.0
522.607	1.0	go	0.484	Go_X	1.0
525.131	1.0	go	0.407	Go_O	1.0
527.655	0.15	stopfail	0.328	Go_O	0.0
530.179	1.0	go	0.0	Go_X	0.0
532.703	1.0	go	0.37	Go_O	1.0
535.227	1.0	go	0.421	Go_X	1.0
537.752	0.1	stopsuccess	0.0	Go_X	1.0
540.276	1.0	go	0.34	Go_O	1.0
542.8	0.15	stopfail	0.388	Go_O	0.0
545.324	1.0	go	0.519	Go_X	1.0
547.848	1.0	go	0.758	Go_O	1.0
550.372	1.0	go	0.54	Go_X	1.0
552.897	1.0	go	0.62	Go_O	1.0
555.421	1.0	go	0.444	Go_X	1.0
557.945	1.0	go	0.373	Go_O	1.0
560.469	1.0	go	0.45	Go_X	1.0
562.993	0.1	stopsuccess	0.0	Go_X	1.0
565.517	1.0	go	0.326	Go_O	1.0
568.042	1.0	go	0.431	Go_X	1.0
570.566	1.0	go	0.439	Go_X	1.0
573.09	1.0	go	0.372	Go_O	1.0
575.614	0.15	stopsuccess	0.0	Go_O	1.0
578.138	1.0	go	0.451	Go_X	1.0
580.663	0.2	stopsuccess	0.0	Go_X	1.0
583.187	1.0	go	0.502	Go_O	1.0
585.711	1.0	go	0.445	Go_O	1.0
588.235	0.25	stopsuccess	0.0	Go_O	1.0
590.759	1.0	go	0.467	Go_X	1.0
593.283	1.0	go	0.445	Go_O	1.0
595.808	1.0	go	0.62	Go_X	1.0
598.332	1.0	go	0.504	Go_X	1.0
600.856	1.0	go	0.631	Go_O	1.0
603.38	1.0	go	0.531	Go_O	1.0
605.904	1.0	go	0.811	Go_X	1.0
608.428	1.0	go	0.349	Go_X	1.0
610.953	1.0	go	0.353	Go_O	1.0
613.477	1.0	go	0.49	Go_O	1.0
616.001	0.3	stopfail	0.583	Go_X	0.0
618.525	1.0	go	0.813	Go_X	0.0
621.049	1.0	go	0.612	Go_X	1.0
623.573	0.25	stopfail	0.414	Go_O	0.0
626.098	1.0	go	0.581	Go_O	1.0
628.622	0.2	stopfail	0.338	Go_X	0.0
631.146	1.0	go	0.404	Go_O	1.0
633.67	1.0	go	0.312	Go_X	1.0
636.194	0.15	stopfail	0.309	Go_O	0.0
638.718	1.0	go	0.402	Go_X	1.0
641.243	0.1	stopsuccess	0.0	Go_X	1.0
643.767	1.0	go	0.389	Go_O	1.0
646.291	1.0	go	0.587	Go_X	1.0
648.815	1.0	go	0.454	Go_O	1.0
651.339	0.15	stopsuccess	0.0	Go_O	1.0
653.864	1.0	go	0.409	Go_X	0.0
656.388	1.0	go	0.0	Go_O	0.0
658.912	1.0	go	0.4	Go_X	1.0
661.436	1.0	go	0.301	Go_O	1.0
663.96	0.2	stopfail	0.413	Go_X	0.0
666.484	1.0	go	0.301	Go_O	1.0
669.009	1.0	go	0.259	Go_X	1.0
671.533	0.15	stopfail	0.309	Go_O	0.0
674.057	1.0	go	0.488	Go_X	1.0
676.581	1.0	go	0.513	Go_O	1.0
679.105	1.0	go	0.479	Go_O	1.0
681.629	1.0	go	0.325	Go_X	1.0
684.154	0.1	stopsuccess	0.0	Go_X	1.0
686.678	1.0	go	0.512	Go_O	1.0
689.202	0.15	stopsuccess	0.0	Go_O	1.0
691.726	1.0	go	0.27	Go_X	1.0
694.25	1.0	go	0.365	Go_O	1.0
696.774	0.2	stopsuccess	0.0	Go_X	1.0
699.299	1.0	go	0.471	Go_X	0.0
701.823	1.0	go	0.434	Go_X	1.0
704.347	1.0	go	0.753	Go_O	1.0
706.871	1.0	go	0.0	Go_X	0.0
709.395	0.25	stopfail	0.437	Go_O	0.0
711.919	1.0	go	0.481	Go_O	1.0
714.444	0.2	stopsuccess	0.0	Go_X	1.0
716.968	1.0	go	0.458	Go_X	1.0
719.492	1.0	go	0.324	Go_O	1.0
722.016	1.0	go	0.585	Go_X	1.0
724.54	1.0	go	0.451	Go_O	1.0
727.064	1.0	go	0.439	Go_O	1.0
729.589	1.0	go	0.316	Go_X	1.0
732.113	0.25	stopsuccess	0.0	Go_O	1.0
734.637	1.0	go	0.395	Go_X	1.0
737.161	1.0	go	0.342	Go_O	1.0
739.685	0.3	stopfail	0.425	Go_X	0.0
742.21	1.0	go	0.467	Go_O	1.0
744.734	1.0	go	0.282	Go_X	1.0
747.258	0.25	stopsuccess	0.0	Go_O	1.0
749.782	1.0	go	0.505	Go_O	1.0
752.306	1.0	go	0.293	Go_X	1.0
754.83	1.0	go	0.372	Go_O	1.0
757.355	1.0	go	0.527	Go_X	1.0
759.879	0.3	stopsuccess	0.0	Go_X	1.0
762.403	1.0	go	0.527	Go_X	0.0
764.927	0.35	stopfail	0.469	Go_O	0.0
767.451	1.0	go	0.674	Go_O	1.0
769.975	1.0	go	0.674	Go_O	1.0
772.5	1.0	go	0.362	Go_X	1.0
775.024	1.0	go	0.43	Go_X	1.0
777.548	1.0	go	0.347	Go_O	1.0
780.072	0.3	stopfail	0.52	Go_X	0.0
782.596	1.0	go	0.383	Go_O	1.0
785.12	1.0	go	0.289	Go_X	1.0
787.645	0.25	stopfail	0.329	Go_O	0.0
790.169	0.2	stopfail	0.493	Go_X	0.0
792.693	1.0	go	0.368	Go_O	1.0
795.217	1.0	go	0.548	Go_X	1.0
797.741	1.0	go	0.524	Go_O	1.0
800.265	1.0	go	0.498	Go_X	1.0
802.79	0.15	stopsuccess	0.0	Go_O	1.0
805.314	1.0	go	0.61	Go_O	1.0
