onset	duration	trial_type	response_time	stim_file	accuracy
21.564	1.0	go	0.53	Go_O	1.0
24.097	1.0	go	0.475	Go_X	1.0
26.631	1.0	go	0.606	Go_X	1.0
29.164	1.0	go	0.394	Go_O	1.0
31.697	1.0	go	0.397	Go_X	1.0
34.231	1.0	go	0.512	Go_O	1.0
36.764	0.25	stop	0.0	Go_O	1.0
39.297	1.0	go	0.64	Go_O	1.0
41.83	0.3	stop	0.395	Go_X	0.0
44.364	1.0	go	0.542	Go_X	1.0
46.897	1.0	go	0.559	Go_X	1.0
49.43	1.0	go	0.716	Go_O	1.0
51.964	0.25	stop	0.0	Go_O	1.0
54.513	1.0	go	0.43	Go_O	1.0
57.047	1.0	go	0.496	Go_X	1.0
59.58	0.3	stop	0.0	Go_X	1.0
62.113	0.35	stop	0.0	Go_O	1.0
64.647	1.0	go	0.936	Go_O	1.0
67.196	1.0	go	0.589	Go_X	1.0
69.73	0.4	stop	0.0	Go_X	1.0
72.263	1.0	go	0.519	Go_X	1.0
74.796	1.0	go	0.539	Go_O	1.0
77.33	0.45	stop	0.549	Go_O	0.0
79.863	1.0	go	0.523	Go_X	1.0
82.396	1.0	go	0.536	Go_O	1.0
84.929	0.4	stop	0.0	Go_X	1.0
87.463	1.0	go	0.633	Go_X	1.0
89.996	1.0	go	0.701	Go_O	1.0
92.529	0.45	stop	0.535	Go_O	0.0
95.062	1.0	go	0.624	Go_O	1.0
97.596	1.0	go	0.567	Go_X	1.0
100.129	1.0	go	0.582	Go_O	1.0
102.662	1.0	go	0.57	Go_X	1.0
105.196	1.0	go	0.738	Go_O	1.0
107.729	0.4	stop	0.0	Go_X	1.0
110.262	1.0	go	0.655	Go_X	1.0
112.795	1.0	go	0.533	Go_O	1.0
115.329	1.0	go	0.536	Go_X	1.0
117.862	1.0	go	0.505	Go_X	1.0
120.395	1.0	go	0.834	Go_O	1.0
122.929	0.45	stop	0.589	Go_O	0.0
125.478	1.0	go	0.527	Go_O	1.0
128.012	1.0	go	0.598	Go_X	1.0
130.545	1.0	go	0.518	Go_X	1.0
133.078	1.0	go	0.689	Go_O	1.0
135.612	1.0	go	0.784	Go_X	1.0
138.145	1.0	go	0.666	Go_O	1.0
140.678	0.4	stop	0.0	Go_X	1.0
143.211	1.0	go	0.542	Go_X	1.0
145.745	1.0	go	0.717	Go_O	1.0
148.278	0.45	stop	0.0	Go_O	1.0
150.811	1.0	go	0.701	Go_X	1.0
153.344	0.5	stop	0.592	Go_X	0.0
155.878	0.45	stop	0.64	Go_O	0.0
158.411	1.0	go	0.92	Go_O	1.0
160.944	1.0	go	0.801	Go_O	1.0
163.478	1.0	go	0.628	Go_X	1.0
166.011	1.0	go	0.641	Go_X	1.0
168.544	0.4	stop	0.462	Go_X	0.0
171.077	1.0	go	0.684	Go_O	1.0
173.611	0.35	stop	0.0	Go_O	1.0
176.144	1.0	go	0.604	Go_O	1.0
178.677	1.0	go	0.634	Go_X	1.0
181.21	1.0	go	0.841	Go_O	1.0
183.744	1.0	go	0.831	Go_X	1.0
186.277	1.0	go	0.642	Go_X	1.0
188.81	1.0	go	0.661	Go_O	1.0
191.344	1.0	go	0.866	Go_O	1.0
193.877	1.0	go	0.662	Go_X	1.0
196.41	1.0	go	0.733	Go_X	1.0
198.943	0.4	stop	0.0	Go_X	1.0
201.477	1.0	go	0.664	Go_O	1.0
204.01	1.0	go	0.68	Go_X	1.0
206.543	1.0	go	0.625	Go_O	1.0
209.077	0.45	stop	0.0	Go_O	1.0
211.626	1.0	go	0.757	Go_O	1.0
214.16	1.0	go	0.645	Go_X	1.0
216.693	1.0	go	0.752	Go_X	1.0
219.226	1.0	go	0.856	Go_O	1.0
221.76	1.0	go	0.722	Go_X	1.0
224.293	1.0	go	0.972	Go_O	1.0
226.826	0.5	stop	0.586	Go_X	0.0
229.359	1.0	go	0.573	Go_X	1.0
231.893	1.0	go	0.491	Go_O	1.0
234.426	0.45	stop	0.654	Go_O	0.0
236.959	1.0	go	0.598	Go_O	1.0
239.492	1.0	go	0.647	Go_X	1.0
242.026	0.4	stop	0.0	Go_X	1.0
244.559	1.0	go	0.605	Go_X	1.0
247.092	0.45	stop	0.0	Go_O	1.0
249.626	1.0	go	0.64	Go_O	1.0
252.159	1.0	go	0.706	Go_O	1.0
254.692	1.0	go	0.613	Go_X	1.0
257.225	1.0	go	0.67	Go_X	1.0
259.759	1.0	go	0.0	Go_O	0.0
262.292	0.5	stop	0.585	Go_X	0.0
264.825	0.45	stop	0.0	Go_O	1.0
267.359	1.0	go	0.594	Go_O	1.0
269.908	1.0	go	0.603	Go_X	1.0
272.442	0.5	stop	0.571	Go_X	0.0
274.975	1.0	go	0.56	Go_X	1.0
277.508	1.0	go	0.671	Go_O	1.0
280.042	1.0	go	0.748	Go_X	1.0
282.591	1.0	go	0.681	Go_O	1.0
285.125	1.0	go	0.847	Go_O	1.0
287.658	1.0	go	0.81	Go_X	1.0
290.191	0.45	stop	0.0	Go_O	1.0
292.725	1.0	go	0.0	Go_O	0.0
295.258	1.0	go	0.661	Go_X	1.0
297.791	1.0	go	0.602	Go_X	1.0
300.324	1.0	go	0.568	Go_O	1.0
302.858	1.0	go	0.653	Go_X	1.0
305.391	0.5	stop	0.645	Go_X	0.0
307.924	1.0	go	0.616	Go_O	1.0
310.458	1.0	go	0.998	Go_X	1.0
313.007	1.0	go	0.513	Go_O	1.0
315.541	1.0	go	0.63	Go_O	1.0
318.074	0.45	stop	0.678	Go_O	0.0
320.607	1.0	go	0.607	Go_X	1.0
323.141	1.0	go	0.0	Go_X	0.0
325.69	0.4	stop	0.499	Go_X	0.0
328.224	1.0	go	0.591	Go_O	1.0
330.757	0.35	stop	0.0	Go_O	1.0
333.29	1.0	go	0.573	Go_X	1.0
335.824	1.0	go	0.595	Go_O	1.0
338.357	1.0	go	0.549	Go_O	1.0
340.89	1.0	go	0.402	Go_X	1.0
343.423	1.0	go	0.332	Go_O	1.0
345.957	1.0	go	0.393	Go_X	1.0
348.49	1.0	go	0.382	Go_X	1.0
351.023	0.4	stop	0.633	Go_X	0.0
353.556	1.0	go	0.379	Go_O	1.0
356.09	1.0	go	0.471	Go_X	1.0
358.623	1.0	go	0.615	Go_O	1.0
361.156	0.35	stop	0.0	Go_O	1.0
363.69	1.0	go	0.406	Go_O	1.0
366.223	1.0	go	0.464	Go_X	1.0
368.756	1.0	go	0.461	Go_O	0.0
371.289	1.0	go	0.374	Go_X	1.0
373.823	0.4	stop	0.39	Go_X	0.0
376.356	1.0	go	0.432	Go_X	1.0
378.889	1.0	go	0.502	Go_O	1.0
381.423	0.35	stop	0.429	Go_O	0.0
383.972	1.0	go	0.594	Go_O	1.0
386.506	1.0	go	0.441	Go_X	1.0
389.039	0.3	stop	0.45	Go_X	0.0
391.572	1.0	go	0.458	Go_X	1.0
394.106	1.0	go	0.601	Go_O	1.0
396.655	0.25	stop	0.314	Go_O	0.0
399.189	1.0	go	0.625	Go_X	1.0
401.722	1.0	go	0.587	Go_O	1.0
404.255	1.0	go	0.688	Go_O	1.0
406.789	1.0	go	0.521	Go_X	1.0
409.322	1.0	go	0.0	Go_O	0.0
411.855	1.0	go	0.521	Go_X	1.0
414.388	0.2	stop	0.0	Go_X	1.0
416.922	1.0	go	0.594	Go_X	1.0
419.455	0.25	stop	0.0	Go_O	1.0
421.988	1.0	go	0.959	Go_O	1.0
424.521	1.0	go	0.542	Go_X	1.0
427.055	1.0	go	0.625	Go_O	1.0
429.588	1.0	go	0.917	Go_O	1.0
432.121	1.0	go	0.518	Go_X	1.0
434.655	0.3	stop	0.0	Go_X	1.0
437.188	1.0	go	0.0	Go_O	0.0
439.721	1.0	go	0.589	Go_X	1.0
442.254	1.0	go	0.926	Go_O	1.0
444.788	0.35	stop	0.437	Go_O	0.0
447.321	0.3	stop	0.565	Go_X	0.0
449.854	0.25	stop	0.0	Go_O	1.0
452.388	1.0	go	0.764	Go_X	1.0
454.937	0.3	stop	0.0	Go_X	1.0
457.471	1.0	go	0.497	Go_X	1.0
460.004	1.0	go	0.56	Go_O	1.0
462.537	1.0	go	0.563	Go_O	1.0
465.071	1.0	go	0.601	Go_X	1.0
467.604	1.0	go	0.764	Go_O	1.0
470.137	1.0	go	0.569	Go_X	1.0
472.67	1.0	go	0.0	Go_O	0.0
475.204	1.0	go	0.486	Go_X	1.0
477.737	0.35	stop	0.0	Go_O	1.0
480.27	1.0	go	0.506	Go_X	1.0
482.803	1.0	go	0.629	Go_O	1.0
485.337	0.4	stop	0.444	Go_X	0.0
487.87	1.0	go	0.603	Go_O	1.0
490.403	1.0	go	0.742	Go_X	1.0
492.937	1.0	go	0.689	Go_O	1.0
495.47	1.0	go	0.808	Go_X	1.0
498.003	1.0	go	0.403	Go_O	1.0
500.536	0.35	stop	0.368	Go_O	0.0
503.07	1.0	go	0.423	Go_X	1.0
505.603	1.0	go	0.467	Go_X	0.0
508.136	1.0	go	0.405	Go_O	1.0
510.669	0.3	stop	0.36	Go_X	0.0
513.203	1.0	go	0.375	Go_X	1.0
515.736	0.25	stop	0.0	Go_O	1.0
518.269	1.0	go	0.583	Go_O	1.0
520.803	1.0	go	0.562	Go_O	1.0
523.336	1.0	go	0.0	Go_X	0.0
525.869	1.0	go	0.378	Go_O	1.0
528.402	1.0	go	0.696	Go_X	1.0
530.936	1.0	go	0.535	Go_X	1.0
533.469	1.0	go	0.86	Go_O	1.0
536.002	0.3	stop	0.0	Go_X	1.0
538.536	1.0	go	0.751	Go_O	1.0
541.085	1.0	go	0.0	Go_X	0.0
543.619	1.0	go	0.42	Go_O	1.0
546.152	1.0	go	0.868	Go_X	1.0
548.685	0.35	stop	0.0	Go_O	1.0
551.219	1.0	go	0.55	Go_X	1.0
553.752	0.4	stop	0.834	Go_X	0.0
556.285	1.0	go	0.669	Go_O	1.0
558.818	1.0	go	0.0	Go_X	0.0
561.352	0.35	stop	0.551	Go_O	0.0
563.885	1.0	go	0.611	Go_O	1.0
566.418	1.0	go	0.559	Go_X	1.0
568.951	1.0	go	0.674	Go_O	1.0
571.485	1.0	go	0.848	Go_X	1.0
574.018	1.0	go	0.698	Go_O	1.0
576.551	1.0	go	0.821	Go_X	1.0
579.085	1.0	go	0.584	Go_O	1.0
581.618	1.0	go	0.0	Go_O	0.0
584.151	1.0	go	0.434	Go_X	1.0
586.684	1.0	go	0.491	Go_X	1.0
589.218	0.3	stop	0.416	Go_X	0.0
591.751	1.0	go	0.461	Go_O	1.0
594.284	1.0	go	0.543	Go_X	1.0
596.818	0.25	stop	0.0	Go_O	1.0
599.367	1.0	go	0.865	Go_O	1.0
601.901	0.3	stop	0.0	Go_X	1.0
604.434	1.0	go	0.959	Go_X	1.0
606.967	1.0	go	0.576	Go_O	1.0
609.501	0.35	stop	0.402	Go_O	0.0
612.05	1.0	go	0.228	Go_X	1.0
614.584	0.3	stop	0.0	Go_X	1.0
617.117	1.0	go	0.401	Go_O	1.0
619.65	1.0	go	0.593	Go_O	1.0
622.184	1.0	go	0.597	Go_X	1.0
624.717	0.35	stop	0.416	Go_O	0.0
627.25	1.0	go	0.617	Go_X	1.0
629.783	1.0	go	0.466	Go_O	1.0
632.317	1.0	go	0.772	Go_X	1.0
634.85	1.0	go	0.95	Go_O	1.0
637.383	0.3	stop	0.0	Go_X	1.0
639.916	1.0	go	0.969	Go_O	0.0
642.45	1.0	go	0.0	Go_X	0.0
644.983	0.35	stop	0.0	Go_O	1.0
647.516	1.0	go	0.899	Go_X	0.0
650.05	1.0	go	0.475	Go_O	1.0
652.583	1.0	go	0.637	Go_X	1.0
655.116	1.0	go	0.483	Go_O	1.0
657.649	0.4	stop	0.696	Go_X	0.0
660.183	1.0	go	0.49	Go_X	1.0
662.716	0.35	stop	0.396	Go_O	0.0
665.249	1.0	go	0.634	Go_O	0.0
667.783	1.0	go	0.506	Go_O	1.0
670.332	0.3	stop	0.0	Go_X	1.0
672.866	1.0	go	0.885	Go_X	0.0
675.399	1.0	go	0.56	Go_O	0.0
677.932	1.0	go	0.562	Go_X	1.0
680.466	1.0	go	0.862	Go_X	1.0
683.015	0.35	stop	0.476	Go_O	0.0
685.549	1.0	go	0.651	Go_O	1.0
688.082	0.3	stop	0.446	Go_X	0.0
690.615	1.0	go	0.841	Go_O	1.0
693.149	1.0	go	0.536	Go_X	1.0
695.682	1.0	go	0.941	Go_X	1.0
698.215	1.0	go	0.391	Go_O	1.0
700.748	1.0	go	0.601	Go_X	1.0
703.282	1.0	go	0.493	Go_O	1.0
705.815	0.25	stop	0.0	Go_O	1.0
708.348	1.0	go	0.581	Go_O	1.0
710.882	1.0	go	0.53	Go_X	1.0
713.431	0.3	stop	0.608	Go_X	0.0
715.965	1.0	go	0.889	Go_O	1.0
718.498	1.0	go	0.354	Go_X	1.0
721.031	0.25	stop	0.431	Go_O	0.0
723.565	1.0	go	0.569	Go_X	1.0
726.114	1.0	go	0.564	Go_O	1.0
728.648	1.0	go	0.566	Go_X	1.0
731.181	1.0	go	0.835	Go_O	1.0
733.714	0.2	stop	0.0	Go_X	1.0
736.248	1.0	go	0.502	Go_O	1.0
738.781	0.25	stop	0.0	Go_O	1.0
741.314	1.0	go	0.345	Go_X	1.0
743.847	1.0	go	0.578	Go_X	1.0
746.381	1.0	go	0.444	Go_O	1.0
748.914	1.0	go	0.767	Go_X	1.0
751.447	1.0	go	0.366	Go_O	1.0
753.981	0.3	stop	0.0	Go_X	1.0
756.53	1.0	go	0.483	Go_O	1.0
759.064	1.0	go	0.608	Go_X	1.0
761.597	0.35	stop	0.0	Go_O	1.0
764.13	0.4	stop	0.604	Go_X	0.0
766.664	1.0	go	0.445	Go_X	1.0
769.213	1.0	go	0.485	Go_O	1.0
771.747	1.0	go	0.0	Go_X	0.0
774.28	1.0	go	0.352	Go_O	1.0
776.813	0.35	stop	0.501	Go_O	0.0
779.347	1.0	go	0.812	Go_O	1.0
