onset	duration	trial_type	response_time	stim_file	accuracy
487.472	1.0	go	0.605	Go_X	1.0
489.996	1.0	go	0.432	Go_O	1.0
492.52	1.0	go	0.439	Go_X	1.0
495.045	1.0	go	0.313	Go_O	1.0
497.569	1.0	go	0.358	Go_O	1.0
500.093	1.0	go	0.358	Go_X	1.0
502.617	0.25	stop	0.334	Go_O	0.0
505.141	1.0	go	0.588	Go_O	1.0
507.665	0.2	stop	0.0	Go_X	1.0
510.19	1.0	go	0.567	Go_X	1.0
512.714	1.0	go	0.643	Go_X	1.0
515.238	1.0	go	0.548	Go_O	1.0
517.762	0.25	stop	0.0	Go_O	1.0
520.286	1.0	go	0.462	Go_O	1.0
522.81	1.0	go	0.609	Go_X	1.0
525.335	0.3	stop	0.446	Go_X	0.0
527.859	0.25	stop	0.0	Go_O	1.0
530.383	1.0	go	0.469	Go_O	0.0
532.907	1.0	go	0.469	Go_X	1.0
535.431	0.3	stop	0.0	Go_X	1.0
537.955	1.0	go	0.589	Go_X	1.0
540.479	1.0	go	0.521	Go_O	1.0
543.004	0.35	stop	0.0	Go_O	1.0
545.528	1.0	go	0.502	Go_X	1.0
548.052	1.0	go	0.3	Go_O	1.0
550.576	0.4	stop	0.332	Go_X	0.0
553.1	1.0	go	0.454	Go_O	1.0
555.624	1.0	go	0.619	Go_X	1.0
558.149	0.35	stop	0.422	Go_O	0.0
560.673	1.0	go	0.527	Go_X	1.0
563.197	1.0	go	0.572	Go_O	1.0
565.721	1.0	go	0.607	Go_X	1.0
568.245	1.0	go	0.45	Go_O	1.0
570.769	1.0	go	0.51	Go_X	1.0
573.294	0.3	stop	0.0	Go_X	1.0
575.818	1.0	go	0.45	Go_O	1.0
578.342	1.0	go	0.447	Go_X	1.0
580.866	1.0	go	0.699	Go_O	1.0
583.39	1.0	go	0.447	Go_O	1.0
585.914	1.0	go	0.52	Go_X	1.0
588.439	0.35	stop	0.444	Go_O	0.0
590.963	1.0	go	0.751	Go_X	1.0
593.487	1.0	go	0.63	Go_O	1.0
596.011	1.0	go	0.582	Go_X	1.0
598.535	1.0	go	0.42	Go_O	1.0
601.059	1.0	go	0.525	Go_X	1.0
603.584	1.0	go	0.492	Go_O	1.0
606.108	0.3	stop	0.0	Go_X	1.0
608.632	1.0	go	0.371	Go_X	1.0
611.156	1.0	go	0.46	Go_O	1.0
613.68	0.35	stop	0.0	Go_O	1.0
616.204	1.0	go	0.502	Go_X	1.0
618.728	0.4	stop	0.0	Go_X	1.0
621.253	0.45	stop	0.433	Go_O	0.0
623.777	1.0	go	0.687	Go_O	1.0
626.301	1.0	go	0.801	Go_O	1.0
628.825	1.0	go	0.413	Go_X	1.0
631.349	1.0	go	0.508	Go_O	1.0
633.873	0.4	stop	0.0	Go_X	1.0
636.398	1.0	go	0.423	Go_X	1.0
638.922	0.45	stop	0.511	Go_O	0.0
641.446	1.0	go	0.555	Go_O	1.0
643.97	1.0	go	0.445	Go_X	1.0
646.494	1.0	go	0.359	Go_O	1.0
649.018	1.0	go	0.428	Go_X	1.0
651.543	1.0	go	0.683	Go_X	0.0
654.067	1.0	go	0.707	Go_O	1.0
656.591	1.0	go	0.535	Go_O	1.0
659.115	1.0	go	0.954	Go_X	1.0
661.639	1.0	go	0.358	Go_X	1.0
664.163	0.4	stop	0.35	Go_X	0.0
666.688	1.0	go	0.455	Go_O	1.0
669.212	1.0	go	0.429	Go_O	1.0
671.736	1.0	go	0.447	Go_X	1.0
674.26	0.35	stop	0.396	Go_O	0.0
676.784	1.0	go	0.435	Go_O	1.0
679.308	1.0	go	0.373	Go_X	1.0
681.833	1.0	go	0.491	Go_O	1.0
684.357	1.0	go	0.392	Go_X	1.0
686.881	1.0	go	0.356	Go_O	1.0
689.405	1.0	go	0.639	Go_X	1.0
691.929	0.3	stop	0.0	Go_X	1.0
694.453	1.0	go	0.608	Go_X	1.0
696.977	1.0	go	0.278	Go_O	1.0
699.502	0.35	stop	0.429	Go_O	0.0
702.026	1.0	go	0.436	Go_O	1.0
704.55	1.0	go	0.396	Go_X	1.0
707.074	0.3	stop	0.0	Go_X	1.0
709.598	1.0	go	0.693	Go_O	1.0
712.122	0.35	stop	0.0	Go_O	1.0
714.647	1.0	go	0.41	Go_X	1.0
717.171	1.0	go	0.699	Go_X	1.0
719.695	1.0	go	0.511	Go_O	1.0
722.219	1.0	go	0.705	Go_X	1.0
724.743	1.0	go	0.855	Go_O	1.0
727.267	0.4	stop	0.0	Go_X	1.0
729.792	0.45	stop	0.575	Go_O	0.0
732.316	1.0	go	0.649	Go_O	1.0
734.84	1.0	go	0.318	Go_X	1.0
737.364	0.4	stop	0.324	Go_X	0.0
739.888	1.0	go	0.547	Go_O	1.0
742.412	1.0	go	0.582	Go_X	1.0
744.937	1.0	go	0.617	Go_X	1.0
747.461	1.0	go	0.699	Go_O	1.0
749.985	1.0	go	0.863	Go_O	1.0
752.509	1.0	go	0.68	Go_X	1.0
755.033	0.35	stop	0.0	Go_O	1.0
757.557	1.0	go	0.611	Go_X	1.0
760.081	1.0	go	0.628	Go_O	1.0
762.606	1.0	go	0.712	Go_X	1.0
765.13	1.0	go	0.504	Go_O	1.0
767.654	1.0	go	0.758	Go_X	1.0
770.178	0.4	stop	0.0	Go_X	1.0
772.702	1.0	go	0.437	Go_O	1.0
775.226	1.0	go	0.514	Go_X	1.0
777.751	1.0	go	0.578	Go_O	1.0
780.275	1.0	go	0.51	Go_O	1.0
782.799	0.45	stop	0.476	Go_O	0.0
785.323	1.0	go	0.541	Go_X	1.0
787.847	1.0	go	0.591	Go_O	1.0
790.371	0.4	stop	0.0	Go_X	1.0
792.896	1.0	go	0.91	Go_X	1.0
795.42	0.45	stop	0.0	Go_O	1.0
797.944	1.0	go	0.784	Go_O	1.0
800.468	1.0	go	0.536	Go_X	1.0
802.992	1.0	go	0.581	Go_X	1.0
805.516	1.0	go	0.527	Go_O	1.0
808.041	1.0	go	0.546	Go_X	1.0
810.565	1.0	go	0.595	Go_O	1.0
813.089	1.0	go	0.428	Go_X	1.0
815.613	0.5	stop	0.676	Go_X	0.0
818.137	1.0	go	0.78	Go_O	1.0
820.661	1.0	go	0.481	Go_X	1.0
823.186	1.0	go	0.572	Go_O	1.0
825.71	0.45	stop	0.767	Go_O	0.0
828.234	1.0	go	0.644	Go_X	1.0
830.758	1.0	go	0.472	Go_O	1.0
833.282	1.0	go	0.731	Go_X	1.0
835.806	1.0	go	0.616	Go_O	1.0
838.33	0.4	stop	0.525	Go_X	0.0
840.855	1.0	go	0.607	Go_X	1.0
843.379	1.0	go	0.611	Go_O	1.0
845.903	0.35	stop	0.0	Go_O	1.0
848.427	1.0	go	0.391	Go_X	1.0
850.951	1.0	go	0.583	Go_O	1.0
853.475	0.4	stop	0.0	Go_X	1.0
856.0	1.0	go	0.589	Go_O	1.0
858.524	1.0	go	0.72	Go_X	1.0
861.048	0.45	stop	0.408	Go_O	0.0
863.572	1.0	go	0.39	Go_O	1.0
866.096	1.0	go	0.644	Go_X	1.0
868.62	1.0	go	0.38	Go_O	1.0
871.145	1.0	go	0.623	Go_X	1.0
873.669	1.0	go	0.354	Go_O	1.0
876.193	1.0	go	0.411	Go_X	1.0
878.717	0.4	stop	0.524	Go_X	0.0
881.241	1.0	go	0.0	Go_X	0.0
883.765	0.35	stop	0.405	Go_O	0.0
886.29	1.0	go	0.0	Go_O	0.0
888.814	1.0	go	0.344	Go_X	1.0
891.338	1.0	go	0.55	Go_O	1.0
893.862	1.0	go	0.509	Go_X	1.0
896.386	1.0	go	0.505	Go_O	0.0
898.91	0.3	stop	0.638	Go_X	0.0
901.434	1.0	go	0.526	Go_O	1.0
903.959	1.0	go	0.837	Go_X	1.0
906.483	1.0	go	0.69	Go_X	1.0
909.007	0.25	stop	0.0	Go_O	1.0
911.531	0.3	stop	0.38	Go_X	0.0
914.055	0.25	stop	0.488	Go_O	0.0
916.579	1.0	go	0.702	Go_O	1.0
919.104	0.2	stop	0.0	Go_X	1.0
921.628	1.0	go	0.589	Go_O	1.0
924.152	1.0	go	0.482	Go_X	1.0
926.676	1.0	go	0.528	Go_X	1.0
929.2	1.0	go	0.5	Go_O	1.0
931.724	1.0	go	0.446	Go_X	1.0
934.249	1.0	go	0.579	Go_O	1.0
936.773	1.0	go	0.517	Go_X	1.0
939.297	1.0	go	0.545	Go_O	1.0
941.821	0.25	stop	0.0	Go_O	1.0
944.345	1.0	go	0.287	Go_O	1.0
946.869	1.0	go	0.434	Go_X	1.0
949.394	0.3	stop	0.0	Go_X	1.0
951.918	1.0	go	0.501	Go_X	1.0
954.442	1.0	go	0.647	Go_O	1.0
956.966	1.0	go	0.672	Go_X	1.0
959.49	1.0	go	0.664	Go_O	1.0
962.014	1.0	go	0.675	Go_O	1.0
964.539	0.35	stop	0.507	Go_O	0.0
967.079	1.0	go	0.47	Go_X	1.0
969.604	1.0	go	0.379	Go_X	1.0
972.128	1.0	go	0.403	Go_O	1.0
974.652	0.3	stop	0.5	Go_X	0.0
977.176	1.0	go	0.435	Go_X	1.0
979.7	0.25	stop	0.473	Go_O	0.0
982.224	1.0	go	0.545	Go_O	1.0
984.749	1.0	go	0.705	Go_O	1.0
987.273	1.0	go	0.883	Go_X	1.0
989.797	1.0	go	0.875	Go_O	0.0
992.321	1.0	go	0.76	Go_X	1.0
994.845	1.0	go	0.393	Go_O	1.0
997.369	1.0	go	0.722	Go_X	1.0
999.893	0.2	stop	0.0	Go_X	1.0
1002.418	1.0	go	0.5	Go_O	1.0
1004.942	1.0	go	0.647	Go_X	1.0
1007.466	1.0	go	0.622	Go_X	1.0
1009.99	1.0	go	0.816	Go_O	1.0
1012.514	0.25	stop	0.0	Go_O	1.0
1015.038	1.0	go	0.544	Go_O	1.0
1017.563	0.3	stop	0.0	Go_X	1.0
1020.087	1.0	go	0.594	Go_X	1.0
1022.611	1.0	go	0.568	Go_O	1.0
1025.135	0.35	stop	0.467	Go_O	0.0
1027.659	1.0	go	0.73	Go_X	1.0
1030.183	1.0	go	0.482	Go_O	1.0
1032.708	1.0	go	0.469	Go_X	1.0
1035.232	1.0	go	0.458	Go_X	1.0
1037.756	1.0	go	0.44	Go_O	1.0
1040.28	1.0	go	0.577	Go_O	1.0
1042.804	1.0	go	0.84	Go_X	1.0
1045.328	1.0	go	0.415	Go_X	1.0
1047.853	1.0	go	0.386	Go_O	1.0
1050.377	1.0	go	0.452	Go_O	1.0
1052.901	0.3	stop	0.0	Go_X	1.0
1055.425	1.0	go	0.373	Go_X	1.0
1057.949	1.0	go	0.43	Go_O	1.0
1060.473	0.35	stop	0.462	Go_O	0.0
1062.998	1.0	go	0.269	Go_X	1.0
1065.522	0.3	stop	0.43	Go_X	0.0
1068.046	1.0	go	0.4	Go_X	0.0
1070.57	1.0	go	0.575	Go_O	1.0
1073.094	0.25	stop	0.0	Go_O	1.0
1075.618	1.0	go	0.512	Go_X	1.0
1078.142	0.3	stop	0.0	Go_X	1.0
1080.667	1.0	go	0.641	Go_O	1.0
1083.191	1.0	go	0.674	Go_X	1.0
1085.715	1.0	go	0.452	Go_O	1.0
1088.239	0.35	stop	0.446	Go_O	0.0
1090.763	1.0	go	0.682	Go_O	1.0
1093.287	1.0	go	0.53	Go_X	1.0
1095.812	1.0	go	0.401	Go_O	1.0
1098.336	1.0	go	0.625	Go_X	1.0
1100.86	0.3	stop	0.446	Go_X	0.0
1103.384	1.0	go	0.379	Go_O	1.0
1105.908	1.0	go	0.874	Go_X	1.0
1108.432	0.25	stop	0.441	Go_O	0.0
1110.957	1.0	go	0.508	Go_X	1.0
1113.481	1.0	go	0.567	Go_O	1.0
1116.005	1.0	go	0.553	Go_X	1.0
1118.529	1.0	go	0.62	Go_O	1.0
1121.053	0.2	stop	0.0	Go_X	1.0
1123.577	1.0	go	0.506	Go_O	1.0
1126.102	0.25	stop	0.443	Go_O	0.0
1128.626	1.0	go	0.517	Go_X	1.0
1131.15	1.0	go	0.52	Go_O	1.0
1133.674	0.2	stop	0.0	Go_X	1.0
1136.198	1.0	go	0.49	Go_X	1.0
1138.722	1.0	go	0.536	Go_O	1.0
1141.247	1.0	go	0.544	Go_X	1.0
1143.771	1.0	go	0.581	Go_X	0.0
1146.295	0.25	stop	0.0	Go_O	1.0
1148.819	1.0	go	0.516	Go_O	1.0
1151.343	0.3	stop	0.603	Go_X	0.0
1153.867	1.0	go	0.482	Go_X	1.0
1156.391	1.0	go	0.58	Go_O	1.0
1158.916	1.0	go	0.789	Go_X	1.0
1161.44	1.0	go	0.477	Go_O	1.0
1163.964	1.0	go	0.646	Go_X	1.0
1166.488	1.0	go	0.872	Go_O	1.0
1169.012	0.25	stop	0.0	Go_O	1.0
1171.536	1.0	go	0.69	Go_O	1.0
1174.061	1.0	go	0.601	Go_X	1.0
1176.585	0.3	stop	0.559	Go_X	0.0
1179.109	1.0	go	0.38	Go_O	1.0
1181.633	1.0	go	0.622	Go_X	1.0
1184.157	0.25	stop	0.438	Go_O	0.0
1186.681	1.0	go	0.527	Go_O	1.0
1189.206	1.0	go	0.595	Go_X	1.0
1191.73	1.0	go	0.728	Go_O	1.0
1194.254	1.0	go	0.533	Go_X	1.0
1196.778	0.2	stop	0.0	Go_X	1.0
1199.302	1.0	go	0.491	Go_O	1.0
1201.826	0.25	stop	0.0	Go_O	1.0
1204.351	1.0	go	0.41	Go_X	1.0
1206.875	1.0	go	0.563	Go_X	0.0
1209.399	1.0	go	0.428	Go_O	0.0
1211.923	1.0	go	0.502	Go_O	1.0
1214.447	1.0	go	0.423	Go_X	1.0
1216.971	0.3	stop	0.0	Go_X	1.0
1219.495	1.0	go	0.449	Go_O	0.0
1222.02	1.0	go	0.572	Go_X	0.0
1224.544	0.35	stop	0.586	Go_O	0.0
1227.068	0.3	stop	0.0	Go_X	1.0
1229.592	1.0	go	0.53	Go_O	1.0
1232.116	1.0	go	0.591	Go_X	1.0
1234.64	1.0	go	0.581	Go_X	1.0
1237.165	1.0	go	0.771	Go_O	1.0
1239.689	0.35	stop	0.0	Go_O	1.0
1242.213	1.0	go	0.617	Go_X	1.0
