onset	duration	trial_type	response_time	stim_file	accuracy
0.5319999999999823	1.0	go	0.605	Go_X	1.0
3.055999999999983	1.0	go	0.432	Go_O	1.0
5.579999999999984	1.0	go	0.439	Go_X	1.0
8.105000000000018	1.0	go	0.313	Go_O	1.0
10.629000000000019	1.0	go	0.358	Go_O	1.0
13.15300000000002	1.0	go	0.358	Go_X	1.0
15.677000000000021	0.25	stopfail	0.334	Go_O	0.0
18.201000000000022	1.0	go	0.588	Go_O	1.0
20.725000000000023	0.2	stopsuccess	0.0	Go_X	1.0
23.25	1.0	go	0.567	Go_X	1.0
25.774000000000058	1.0	go	0.643	Go_X	1.0
28.29800000000006	1.0	go	0.548	Go_O	1.0
30.821999999999946	0.25	stopsuccess	0.0	Go_O	1.0
33.34599999999995	1.0	go	0.462	Go_O	1.0
35.86999999999995	1.0	go	0.609	Go_X	1.0
38.39500000000004	0.3	stopfail	0.446	Go_X	0.0
40.91900000000004	0.25	stopsuccess	0.0	Go_O	1.0
43.44300000000004	1.0	go	0.469	Go_O	0.0
45.96700000000004	1.0	go	0.469	Go_X	1.0
48.49100000000004	0.3	stopsuccess	0.0	Go_X	1.0
51.01500000000004	1.0	go	0.589	Go_X	1.0
53.539000000000044	1.0	go	0.521	Go_O	1.0
56.06400000000002	0.35	stopsuccess	0.0	Go_O	1.0
58.58800000000002	1.0	go	0.502	Go_X	1.0
61.11200000000002	1.0	go	0.3	Go_O	1.0
63.636000000000024	0.4	stopfail	0.332	Go_X	0.0
66.16000000000003	1.0	go	0.454	Go_O	1.0
68.68400000000003	1.0	go	0.619	Go_X	1.0
71.209	0.35	stopfail	0.422	Go_O	0.0
73.733	1.0	go	0.527	Go_X	1.0
76.257	1.0	go	0.572	Go_O	1.0
78.781	1.0	go	0.607	Go_X	1.0
81.305	1.0	go	0.45	Go_O	1.0
83.82900000000001	1.0	go	0.51	Go_X	1.0
86.35399999999998	0.3	stopsuccess	0.0	Go_X	1.0
88.87799999999999	1.0	go	0.45	Go_O	1.0
91.40199999999999	1.0	go	0.447	Go_X	1.0
93.92599999999999	1.0	go	0.699	Go_O	1.0
96.44999999999999	1.0	go	0.447	Go_O	1.0
98.97399999999999	1.0	go	0.52	Go_X	1.0
101.49899999999997	0.35	stopfail	0.444	Go_O	0.0
104.02299999999997	1.0	go	0.751	Go_X	1.0
106.54699999999997	1.0	go	0.63	Go_O	1.0
109.07099999999997	1.0	go	0.582	Go_X	1.0
111.59499999999997	1.0	go	0.42	Go_O	1.0
114.11899999999997	1.0	go	0.525	Go_X	1.0
116.64399999999995	1.0	go	0.492	Go_O	1.0
119.16799999999995	0.3	stopsuccess	0.0	Go_X	1.0
121.69199999999995	1.0	go	0.371	Go_X	1.0
124.21599999999995	1.0	go	0.46	Go_O	1.0
126.73999999999995	0.35	stopsuccess	0.0	Go_O	1.0
129.26399999999995	1.0	go	0.502	Go_X	1.0
131.78799999999995	0.4	stopsuccess	0.0	Go_X	1.0
134.31300000000005	0.45	stopfail	0.433	Go_O	0.0
136.83700000000005	1.0	go	0.687	Go_O	1.0
139.36100000000005	1.0	go	0.801	Go_O	1.0
141.88500000000005	1.0	go	0.413	Go_X	1.0
144.40900000000005	1.0	go	0.508	Go_O	1.0
146.93300000000005	0.4	stopsuccess	0.0	Go_X	1.0
149.45800000000003	1.0	go	0.423	Go_X	1.0
151.98200000000003	0.45	stopfail	0.511	Go_O	0.0
154.50600000000003	1.0	go	0.555	Go_O	1.0
157.03000000000003	1.0	go	0.445	Go_X	1.0
159.55400000000003	1.0	go	0.359	Go_O	1.0
162.07800000000003	1.0	go	0.428	Go_X	1.0
164.603	1.0	go	0.683	Go_X	0.0
167.127	1.0	go	0.707	Go_O	1.0
169.651	1.0	go	0.535	Go_O	1.0
172.175	1.0	go	0.954	Go_X	1.0
174.699	1.0	go	0.358	Go_X	1.0
177.223	0.4	stopfail	0.35	Go_X	0.0
179.748	1.0	go	0.455	Go_O	1.0
182.272	1.0	go	0.429	Go_O	1.0
184.796	1.0	go	0.447	Go_X	1.0
187.32	0.35	stopfail	0.396	Go_O	0.0
189.844	1.0	go	0.435	Go_O	1.0
192.368	1.0	go	0.373	Go_X	1.0
194.89299999999997	1.0	go	0.491	Go_O	1.0
197.41699999999997	1.0	go	0.392	Go_X	1.0
199.94099999999997	1.0	go	0.356	Go_O	1.0
202.46499999999997	1.0	go	0.639	Go_X	1.0
204.98899999999998	0.3	stopsuccess	0.0	Go_X	1.0
207.51299999999998	1.0	go	0.608	Go_X	1.0
210.03699999999998	1.0	go	0.278	Go_O	1.0
212.56199999999995	0.35	stopfail	0.429	Go_O	0.0
215.08599999999996	1.0	go	0.436	Go_O	1.0
217.60999999999996	1.0	go	0.396	Go_X	1.0
220.13399999999996	0.3	stopsuccess	0.0	Go_X	1.0
222.65799999999996	1.0	go	0.693	Go_O	1.0
225.18199999999996	0.35	stopsuccess	0.0	Go_O	1.0
227.70700000000005	1.0	go	0.41	Go_X	1.0
230.23100000000005	1.0	go	0.699	Go_X	1.0
232.75500000000005	1.0	go	0.511	Go_O	1.0
235.27900000000005	1.0	go	0.705	Go_X	1.0
237.80300000000005	1.0	go	0.855	Go_O	1.0
240.32700000000006	0.4	stopsuccess	0.0	Go_X	1.0
242.85200000000003	0.45	stopfail	0.575	Go_O	0.0
245.37600000000003	1.0	go	0.649	Go_O	1.0
247.90000000000003	1.0	go	0.318	Go_X	1.0
250.42400000000004	0.4	stopfail	0.324	Go_X	0.0
252.94800000000004	1.0	go	0.547	Go_O	1.0
255.47200000000004	1.0	go	0.582	Go_X	1.0
257.997	1.0	go	0.617	Go_X	1.0
260.521	1.0	go	0.699	Go_O	1.0
263.045	1.0	go	0.863	Go_O	1.0
265.569	1.0	go	0.68	Go_X	1.0
268.093	0.35	stopsuccess	0.0	Go_O	1.0
270.617	1.0	go	0.611	Go_X	1.0
273.141	1.0	go	0.628	Go_O	1.0
275.666	1.0	go	0.712	Go_X	1.0
278.19	1.0	go	0.504	Go_O	1.0
280.714	1.0	go	0.758	Go_X	1.0
283.238	0.4	stopsuccess	0.0	Go_X	1.0
285.762	1.0	go	0.437	Go_O	1.0
288.286	1.0	go	0.514	Go_X	1.0
290.811	1.0	go	0.578	Go_O	1.0
293.335	1.0	go	0.51	Go_O	1.0
295.859	0.45	stopfail	0.476	Go_O	0.0
298.383	1.0	go	0.541	Go_X	1.0
300.907	1.0	go	0.591	Go_O	1.0
303.431	0.4	stopsuccess	0.0	Go_X	1.0
305.95599999999996	1.0	go	0.91	Go_X	1.0
308.47999999999996	0.45	stopsuccess	0.0	Go_O	1.0
311.00399999999996	1.0	go	0.784	Go_O	1.0
313.52799999999996	1.0	go	0.536	Go_X	1.0
316.05199999999996	1.0	go	0.581	Go_X	1.0
318.57599999999996	1.0	go	0.527	Go_O	1.0
321.10100000000006	1.0	go	0.546	Go_X	1.0
323.62500000000006	1.0	go	0.595	Go_O	1.0
326.14900000000006	1.0	go	0.428	Go_X	1.0
328.67300000000006	0.5	stopfail	0.676	Go_X	0.0
331.19699999999995	1.0	go	0.78	Go_O	1.0
333.72099999999995	1.0	go	0.481	Go_X	1.0
336.24600000000004	1.0	go	0.572	Go_O	1.0
338.77000000000004	0.45	stopfail	0.767	Go_O	0.0
341.29400000000004	1.0	go	0.644	Go_X	1.0
343.81800000000004	1.0	go	0.472	Go_O	1.0
346.34200000000004	1.0	go	0.731	Go_X	1.0
348.86600000000004	1.0	go	0.616	Go_O	1.0
351.39000000000004	0.4	stopfail	0.525	Go_X	0.0
353.915	1.0	go	0.607	Go_X	1.0
356.439	1.0	go	0.611	Go_O	1.0
358.963	0.35	stopsuccess	0.0	Go_O	1.0
361.487	1.0	go	0.391	Go_X	1.0
364.011	1.0	go	0.583	Go_O	1.0
366.535	0.4	stopsuccess	0.0	Go_X	1.0
369.06	1.0	go	0.589	Go_O	1.0
371.584	1.0	go	0.72	Go_X	1.0
374.108	0.45	stopfail	0.408	Go_O	0.0
376.632	1.0	go	0.39	Go_O	1.0
379.156	1.0	go	0.644	Go_X	1.0
381.68	1.0	go	0.38	Go_O	1.0
384.205	1.0	go	0.623	Go_X	1.0
386.729	1.0	go	0.354	Go_O	1.0
389.253	1.0	go	0.411	Go_X	1.0
391.777	0.4	stopfail	0.524	Go_X	0.0
394.301	1.0	go	0.0	Go_X	0.0
396.825	0.35	stopfail	0.405	Go_O	0.0
399.34999999999997	1.0	go	0.0	Go_O	0.0
401.87399999999997	1.0	go	0.344	Go_X	1.0
404.39799999999997	1.0	go	0.55	Go_O	1.0
406.92199999999997	1.0	go	0.509	Go_X	1.0
409.44599999999997	1.0	go	0.505	Go_O	0.0
411.96999999999997	0.3	stopfail	0.638	Go_X	0.0
414.49399999999997	1.0	go	0.526	Go_O	1.0
417.01899999999995	1.0	go	0.837	Go_X	1.0
419.54299999999995	1.0	go	0.69	Go_X	1.0
422.06699999999995	0.25	stopsuccess	0.0	Go_O	1.0
424.59099999999995	0.3	stopfail	0.38	Go_X	0.0
427.11499999999995	0.25	stopfail	0.488	Go_O	0.0
429.63899999999995	1.0	go	0.702	Go_O	1.0
432.16400000000004	0.2	stopsuccess	0.0	Go_X	1.0
434.68800000000005	1.0	go	0.589	Go_O	1.0
437.21200000000005	1.0	go	0.482	Go_X	1.0
439.73600000000005	1.0	go	0.528	Go_X	1.0
442.26000000000005	1.0	go	0.5	Go_O	1.0
444.78400000000005	1.0	go	0.446	Go_X	1.0
447.309	1.0	go	0.579	Go_O	1.0
449.833	1.0	go	0.517	Go_X	1.0
452.357	1.0	go	0.545	Go_O	1.0
454.88100000000003	0.25	stopsuccess	0.0	Go_O	1.0
457.40500000000003	1.0	go	0.287	Go_O	1.0
459.92900000000003	1.0	go	0.434	Go_X	1.0
462.454	0.3	stopsuccess	0.0	Go_X	1.0
464.978	1.0	go	0.501	Go_X	1.0
467.502	1.0	go	0.647	Go_O	1.0
470.026	1.0	go	0.672	Go_X	1.0
472.55	1.0	go	0.664	Go_O	1.0
475.074	1.0	go	0.675	Go_O	1.0
477.599	0.35	stopfail	0.507	Go_O	0.0
480.13899999999995	1.0	go	0.47	Go_X	1.0
482.66400000000004	1.0	go	0.379	Go_X	1.0
485.18800000000005	1.0	go	0.403	Go_O	1.0
487.71200000000005	0.3	stopfail	0.5	Go_X	0.0
490.23600000000005	1.0	go	0.435	Go_X	1.0
492.76000000000005	0.25	stopfail	0.473	Go_O	0.0
495.28400000000005	1.0	go	0.545	Go_O	1.0
497.809	1.0	go	0.705	Go_O	1.0
500.333	1.0	go	0.883	Go_X	1.0
502.857	1.0	go	0.875	Go_O	0.0
505.38100000000003	1.0	go	0.76	Go_X	1.0
507.90500000000003	1.0	go	0.393	Go_O	1.0
510.42900000000003	1.0	go	0.722	Go_X	1.0
512.953	0.2	stopsuccess	0.0	Go_X	1.0
515.4780000000001	1.0	go	0.5	Go_O	1.0
518.002	1.0	go	0.647	Go_X	1.0
520.5260000000001	1.0	go	0.622	Go_X	1.0
523.05	1.0	go	0.816	Go_O	1.0
525.5740000000001	0.25	stopsuccess	0.0	Go_O	1.0
528.098	1.0	go	0.544	Go_O	1.0
530.623	0.3	stopsuccess	0.0	Go_X	1.0
533.1469999999999	1.0	go	0.594	Go_X	1.0
535.671	1.0	go	0.568	Go_O	1.0
538.1949999999999	0.35	stopfail	0.467	Go_O	0.0
540.719	1.0	go	0.73	Go_X	1.0
543.2429999999999	1.0	go	0.482	Go_O	1.0
545.768	1.0	go	0.469	Go_X	1.0
548.2919999999999	1.0	go	0.458	Go_X	1.0
550.816	1.0	go	0.44	Go_O	1.0
553.3399999999999	1.0	go	0.577	Go_O	1.0
555.864	1.0	go	0.84	Go_X	1.0
558.3879999999999	1.0	go	0.415	Go_X	1.0
560.913	1.0	go	0.386	Go_O	1.0
563.4369999999999	1.0	go	0.452	Go_O	1.0
565.961	0.3	stopsuccess	0.0	Go_X	1.0
568.4849999999999	1.0	go	0.373	Go_X	1.0
571.009	1.0	go	0.43	Go_O	1.0
573.5329999999999	0.35	stopfail	0.462	Go_O	0.0
576.058	1.0	go	0.269	Go_X	1.0
578.5819999999999	0.3	stopfail	0.43	Go_X	0.0
581.106	1.0	go	0.4	Go_X	0.0
583.6299999999999	1.0	go	0.575	Go_O	1.0
586.154	0.25	stopsuccess	0.0	Go_O	1.0
588.6779999999999	1.0	go	0.512	Go_X	1.0
591.202	0.3	stopsuccess	0.0	Go_X	1.0
593.7269999999999	1.0	go	0.641	Go_O	1.0
596.251	1.0	go	0.674	Go_X	1.0
598.7749999999999	1.0	go	0.452	Go_O	1.0
601.299	0.35	stopfail	0.446	Go_O	0.0
603.8229999999999	1.0	go	0.682	Go_O	1.0
606.347	1.0	go	0.53	Go_X	1.0
608.8719999999998	1.0	go	0.401	Go_O	1.0
611.396	1.0	go	0.625	Go_X	1.0
613.9199999999998	0.3	stopfail	0.446	Go_X	0.0
616.444	1.0	go	0.379	Go_O	1.0
618.9679999999998	1.0	go	0.874	Go_X	1.0
621.492	0.25	stopfail	0.441	Go_O	0.0
624.017	1.0	go	0.508	Go_X	1.0
626.5409999999999	1.0	go	0.567	Go_O	1.0
629.065	1.0	go	0.553	Go_X	1.0
631.5889999999999	1.0	go	0.62	Go_O	1.0
634.113	0.2	stopsuccess	0.0	Go_X	1.0
636.637	1.0	go	0.506	Go_O	1.0
639.162	0.25	stopfail	0.443	Go_O	0.0
641.6859999999999	1.0	go	0.517	Go_X	1.0
644.21	1.0	go	0.52	Go_O	1.0
646.7339999999999	0.2	stopsuccess	0.0	Go_X	1.0
649.258	1.0	go	0.49	Go_X	1.0
651.7819999999999	1.0	go	0.536	Go_O	1.0
654.307	1.0	go	0.544	Go_X	1.0
656.8309999999999	1.0	go	0.581	Go_X	0.0
659.355	0.25	stopsuccess	0.0	Go_O	1.0
661.8789999999999	1.0	go	0.516	Go_O	1.0
664.403	0.3	stopfail	0.603	Go_X	0.0
666.9269999999999	1.0	go	0.482	Go_X	1.0
669.451	1.0	go	0.58	Go_O	1.0
671.9759999999999	1.0	go	0.789	Go_X	1.0
674.5	1.0	go	0.477	Go_O	1.0
677.0239999999999	1.0	go	0.646	Go_X	1.0
679.548	1.0	go	0.872	Go_O	1.0
682.0719999999999	0.25	stopsuccess	0.0	Go_O	1.0
684.596	1.0	go	0.69	Go_O	1.0
687.1209999999999	1.0	go	0.601	Go_X	1.0
689.645	0.3	stopfail	0.559	Go_X	0.0
692.1689999999999	1.0	go	0.38	Go_O	1.0
694.693	1.0	go	0.622	Go_X	1.0
697.2169999999999	0.25	stopfail	0.438	Go_O	0.0
699.741	1.0	go	0.527	Go_O	1.0
702.2659999999998	1.0	go	0.595	Go_X	1.0
704.79	1.0	go	0.728	Go_O	1.0
707.3139999999999	1.0	go	0.533	Go_X	1.0
709.838	0.2	stopsuccess	0.0	Go_X	1.0
712.3619999999999	1.0	go	0.491	Go_O	1.0
714.886	0.25	stopsuccess	0.0	Go_O	1.0
717.4110000000001	1.0	go	0.41	Go_X	1.0
719.935	1.0	go	0.563	Go_X	0.0
722.4589999999998	1.0	go	0.428	Go_O	0.0
724.983	1.0	go	0.502	Go_O	1.0
727.5069999999998	1.0	go	0.423	Go_X	1.0
730.031	0.3	stopsuccess	0.0	Go_X	1.0
732.5549999999998	1.0	go	0.449	Go_O	0.0
735.0799999999999	1.0	go	0.572	Go_X	0.0
737.604	0.35	stopfail	0.586	Go_O	0.0
740.1279999999999	0.3	stopsuccess	0.0	Go_X	1.0
742.652	1.0	go	0.53	Go_O	1.0
745.1759999999999	1.0	go	0.591	Go_X	1.0
747.7	1.0	go	0.581	Go_X	1.0
750.2249999999999	1.0	go	0.771	Go_O	1.0
752.749	0.35	stopsuccess	0.0	Go_O	1.0
755.2729999999999	1.0	go	0.617	Go_X	1.0
