onset	duration	trial_type	response_time	stim_file	accuracy
50.218	1.0	go	0.0	Go_O	0.0
52.742	1.0	go	0.568	Go_X	0.0
55.266	1.0	go	0.814	Go_O	1.0
57.79	1.0	go	0.249	Go_X	1.0
60.314	1.0	go	0.471	Go_O	1.0
62.839	1.0	go	0.378	Go_X	1.0
65.363	0.25	stopsuccess	0.0	Go_O	1.0
67.887	1.0	go	0.373	Go_O	1.0
70.411	0.3	stopfail	0.375	Go_X	0.0
72.935	1.0	go	0.556	Go_X	1.0
75.46	1.0	go	0.474	Go_X	1.0
77.984	1.0	go	0.529	Go_O	1.0
80.508	0.25	stopsuccess	0.0	Go_O	1.0
83.032	1.0	go	0.535	Go_X	1.0
85.556	1.0	go	0.384	Go_O	1.0
88.081	0.3	stopsuccess	0.0	Go_X	1.0
90.605	0.35	stopfail	0.392	Go_O	0.0
93.129	1.0	go	0.409	Go_X	1.0
95.653	1.0	go	0.668	Go_O	1.0
98.177	0.3	stopsuccess	0.0	Go_X	1.0
100.702	1.0	go	0.422	Go_X	1.0
103.226	1.0	go	0.744	Go_O	1.0
105.75	0.35	stopsuccess	0.0	Go_O	1.0
108.274	1.0	go	0.464	Go_O	1.0
110.798	1.0	go	0.403	Go_X	1.0
113.323	0.4	stopsuccess	0.0	Go_X	1.0
115.847	1.0	go	0.24	Go_O	1.0
118.371	1.0	go	0.568	Go_X	1.0
120.895	0.45	stopsuccess	0.0	Go_O	1.0
123.419	1.0	go	0.445	Go_X	1.0
125.943	1.0	go	0.622	Go_O	0.0
128.468	1.0	go	0.46	Go_O	1.0
130.992	1.0	go	0.823	Go_X	1.0
133.516	1.0	go	0.806	Go_X	1.0
136.04	0.5	stopsuccess	0.0	Go_X	1.0
138.564	1.0	go	0.233	Go_O	1.0
141.089	1.0	go	0.682	Go_O	1.0
143.613	1.0	go	0.354	Go_X	1.0
146.137	1.0	go	0.714	Go_O	1.0
148.661	1.0	go	0.828	Go_X	1.0
151.185	0.55	stopsuccess	0.0	Go_O	1.0
153.71	1.0	go	0.488	Go_O	1.0
156.234	1.0	go	0.493	Go_X	1.0
158.758	1.0	go	0.648	Go_O	1.0
161.282	1.0	go	0.484	Go_X	0.0
163.806	1.0	go	0.461	Go_X	1.0
166.331	1.0	go	0.584	Go_O	1.0
168.855	0.6	stopfail	0.603	Go_X	0.0
171.379	1.0	go	0.372	Go_O	1.0
173.903	1.0	go	0.61	Go_X	0.0
176.427	0.55	stopfail	0.277	Go_O	0.0
178.952	1.0	go	0.513	Go_O	1.0
181.476	0.5	stopfail	0.698	Go_X	0.0
184.0	0.45	stopfail	0.457	Go_O	0.0
186.524	1.0	go	0.521	Go_X	1.0
189.048	1.0	go	0.581	Go_O	1.0
191.572	1.0	go	0.775	Go_X	1.0
194.097	1.0	go	0.719	Go_X	1.0
196.621	0.4	stopfail	0.456	Go_X	0.0
199.145	1.0	go	0.508	Go_O	1.0
201.669	0.35	stopsuccess	0.0	Go_O	1.0
204.193	1.0	go	0.492	Go_X	1.0
206.718	1.0	go	0.659	Go_O	0.0
209.242	1.0	go	0.0	Go_O	0.0
211.766	1.0	go	0.612	Go_X	1.0
214.29	1.0	go	0.436	Go_X	0.0
216.814	1.0	go	0.421	Go_O	1.0
219.339	1.0	go	0.581	Go_O	0.0
221.863	1.0	go	0.667	Go_X	1.0
224.387	1.0	go	0.456	Go_X	0.0
226.911	0.4	stopfail	0.515	Go_X	0.0
229.435	1.0	go	0.716	Go_O	1.0
231.96	1.0	go	0.504	Go_O	1.0
234.484	1.0	go	0.535	Go_X	1.0
237.008	0.35	stopsuccess	0.0	Go_O	1.0
239.532	1.0	go	0.625	Go_X	1.0
242.056	1.0	go	0.558	Go_O	1.0
244.581	1.0	go	0.627	Go_X	0.0
247.105	1.0	go	0.57	Go_O	0.0
249.629	1.0	go	0.595	Go_O	1.0
252.153	1.0	go	0.828	Go_X	1.0
254.677	0.4	stopfail	0.596	Go_X	0.0
257.201	1.0	go	0.472	Go_X	1.0
259.726	1.0	go	0.518	Go_O	1.0
262.25	0.35	stopsuccess	0.0	Go_O	1.0
264.774	1.0	go	0.441	Go_O	1.0
267.298	1.0	go	0.353	Go_X	1.0
269.822	0.4	stopfail	0.613	Go_X	0.0
272.347	1.0	go	0.556	Go_X	1.0
274.871	0.35	stopsuccess	0.0	Go_O	1.0
277.395	1.0	go	0.647	Go_O	1.0
279.919	1.0	go	0.581	Go_O	1.0
282.443	1.0	go	0.818	Go_X	1.0
284.968	1.0	go	0.665	Go_X	1.0
287.492	1.0	go	0.789	Go_O	1.0
290.016	0.4	stopfail	0.41	Go_X	0.0
292.54	0.35	stopsuccess	0.0	Go_O	1.0
295.064	1.0	go	0.63	Go_O	1.0
297.589	1.0	go	0.56	Go_X	1.0
300.113	0.4	stopfail	0.512	Go_X	0.0
302.637	1.0	go	0.435	Go_X	1.0
305.161	1.0	go	0.502	Go_O	1.0
307.685	1.0	go	0.467	Go_X	1.0
310.21	1.0	go	0.747	Go_O	1.0
312.734	1.0	go	0.725	Go_O	1.0
315.258	1.0	go	0.63	Go_X	1.0
317.782	0.35	stopsuccess	0.0	Go_O	1.0
320.306	1.0	go	0.693	Go_X	0.0
322.83	1.0	go	0.492	Go_O	0.0
325.355	1.0	go	0.683	Go_O	0.0
327.879	1.0	go	0.664	Go_X	0.0
330.403	1.0	go	0.555	Go_O	1.0
332.927	0.4	stopfail	0.409	Go_X	0.0
335.451	1.0	go	0.59	Go_X	1.0
337.976	1.0	go	0.656	Go_O	1.0
340.5	1.0	go	0.474	Go_X	1.0
343.024	1.0	go	0.0	Go_X	0.0
345.548	0.35	stopfail	0.201	Go_O	0.0
348.072	1.0	go	0.439	Go_O	1.0
350.597	1.0	go	0.625	Go_O	1.0
353.121	0.3	stopfail	0.435	Go_X	0.0
355.645	1.0	go	0.794	Go_X	1.0
358.169	0.25	stopsuccess	0.0	Go_O	1.0
360.693	1.0	go	0.459	Go_O	1.0
363.218	1.0	go	0.571	Go_X	1.0
365.742	1.0	go	0.434	Go_O	1.0
368.266	1.0	go	0.562	Go_X	1.0
370.79	1.0	go	0.428	Go_O	1.0
373.314	1.0	go	0.573	Go_X	1.0
375.839	1.0	go	0.597	Go_X	1.0
378.363	0.3	stopsuccess	0.0	Go_X	1.0
380.887	1.0	go	0.352	Go_O	1.0
383.411	1.0	go	0.435	Go_O	1.0
385.935	1.0	go	0.601	Go_X	1.0
388.459	0.35	stopsuccess	0.0	Go_O	1.0
390.984	1.0	go	0.887	Go_O	1.0
393.508	1.0	go	0.46	Go_X	1.0
396.032	1.0	go	0.577	Go_X	1.0
398.556	1.0	go	0.508	Go_O	1.0
401.08	0.4	stopfail	0.321	Go_X	0.0
403.605	1.0	go	0.678	Go_X	1.0
406.129	1.0	go	0.598	Go_O	1.0
408.653	0.35	stopsuccess	0.0	Go_O	1.0
411.177	1.0	go	0.64	Go_O	1.0
413.701	1.0	go	0.549	Go_X	1.0
416.226	0.4	stopsuccess	0.0	Go_X	1.0
418.75	1.0	go	0.452	Go_O	1.0
421.274	1.0	go	0.753	Go_X	1.0
423.798	0.45	stopfail	0.431	Go_O	0.0
426.322	1.0	go	0.35	Go_O	1.0
428.847	1.0	go	0.647	Go_X	1.0
431.371	1.0	go	0.235	Go_X	0.0
433.895	1.0	go	0.503	Go_O	1.0
436.419	1.0	go	0.589	Go_X	1.0
438.943	1.0	go	0.439	Go_O	1.0
441.468	0.4	stopfail	0.616	Go_X	0.0
443.992	1.0	go	0.495	Go_O	0.0
446.516	0.35	stopfail	0.322	Go_O	0.0
449.04	1.0	go	0.369	Go_X	0.0
451.564	1.0	go	0.474	Go_O	0.0
454.088	1.0	go	0.0	Go_X	0.0
456.613	1.0	go	0.0	Go_O	0.0
459.137	1.0	go	0.726	Go_X	1.0
461.661	0.3	stopsuccess	0.0	Go_X	1.0
464.185	1.0	go	0.568	Go_X	1.0
466.709	1.0	go	0.083	Go_O	0.0
469.234	1.0	go	0.853	Go_X	0.0
471.758	0.35	stopsuccess	0.0	Go_O	1.0
474.282	0.4	stopsuccess	0.0	Go_X	1.0
476.806	0.45	stopfail	0.517	Go_O	0.0
479.33	1.0	go	0.564	Go_O	1.0
481.855	0.4	stopfail	0.478	Go_X	0.0
484.379	1.0	go	0.309	Go_O	1.0
486.903	1.0	go	0.763	Go_X	1.0
489.427	1.0	go	0.517	Go_O	1.0
491.951	1.0	go	0.753	Go_X	1.0
494.476	1.0	go	0.993	Go_X	1.0
497.0	1.0	go	0.713	Go_O	1.0
499.524	1.0	go	0.0	Go_X	0.0
502.048	1.0	go	0.472	Go_O	1.0
504.572	0.35	stopfail	0.81	Go_O	0.0
507.097	1.0	go	0.82	Go_X	1.0
509.621	1.0	go	0.585	Go_O	1.0
512.145	0.3	stopfail	0.947	Go_X	0.0
514.669	1.0	go	0.772	Go_X	1.0
517.193	1.0	go	0.967	Go_O	1.0
519.717	1.0	go	0.913	Go_O	1.0
522.242	1.0	go	0.554	Go_X	1.0
524.766	1.0	go	0.509	Go_X	1.0
527.29	0.25	stopsuccess	0.0	Go_O	1.0
529.814	1.0	go	0.361	Go_O	1.0
532.338	1.0	go	0.625	Go_X	1.0
534.863	1.0	go	0.728	Go_O	1.0
537.387	0.3	stopsuccess	0.0	Go_X	1.0
539.928	1.0	go	0.0	Go_X	0.0
542.452	0.35	stopsuccess	0.0	Go_O	1.0
544.976	1.0	go	0.378	Go_O	1.0
547.5	1.0	go	0.43	Go_X	1.0
550.024	1.0	go	0.546	Go_O	1.0
552.549	1.0	go	0.623	Go_X	1.0
555.073	1.0	go	0.508	Go_O	1.0
557.597	1.0	go	0.537	Go_X	1.0
560.121	1.0	go	0.271	Go_O	1.0
562.645	0.4	stopfail	0.428	Go_X	0.0
565.17	1.0	go	0.413	Go_X	0.0
567.694	1.0	go	0.615	Go_O	0.0
570.218	1.0	go	0.229	Go_X	0.0
572.742	1.0	go	0.0	Go_O	0.0
575.266	0.35	stopfail	0.481	Go_O	0.0
577.791	1.0	go	0.0	Go_O	0.0
580.315	0.3	stopsuccess	0.0	Go_X	1.0
582.839	1.0	go	0.0	Go_X	0.0
585.363	1.0	go	0.0	Go_O	0.0
587.887	0.35	stopsuccess	0.0	Go_O	1.0
590.412	1.0	go	0.453	Go_X	1.0
592.936	1.0	go	0.595	Go_X	1.0
595.46	1.0	go	0.827	Go_O	1.0
597.984	1.0	go	0.329	Go_O	1.0
600.508	1.0	go	0.934	Go_X	1.0
603.033	1.0	go	0.8	Go_X	1.0
605.557	1.0	go	0.748	Go_O	1.0
608.081	1.0	go	0.0	Go_X	0.0
610.605	1.0	go	0.838	Go_O	0.0
613.129	1.0	go	0.489	Go_O	1.0
615.653	0.4	stopsuccess	0.0	Go_X	1.0
618.178	1.0	go	0.618	Go_X	1.0
620.702	1.0	go	0.592	Go_X	1.0
623.226	0.45	stopfail	0.354	Go_O	0.0
625.75	1.0	go	0.0	Go_O	0.0
628.274	0.4	stopsuccess	0.0	Go_X	1.0
630.799	1.0	go	0.0	Go_O	0.0
633.323	1.0	go	0.0	Go_X	0.0
635.847	0.45	stopsuccess	0.0	Go_O	1.0
638.371	1.0	go	0.0	Go_O	0.0
640.895	0.5	stopsuccess	0.0	Go_X	1.0
643.42	1.0	go	0.0	Go_X	0.0
645.944	1.0	go	0.796	Go_O	1.0
648.468	1.0	go	0.382	Go_X	1.0
650.992	0.55	stopsuccess	0.0	Go_O	1.0
653.533	1.0	go	0.58	Go_O	1.0
656.057	1.0	go	0.802	Go_X	1.0
658.581	1.0	go	0.579	Go_X	1.0
661.106	1.0	go	0.0	Go_O	0.0
663.63	0.6	stopfail	0.56	Go_X	0.0
666.154	1.0	go	0.944	Go_X	0.0
668.678	1.0	go	0.538	Go_O	1.0
671.202	0.55	stopfail	0.561	Go_O	0.0
673.727	1.0	go	0.675	Go_X	1.0
676.268	1.0	go	0.495	Go_O	1.0
678.792	1.0	go	0.537	Go_X	1.0
681.316	1.0	go	0.697	Go_O	1.0
683.84	0.5	stopfail	0.604	Go_X	0.0
686.364	1.0	go	0.105	Go_O	1.0
688.888	0.45	stopfail	0.3	Go_O	0.0
691.413	1.0	go	0.146	Go_X	1.0
693.937	1.0	go	0.087	Go_X	0.0
696.461	0.4	stopfail	0.064	Go_X	0.0
698.985	1.0	go	0.278	Go_O	1.0
701.509	1.0	go	0.141	Go_X	0.0
704.034	1.0	go	0.089	Go_O	0.0
706.558	1.0	go	0.317	Go_O	0.0
709.099	0.35	stopsuccess	0.0	Go_O	1.0
711.623	1.0	go	0.0	Go_X	0.0
714.147	0.4	stopfail	0.226	Go_X	0.0
716.671	1.0	go	0.393	Go_X	0.0
719.196	1.0	go	0.629	Go_O	1.0
721.72	1.0	go	0.261	Go_O	0.0
724.244	1.0	go	0.126	Go_X	0.0
726.768	1.0	go	0.016	Go_X	0.0
729.292	1.0	go	0.662	Go_O	1.0
731.816	0.35	stopsuccess	0.0	Go_O	1.0
734.341	1.0	go	0.0	Go_X	0.0
736.865	1.0	go	0.647	Go_O	0.0
739.389	0.4	stopsuccess	0.0	Go_X	1.0
741.913	1.0	go	0.0	Go_O	0.0
744.437	1.0	go	0.0	Go_X	0.0
746.962	0.45	stopsuccess	0.0	Go_O	1.0
749.486	1.0	go	0.0	Go_X	0.0
752.01	1.0	go	0.463	Go_O	1.0
754.551	1.0	go	0.665	Go_X	1.0
757.075	1.0	go	0.543	Go_O	1.0
759.599	0.5	stopsuccess	0.0	Go_X	1.0
762.14	1.0	go	0.243	Go_O	0.0
764.664	0.55	stopfail	0.522	Go_O	0.0
767.189	1.0	go	0.137	Go_X	1.0
769.713	1.0	go	0.45	Go_O	0.0
772.237	1.0	go	0.169	Go_X	0.0
774.778	1.0	go	0.55	Go_O	1.0
777.302	1.0	go	0.228	Go_X	1.0
779.826	0.5	stopfail	0.262	Go_X	0.0
782.35	1.0	go	0.156	Go_O	1.0
784.875	1.0	go	0.646	Go_X	1.0
787.399	0.45	stopfail	0.728	Go_O	0.0
789.923	0.4	stopsuccess	0.0	Go_X	1.0
792.464	1.0	go	0.252	Go_O	1.0
794.988	1.0	go	0.014	Go_X	0.0
797.512	1.0	go	0.115	Go_X	0.0
800.037	1.0	go	0.068	Go_O	1.0
802.561	0.45	stopfail	0.288	Go_O	0.0
805.085	1.0	go	0.46	Go_X	0.0
