frame	onset	duration	trial_type	event_type	response_type	response_time	stim_file	accuracy
0	32.991		control-noreward	ImageDisplay1		0.0		
0	34.981	0.75	control-noreward	StartDisplay				
0	35.733		control-noreward	ImageDisplay2		0.0		
0	38.976	1.6	control-noreward	ChoiceDisplay		0.0		
0	40.581	0.0	control-noreward	ChosenDisplay		0.0		
0	40.597	0.25	control-noreward	TurnDisplay				
0	40.831	0.75	control-noreward	OutcomeDisplay				
1	41.567		loss-reward	ImageDisplay1		0.0		
1	43.573	0.75	loss-reward	StartDisplay				
1	44.325		loss-reward	ImageDisplay2		0.0		
1	47.568	1.6	loss-reward	ChoiceDisplay		0.0		
1	49.173	0.0	loss-reward	ChosenDisplay		0.0		
1	49.19	0.25	loss-reward	TurnDisplay				
1	49.424	0.75	loss-reward	OutcomeDisplay				
2	50.176		loss-reward	ImageDisplay1		0.0		
2	52.182	0.75	loss-reward	StartDisplay				
2	52.917		loss-reward	ImageDisplay2		0.0		
2	56.177	1.6	loss-reward	ChoiceDisplay	1	1.125	1	1
2	57.314	0.475	loss-reward	ChosenDisplay		0.0		
2	57.782	0.25	loss-reward	TurnDisplay				
2	58.032	0.75	loss-reward	OutcomeDisplay				
3	58.785		win-reward	ImageDisplay1		0.0		
3	61.025	0.75	win-reward	StartDisplay				
3	61.777		win-reward	ImageDisplay2		0.0		
3	64.786	1.6	win-reward	ChoiceDisplay	1	0.935	1	1
3	65.739	0.665	win-reward	ChosenDisplay		0.0		
3	66.391	0.25	win-reward	TurnDisplay				
3	66.641	0.75	win-reward	OutcomeDisplay				
4	67.394		win-reward	ImageDisplay1		0.0		
4	69.634	0.75	win-reward	StartDisplay				
4	70.386		win-reward	ImageDisplay2		0.0		
4	73.395	1.6	win-reward	ChoiceDisplay	1	1.025	1	1
4	74.448	0.575	win-reward	ChosenDisplay		0.0		
4	74.999	0.25	win-reward	TurnDisplay				
4	75.25	0.75	win-reward	OutcomeDisplay				
5	76.002		control-noreward	ImageDisplay1		0.0		
5	77.992	0.75	control-noreward	StartDisplay				
5	78.744		control-noreward	ImageDisplay2		0.0		
5	82.004	1.6	control-noreward	ChoiceDisplay	1	1.149	1	1
5	83.174	0.451	control-noreward	ChosenDisplay		0.0		
5	83.608	0.25	control-noreward	TurnDisplay				
5	83.859	0.75	control-noreward	OutcomeDisplay				
6	84.611		control-reward	ImageDisplay1		0.0		
6	86.851	0.75	control-reward	StartDisplay				
6	87.604		control-reward	ImageDisplay2		0.0		
6	90.613	1.6	control-reward	ChoiceDisplay	1	0.834	1	1
6	91.465	0.766	control-reward	ChosenDisplay		0.0		
6	92.217	0.25	control-reward	TurnDisplay				
6	92.468	0.75	control-reward	OutcomeDisplay				
7	93.22		win-reward	ImageDisplay1		0.0		
7	95.209	0.75	win-reward	StartDisplay				
7	95.962		win-reward	ImageDisplay2		0.0		
7	99.221	1.6	win-reward	ChoiceDisplay	1	0.9	1	1
7	100.141	0.7	win-reward	ChosenDisplay		0.0		
7	100.826	0.25	win-reward	TurnDisplay				
7	101.077	0.75	win-reward	OutcomeDisplay				
8	101.829		win-noreward	ImageDisplay1		0.0		
8	104.069	0.75	win-noreward	StartDisplay				
8	104.821		win-noreward	ImageDisplay2		0.0		
8	107.83	1.6	win-noreward	ChoiceDisplay	1	1.175	1	1
8	109.017	0.425	win-noreward	ChosenDisplay		0.0		
8	109.435	0.25	win-noreward	TurnDisplay				
8	109.686	0.75	win-noreward	OutcomeDisplay				
9	110.438		control-noreward	ImageDisplay1		0.0		
9	112.427	0.75	control-noreward	StartDisplay				
9	113.18		control-noreward	ImageDisplay2		0.0		
9	116.439	1.6	control-noreward	ChoiceDisplay	1	1.084	1	1
9	117.542	0.516	control-noreward	ChosenDisplay		0.0		
9	118.044	0.25	control-noreward	TurnDisplay				
9	118.295	0.75	control-noreward	OutcomeDisplay				
10	119.047		win-reward	ImageDisplay1		0.0		
10	121.287	0.75	win-reward	StartDisplay				
10	122.039		win-reward	ImageDisplay2		0.0		
10	125.048	1.6	win-reward	ChoiceDisplay	1	0.893	1	1
10	125.967	0.707	win-reward	ChosenDisplay		0.0		
10	126.653	0.25	win-reward	TurnDisplay				
10	126.904	0.75	win-reward	OutcomeDisplay				
11	127.656		control-noreward	ImageDisplay1		0.0		
11	129.896	0.75	control-noreward	StartDisplay				
11	130.648		control-noreward	ImageDisplay2		0.0		
11	133.657	1.6	control-noreward	ChoiceDisplay	1	0.947	1	1
11	134.627	0.653	control-noreward	ChosenDisplay		0.0		
11	135.262	0.25	control-noreward	TurnDisplay				
11	135.512	0.75	control-noreward	OutcomeDisplay				
12	136.265		control-noreward	ImageDisplay1		0.0		
12	138.505	0.75	control-noreward	StartDisplay				
12	139.257		control-noreward	ImageDisplay2		0.0		
12	142.266	1.6	control-noreward	ChoiceDisplay	1	0.976	1	1
12	143.269	0.624	control-noreward	ChosenDisplay		0.0		
12	143.871	0.25	control-noreward	TurnDisplay				
12	144.121	0.75	control-noreward	OutcomeDisplay				
13	144.874		loss-noreward	ImageDisplay1		0.0		
13	146.863	0.75	loss-noreward	StartDisplay				
13	147.615		loss-noreward	ImageDisplay2		0.0		
13	150.875	1.6	loss-noreward	ChoiceDisplay	1	0.827	1	1
13	151.727	0.773	loss-noreward	ChosenDisplay		0.0		
13	152.48	0.25	loss-noreward	TurnDisplay				
13	152.73	0.75	loss-noreward	OutcomeDisplay				
14	153.483		loss-noreward	ImageDisplay1		0.0		
14	155.722	0.75	loss-noreward	StartDisplay				
14	156.475		loss-noreward	ImageDisplay2		0.0		
14	159.484	1.6	loss-noreward	ChoiceDisplay	1	0.836	1	1
14	160.336	0.764	loss-noreward	ChosenDisplay		0.0		
14	161.088	0.25	loss-noreward	TurnDisplay				
14	161.339	0.75	loss-noreward	OutcomeDisplay				
15	162.091		loss-reward	ImageDisplay1		0.0		
15	164.081	0.75	loss-reward	StartDisplay				
15	164.833		loss-reward	ImageDisplay2		0.0		
15	168.093	1.6	loss-reward	ChoiceDisplay	1	1.174	1	1
15	169.279	0.426	loss-reward	ChosenDisplay		0.0		
15	169.697	0.25	loss-reward	TurnDisplay				
15	169.948	0.75	loss-reward	OutcomeDisplay				
16	170.7		control-noreward	ImageDisplay1		0.0		
16	172.69	0.75	control-noreward	StartDisplay				
16	173.442		control-noreward	ImageDisplay2		0.0		
16	176.701	1.6	control-noreward	ChoiceDisplay	1	1.441	1	1
16	178.156	0.159	control-noreward	ChosenDisplay		0.0		
16	178.306	0.25	control-noreward	TurnDisplay				
16	178.557	0.75	control-noreward	OutcomeDisplay				
17	179.309		control-noreward	ImageDisplay1		0.0		
17	181.549	0.75	control-noreward	StartDisplay				
17	182.301		control-noreward	ImageDisplay2		0.0		
17	185.31	1.6	control-noreward	ChoiceDisplay	1	0.913	1	1
17	186.246	0.687	control-noreward	ChosenDisplay		0.0		
17	186.915	0.25	control-noreward	TurnDisplay				
17	187.166	0.75	control-noreward	OutcomeDisplay				
18	187.918		loss-noreward	ImageDisplay1		0.0		
18	189.907	0.75	loss-noreward	StartDisplay				
18	190.66		loss-noreward	ImageDisplay2		0.0		
18	193.919	1.6	loss-noreward	ChoiceDisplay	1	1.384	1	1
18	195.323	0.216	loss-noreward	ChosenDisplay		0.0		
18	195.524	0.25	loss-noreward	TurnDisplay				
18	195.775	0.75	loss-noreward	OutcomeDisplay				
19	196.527		control-noreward	ImageDisplay1		0.0		
19	198.516	0.75	control-noreward	StartDisplay				
19	199.268		control-noreward	ImageDisplay2		0.0		
19	202.528	1.6	control-noreward	ChoiceDisplay		0.0		
19	204.116	0.0	control-noreward	ChosenDisplay		0.0		
19	204.133	0.25	control-noreward	TurnDisplay				
19	204.367	0.75	control-noreward	OutcomeDisplay				
20	205.119		win-reward	ImageDisplay1		0.0		
20	207.125	0.75	win-reward	StartDisplay				
20	207.877		win-reward	ImageDisplay2		0.0		
20	211.12	1.6	win-reward	ChoiceDisplay	1	0.803	1	1
20	211.939	0.797	win-reward	ChosenDisplay		0.0		
20	212.725	0.25	win-reward	TurnDisplay				
20	212.976	0.75	win-reward	OutcomeDisplay				
21	213.728		control-reward	ImageDisplay1		0.0		
21	215.717	0.75	control-reward	StartDisplay				
21	216.47		control-reward	ImageDisplay2		0.0		
21	219.729	1.6	control-reward	ChoiceDisplay		0.0		
21	221.317	0.0	control-reward	ChosenDisplay		0.0		
21	221.334	0.25	control-reward	TurnDisplay				
21	221.568	0.75	control-reward	OutcomeDisplay				
22	222.32		loss-reward	ImageDisplay1		0.0		
22	224.577	0.75	loss-reward	StartDisplay				
22	225.329		loss-reward	ImageDisplay2		0.0		
22	228.321	1.6	loss-reward	ChoiceDisplay	1	0.967	1	1
22	229.308	0.633	loss-reward	ChosenDisplay		0.0		
22	229.926	0.25	loss-reward	TurnDisplay				
22	230.177	0.75	loss-reward	OutcomeDisplay				
23	230.929		control-noreward	ImageDisplay1		0.0		
23	233.169	0.75	control-noreward	StartDisplay				
23	233.921		control-noreward	ImageDisplay2		0.0		
23	236.93	1.6	control-noreward	ChoiceDisplay	1	0.984	1	1
23	237.933	0.616	control-noreward	ChosenDisplay		0.0		
23	238.535	0.25	control-noreward	TurnDisplay				
23	238.786	0.75	control-noreward	OutcomeDisplay				
24	239.538		win-noreward	ImageDisplay1		0.0		
24	241.778	0.75	win-noreward	StartDisplay				
24	242.53		win-noreward	ImageDisplay2		0.0		
24	245.539	1.6	win-noreward	ChoiceDisplay	1	1.419	1	1
24	246.977	0.181	win-noreward	ChosenDisplay		0.0		
24	247.144	0.25	win-noreward	TurnDisplay				
24	247.395	0.75	win-noreward	OutcomeDisplay				
25	248.147		control-reward	ImageDisplay1		0.0		
25	250.136	0.75	control-reward	StartDisplay				
25	250.888		control-reward	ImageDisplay2		0.0		
25	254.148	1.6	control-reward	ChoiceDisplay	1	0.836	1	1
25	255.001	0.764	control-reward	ChosenDisplay		0.0		
25	255.753	0.25	control-reward	TurnDisplay				
25	256.004	0.75	control-reward	OutcomeDisplay				
26	256.756		loss-reward	ImageDisplay1		0.0		
26	258.996	0.75	loss-reward	StartDisplay				
26	259.748		loss-reward	ImageDisplay2		0.0		
26	262.757	1.6	loss-reward	ChoiceDisplay	1	0.906	1	1
26	263.676	0.694	loss-reward	ChosenDisplay		0.0		
26	264.362	0.25	loss-reward	TurnDisplay				
26	264.612	0.75	loss-reward	OutcomeDisplay				
27	265.365		win-reward	ImageDisplay1		0.0		
27	267.354	0.75	win-reward	StartDisplay				
27	268.106		win-reward	ImageDisplay2		0.0		
27	271.366	1.6	win-reward	ChoiceDisplay		0.0		
27	272.954	0.0	win-reward	ChosenDisplay		0.0		
27	272.971	0.25	win-reward	TurnDisplay				
27	273.205	0.75	win-reward	OutcomeDisplay				
28	273.957		loss-reward	ImageDisplay1		0.0		
28	275.963	0.75	loss-reward	StartDisplay				
28	276.715		loss-reward	ImageDisplay2		0.0		
28	279.958	1.6	loss-reward	ChoiceDisplay	1	0.907	1	1
28	280.877	0.693	loss-reward	ChosenDisplay		0.0		
28	281.563	0.25	loss-reward	TurnDisplay				
28	281.814	0.75	loss-reward	OutcomeDisplay				
29	282.566		loss-reward	ImageDisplay1		0.0		
29	284.806	0.75	loss-reward	StartDisplay				
29	285.558		loss-reward	ImageDisplay2		0.0		
29	288.567	1.6	loss-reward	ChoiceDisplay	1	0.903	1	1
29	289.486	0.697	loss-reward	ChosenDisplay		0.0		
29	290.172	0.25	loss-reward	TurnDisplay				
29	290.422	0.75	loss-reward	OutcomeDisplay				
30	291.175		control-reward	ImageDisplay1		0.0		
30	293.415	0.75	control-reward	StartDisplay				
30	294.167		control-reward	ImageDisplay2		0.0		
30	297.176	1.6	control-reward	ChoiceDisplay		0.0		
30	298.764	0.0	control-reward	ChosenDisplay		0.0		
30	298.781	0.25	control-reward	TurnDisplay				
30	299.015	0.75	control-reward	OutcomeDisplay				
31	299.767		loss-noreward	ImageDisplay1		0.0		
31	301.773	0.75	loss-noreward	StartDisplay				
31	302.525		loss-noreward	ImageDisplay2		0.0		
31	305.768	1.6	loss-noreward	ChoiceDisplay	1	0.832	1	1
31	306.621	0.768	loss-noreward	ChosenDisplay		0.0		
31	307.373	0.25	loss-noreward	TurnDisplay				
31	307.623	0.75	loss-noreward	OutcomeDisplay				
32	308.376		win-reward	ImageDisplay1		0.0		
32	310.616	0.75	win-reward	StartDisplay				
32	311.368		win-reward	ImageDisplay2		0.0		
32	314.377	1.6	win-reward	ChoiceDisplay	1	0.805	1	1
32	315.196	0.795	win-reward	ChosenDisplay		0.0		
32	315.982	0.25	win-reward	TurnDisplay				
32	316.232	0.75	win-reward	OutcomeDisplay				
33	316.985		loss-reward	ImageDisplay1		0.0		
33	319.225	0.75	loss-reward	StartDisplay				
33	319.977		loss-reward	ImageDisplay2		0.0		
33	322.986	1.6	loss-reward	ChoiceDisplay	1	0.848	1	1
33	323.855	0.752	loss-reward	ChosenDisplay		0.0		
33	324.591	0.25	loss-reward	TurnDisplay				
33	324.841	0.75	loss-reward	OutcomeDisplay				
34	325.594		loss-reward	ImageDisplay1		0.0		
34	327.833	0.75	loss-reward	StartDisplay				
34	328.586		loss-reward	ImageDisplay2		0.0		
34	331.595	1.6	loss-reward	ChoiceDisplay		0.0		
34	333.183	0.0	loss-reward	ChosenDisplay		0.0		
34	333.199	0.25	loss-reward	TurnDisplay				
34	333.433	0.75	loss-reward	OutcomeDisplay				
35	334.186		win-reward	ImageDisplay1		0.0		
35	336.442	0.75	win-reward	StartDisplay				
35	337.195		win-reward	ImageDisplay2		0.0		
35	340.187	1.6	win-reward	ChoiceDisplay	1	1.229	1	1
35	341.441	0.371	win-reward	ChosenDisplay		0.0		
35	341.792	0.25	win-reward	TurnDisplay				
35	342.042	0.75	win-reward	OutcomeDisplay				
36	342.795		control-noreward	ImageDisplay1		0.0		
36	345.035	0.75	control-noreward	StartDisplay				
36	345.787		control-noreward	ImageDisplay2		0.0		
36	348.796	1.6	control-noreward	ChoiceDisplay		0.0		
36	350.384	0.0	control-noreward	ChosenDisplay		0.0		
36	350.4	0.25	control-noreward	TurnDisplay				
36	350.635	0.75	control-noreward	OutcomeDisplay				
37	351.387		win-reward	ImageDisplay1		0.0		
37	353.643	0.75	win-reward	StartDisplay				
37	354.396		win-reward	ImageDisplay2		0.0		
37	357.388	1.6	win-reward	ChoiceDisplay	1	0.916	1	1
37	358.324	0.684	win-reward	ChosenDisplay		0.0		
37	358.993	0.25	win-reward	TurnDisplay				
37	359.243	0.75	win-reward	OutcomeDisplay				
38	359.996		control-reward	ImageDisplay1		0.0		
38	361.985	0.75	control-reward	StartDisplay				
38	362.737		control-reward	ImageDisplay2		0.0		
38	365.997	1.6	control-reward	ChoiceDisplay	1	0.849	1	1
38	366.866	0.751	control-reward	ChosenDisplay		0.0		
38	367.602	0.25	control-reward	TurnDisplay				
38	367.852	0.75	control-reward	OutcomeDisplay				
39	368.605		win-reward	ImageDisplay1		0.0		
39	370.845	0.75	win-reward	StartDisplay				
39	371.597		win-reward	ImageDisplay2		0.0		
39	374.606	1.6	win-reward	ChoiceDisplay	1	1.033	1	1
39	375.659	0.567	win-reward	ChosenDisplay		0.0		
39	376.21	0.25	win-reward	TurnDisplay				
39	376.461	0.75	win-reward	OutcomeDisplay				
40	377.213		control-reward	ImageDisplay1		0.0		
40	379.203	0.75	control-reward	StartDisplay				
40	379.955		control-reward	ImageDisplay2		0.0		
40	383.215	1.6	control-reward	ChoiceDisplay	1	0.921	1	1
40	384.151	0.679	control-reward	ChosenDisplay		0.0		
40	384.819	0.25	control-reward	TurnDisplay				
40	385.07	0.75	control-reward	OutcomeDisplay				
41	385.822		control-reward	ImageDisplay1		0.0		
41	388.062	0.75	control-reward	StartDisplay				
41	388.815		control-reward	ImageDisplay2		0.0		
41	391.823	1.6	control-reward	ChoiceDisplay	1	0.859	1	1
41	392.709	0.741	control-reward	ChosenDisplay		0.0		
41	393.428	0.25	control-reward	TurnDisplay				
41	393.679	0.75	control-reward	OutcomeDisplay				
42	394.431		win-noreward	ImageDisplay1		0.0		
42	396.671	0.75	win-noreward	StartDisplay				
42	397.423		win-noreward	ImageDisplay2		0.0		
42	400.432	1.6	win-noreward	ChoiceDisplay	1	0.89	1	1
42	401.335	0.71	win-noreward	ChosenDisplay		0.0		
42	402.037	0.25	win-noreward	TurnDisplay				
42	402.288	0.75	win-noreward	OutcomeDisplay				
43	403.04		control-reward	ImageDisplay1		0.0		
43	405.029	0.75	control-reward	StartDisplay				
43	405.782		control-reward	ImageDisplay2		0.0		
43	409.041	1.6	control-reward	ChoiceDisplay		0.0		
43	410.629	0.0	control-reward	ChosenDisplay		0.0		
43	410.646	0.25	control-reward	TurnDisplay				
43	410.88	0.75	control-reward	OutcomeDisplay				
44	411.632		loss-reward	ImageDisplay1		0.0		
44	413.638	0.75	loss-reward	StartDisplay				
44	414.39		loss-reward	ImageDisplay2		0.0		
44	417.633	1.6	loss-reward	ChoiceDisplay	1	0.853	1	1
44	418.503	0.747	loss-reward	ChosenDisplay		0.0		
44	419.238	0.25	loss-reward	TurnDisplay				
44	419.489	0.75	loss-reward	OutcomeDisplay				
45	420.241		loss-reward	ImageDisplay1		0.0		
45	422.481	0.75	loss-reward	StartDisplay				
45	423.233		loss-reward	ImageDisplay2		0.0		
45	426.242	1.6	loss-reward	ChoiceDisplay		0.0		
45	427.83	0.0	loss-reward	ChosenDisplay		0.0		
45	427.847	0.25	loss-reward	TurnDisplay				
45	428.081	0.75	loss-reward	OutcomeDisplay				
46	428.833		win-reward	ImageDisplay1		0.0		
46	430.839	0.75	win-reward	StartDisplay				
46	431.592		win-reward	ImageDisplay2		0.0		
46	434.835	1.6	win-reward	ChoiceDisplay	1	0.898	1	1
46	435.754	0.702	win-reward	ChosenDisplay		0.0		
46	436.439	0.25	win-reward	TurnDisplay				
46	436.69	0.75	win-reward	OutcomeDisplay				
47	437.442		loss-noreward	ImageDisplay1		0.0		
47	439.431	0.75	loss-noreward	StartDisplay				
47	440.184		loss-noreward	ImageDisplay2		0.0		
47	443.443	1.6	loss-noreward	ChoiceDisplay	1	0.605	1	1
47	444.062	0.995	loss-noreward	ChosenDisplay		0.0		
47	445.048	0.25	loss-noreward	TurnDisplay				
47	445.299	0.75	loss-noreward	OutcomeDisplay				
48	446.051		win-noreward	ImageDisplay1		0.0		
48	448.291	0.75	win-noreward	StartDisplay				
48	449.043		win-noreward	ImageDisplay2		0.0		
48	452.052	1.6	win-noreward	ChoiceDisplay	1	0.895	1	1
48	452.972	0.705	win-noreward	ChosenDisplay		0.0		
48	453.657	0.25	win-noreward	TurnDisplay				
48	453.908	0.75	win-noreward	OutcomeDisplay				
49	454.66		control-noreward	ImageDisplay1		0.0		
49	456.649	0.75	control-noreward	StartDisplay				
49	457.402		control-noreward	ImageDisplay2		0.0		
49	460.661	1.6	control-noreward	ChoiceDisplay	1	1.01	1	1
49	461.698	0.59	control-noreward	ChosenDisplay		0.0		
49	462.266	0.25	control-noreward	TurnDisplay				
49	462.517	0.75	control-noreward	OutcomeDisplay				
50	463.269		win-reward	ImageDisplay1		0.0		
50	465.509	0.75	win-reward	StartDisplay				
50	466.261		win-reward	ImageDisplay2		0.0		
50	469.27	1.6	win-reward	ChoiceDisplay	1	0.693	1	1
50	469.989	0.907	win-reward	ChosenDisplay		0.0		
50	470.875	0.25	win-reward	TurnDisplay				
50	471.126	0.75	win-reward	OutcomeDisplay				
51	471.878		loss-noreward	ImageDisplay1		0.0		
51	474.118	0.75	loss-noreward	StartDisplay				
51	474.87		loss-noreward	ImageDisplay2		0.0		
51	477.879	1.6	loss-noreward	ChoiceDisplay	1	0.876	1	1
51	478.782	0.724	loss-noreward	ChosenDisplay		0.0		
51	479.484	0.25	loss-noreward	TurnDisplay				
51	479.734	0.75	loss-noreward	OutcomeDisplay				
52	480.487		win-noreward	ImageDisplay1		0.0		
52	482.727	0.75	win-noreward	StartDisplay				
52	483.479		win-noreward	ImageDisplay2		0.0		
52	486.488	1.6	win-noreward	ChoiceDisplay	1	1.252	1	1
52	487.758	0.348	win-noreward	ChosenDisplay		0.0		
52	488.093	0.25	win-noreward	TurnDisplay				
52	488.343	0.75	win-noreward	OutcomeDisplay				
53	489.096		loss-reward	ImageDisplay1		0.0		
53	491.336	0.75	loss-reward	StartDisplay				
53	492.088		loss-reward	ImageDisplay2		0.0		
53	495.097	1.6	loss-reward	ChoiceDisplay	1	0.888	1	1
53	495.999	0.712	loss-reward	ChosenDisplay		0.0		
53	496.702	0.25	loss-reward	TurnDisplay				
53	496.952	0.75	loss-reward	OutcomeDisplay				
54	497.705		loss-reward	ImageDisplay1		0.0		
54	499.694	0.75	loss-reward	StartDisplay				
54	500.446		loss-reward	ImageDisplay2		0.0		
54	503.706	1.6	loss-reward	ChoiceDisplay	1	1.076	1	1
54	504.809	0.524	loss-reward	ChosenDisplay		0.0		
54	505.31	0.25	loss-reward	TurnDisplay				
54	505.561	0.75	loss-reward	OutcomeDisplay				
55	506.313		control-reward	ImageDisplay1		0.0		
55	508.303	0.75	control-reward	StartDisplay				
55	509.055		control-reward	ImageDisplay2		0.0		
55	512.315	1.6	control-reward	ChoiceDisplay	1	0.985	1	1
55	513.318	0.615	control-reward	ChosenDisplay		0.0		
55	513.919	0.25	control-reward	TurnDisplay				
55	514.17	0.75	control-reward	OutcomeDisplay				
56	514.922		control-noreward	ImageDisplay1		0.0		
56	516.912	0.75	control-noreward	StartDisplay				
56	517.664		control-noreward	ImageDisplay2		0.0		
56	520.923	1.6	control-noreward	ChoiceDisplay	1	0.997	1	1
56	521.943	0.603	control-noreward	ChosenDisplay		0.0		
56	522.528	0.25	control-noreward	TurnDisplay				
56	522.779	0.75	control-noreward	OutcomeDisplay				
57	523.531		win-noreward	ImageDisplay1		0.0		
57	525.52	0.75	win-noreward	StartDisplay				
57	526.273		win-noreward	ImageDisplay2		0.0		
57	529.532	1.6	win-noreward	ChoiceDisplay	1	0.746	1	1
57	530.301	0.854	win-noreward	ChosenDisplay		0.0		
57	531.137	0.25	win-noreward	TurnDisplay				
57	531.388	0.75	win-noreward	OutcomeDisplay				
58	532.14		control-noreward	ImageDisplay1		0.0		
58	534.38	0.75	control-noreward	StartDisplay				
58	535.132		control-noreward	ImageDisplay2		0.0		
58	538.141	1.6	control-noreward	ChoiceDisplay	1	0.869	1	1
58	539.027	0.731	control-noreward	ChosenDisplay		0.0		
58	539.746	0.25	control-noreward	TurnDisplay				
58	539.997	0.75	control-noreward	OutcomeDisplay				
59	540.749		loss-noreward	ImageDisplay1		0.0		
59	542.738	0.75	loss-noreward	StartDisplay				
59	543.49		loss-noreward	ImageDisplay2		0.0		
59	546.75	1.6	loss-noreward	ChoiceDisplay	1	1.178	1	1
59	547.954	0.422	loss-noreward	ChosenDisplay		0.0		
59	548.355	0.25	loss-noreward	TurnDisplay				
59	548.606	0.75	loss-noreward	OutcomeDisplay				
60	549.358		loss-noreward	ImageDisplay1		0.0		
60	551.598	0.75	loss-noreward	StartDisplay				
60	552.35		loss-noreward	ImageDisplay2		0.0		
60	555.359	1.6	loss-noreward	ChoiceDisplay		0.0		
60	556.947	0.0	loss-noreward	ChosenDisplay		0.0		
60	556.964	0.25	loss-noreward	TurnDisplay				
60	557.198	0.75	loss-noreward	OutcomeDisplay				
61	557.95		loss-reward	ImageDisplay1		0.0		
61	559.956	0.75	loss-reward	StartDisplay				
61	560.708		loss-reward	ImageDisplay2		0.0		
61	563.951	1.6	loss-reward	ChoiceDisplay	1	0.401	1	1
61	564.369	1.199	loss-reward	ChosenDisplay		0.0		
61	565.556	0.25	loss-reward	TurnDisplay				
61	565.807	0.75	loss-reward	OutcomeDisplay				
62	566.559		loss-noreward	ImageDisplay1		0.0		
62	568.799	0.75	loss-noreward	StartDisplay				
62	569.551		loss-noreward	ImageDisplay2		0.0		
62	572.56	1.6	loss-noreward	ChoiceDisplay		0.0		
62	574.148	0.0	loss-noreward	ChosenDisplay		0.0		
62	574.165	0.25	loss-noreward	TurnDisplay				
62	574.399	0.75	loss-noreward	OutcomeDisplay				
63	575.151		control-reward	ImageDisplay1		0.0		
63	577.408	0.75	control-reward	StartDisplay				
63	578.16		control-reward	ImageDisplay2		0.0		
63	581.152	1.6	control-reward	ChoiceDisplay	1	1.25	1	1
63	582.423	0.35	control-reward	ChosenDisplay		0.0		
63	582.757	0.25	control-reward	TurnDisplay				
63	583.008	0.75	control-reward	OutcomeDisplay				
64	583.76		loss-reward	ImageDisplay1		0.0		
64	585.749	0.75	loss-reward	StartDisplay				
64	586.501		loss-reward	ImageDisplay2		0.0		
64	589.761	1.6	loss-reward	ChoiceDisplay	1	1.179	1	1
64	590.965	0.421	loss-reward	ChosenDisplay		0.0		
64	591.366	0.25	loss-reward	TurnDisplay				
64	591.617	0.75	loss-reward	OutcomeDisplay				
65	592.369		control-reward	ImageDisplay1		0.0		
65	594.358	0.75	control-reward	StartDisplay				
65	595.11		control-reward	ImageDisplay2		0.0		
65	598.37	1.6	control-reward	ChoiceDisplay	1	0.883	1	1
65	599.273	0.717	control-reward	ChosenDisplay		0.0		
65	599.975	0.25	control-reward	TurnDisplay				
65	600.226	0.75	control-reward	OutcomeDisplay				
66	600.978		win-noreward	ImageDisplay1		0.0		
66	602.967	0.75	win-noreward	StartDisplay				
66	603.719		win-noreward	ImageDisplay2		0.0		
66	606.979	1.6	win-noreward	ChoiceDisplay	1	1.014	1	1
66	608.015	0.586	win-noreward	ChosenDisplay		0.0		
66	608.584	0.25	win-noreward	TurnDisplay				
66	608.834	0.75	win-noreward	OutcomeDisplay				
67	609.587		loss-noreward	ImageDisplay1		0.0		
67	611.576	0.75	loss-noreward	StartDisplay				
67	612.328		loss-noreward	ImageDisplay2		0.0		
67	615.588	1.6	loss-noreward	ChoiceDisplay	1	1.082	1	1
67	616.691	0.518	loss-noreward	ChosenDisplay		0.0		
67	617.193	0.25	loss-noreward	TurnDisplay				
67	617.443	0.75	loss-noreward	OutcomeDisplay				
68	618.196		control-reward	ImageDisplay1		0.0		
68	620.436	0.75	control-reward	StartDisplay				
68	621.188		control-reward	ImageDisplay2		0.0		
68	624.197	1.6	control-reward	ChoiceDisplay		0.0		
68	625.785	0.0	control-reward	ChosenDisplay		0.0		
68	625.802	0.25	control-reward	TurnDisplay				
68	626.036	0.75	control-reward	OutcomeDisplay				
69	626.788		win-noreward	ImageDisplay1		0.0		
69	628.794	0.75	win-noreward	StartDisplay				
69	629.546		win-noreward	ImageDisplay2		0.0		
69	632.789	1.6	win-noreward	ChoiceDisplay	1	0.882	1	1
69	633.692	0.718	win-noreward	ChosenDisplay		0.0		
69	634.394	0.25	win-noreward	TurnDisplay				
69	634.644	0.75	win-noreward	OutcomeDisplay				
70	635.397		win-reward	ImageDisplay1		0.0		
70	637.386	0.75	win-reward	StartDisplay				
70	638.138		win-reward	ImageDisplay2		0.0		
70	641.398	1.6	win-reward	ChoiceDisplay	1	0.604	1	1
70	642.016	0.996	win-reward	ChosenDisplay		0.0		
70	643.003	0.25	win-reward	TurnDisplay				
70	643.253	0.75	win-reward	OutcomeDisplay				
71	644.006		win-noreward	ImageDisplay1		0.0		
71	645.995	0.75	win-noreward	StartDisplay				
71	646.747		win-noreward	ImageDisplay2		0.0		
71	650.007	1.6	win-noreward	ChoiceDisplay		0.0		
71	651.595	0.0	win-noreward	ChosenDisplay		0.0		
71	651.611	0.25	win-noreward	TurnDisplay				
71	651.845	0.75	win-noreward	OutcomeDisplay				
72	652.598		control-reward	ImageDisplay1		0.0		
72	654.854	0.75	control-reward	StartDisplay				
72	655.607		control-reward	ImageDisplay2		0.0		
72	658.599	1.6	control-reward	ChoiceDisplay	1	1.436	1	1
72	660.053	0.164	control-reward	ChosenDisplay		0.0		
72	660.204	0.25	control-reward	TurnDisplay				
72	660.454	0.75	control-reward	OutcomeDisplay				
73	661.207		win-reward	ImageDisplay1		0.0		
73	663.196	0.75	win-reward	StartDisplay				
73	663.948		win-reward	ImageDisplay2		0.0		
73	667.208	1.6	win-reward	ChoiceDisplay	1	0.788	1	1
73	668.01	0.812	win-reward	ChosenDisplay		0.0		
73	668.813	0.25	win-reward	TurnDisplay				
73	669.063	0.75	win-reward	OutcomeDisplay				
74	669.816		win-noreward	ImageDisplay1		0.0		
74	672.055	0.75	win-noreward	StartDisplay				
74	672.808		win-noreward	ImageDisplay2		0.0		
74	675.817	1.6	win-noreward	ChoiceDisplay		0.0		
74	677.405	0.0	win-noreward	ChosenDisplay		0.0		
74	677.421	0.25	win-noreward	TurnDisplay				
74	677.655	0.75	win-noreward	OutcomeDisplay				
75	678.408		control-reward	ImageDisplay1		0.0		
75	680.414	0.75	control-reward	StartDisplay				
75	681.166		control-reward	ImageDisplay2		0.0		
75	684.409	1.6	control-reward	ChoiceDisplay	1	1.183	1	1
75	685.612	0.417	control-reward	ChosenDisplay		0.0		
75	686.014	0.25	control-reward	TurnDisplay				
75	686.264	0.75	control-reward	OutcomeDisplay				
76	687.017		loss-noreward	ImageDisplay1		0.0		
76	689.006	0.75	loss-noreward	StartDisplay				
76	689.758		loss-noreward	ImageDisplay2		0.0		
76	693.018	1.6	loss-noreward	ChoiceDisplay	1	1.056	1	1
76	694.088	0.544	loss-noreward	ChosenDisplay		0.0		
76	694.622	0.25	loss-noreward	TurnDisplay				
76	694.873	0.75	loss-noreward	OutcomeDisplay				
77	695.625		win-reward	ImageDisplay1		0.0		
77	697.615	0.75	win-reward	StartDisplay				
77	698.367		win-reward	ImageDisplay2		0.0		
77	701.627	1.6	win-reward	ChoiceDisplay	1	0.899	1	1
77	702.546	0.701	win-reward	ChosenDisplay		0.0		
77	703.231	0.25	win-reward	TurnDisplay				
77	703.482	0.75	win-reward	OutcomeDisplay				
78	704.234		win-reward	ImageDisplay1		0.0		
78	706.474	0.75	win-reward	StartDisplay				
78	707.227		win-reward	ImageDisplay2		0.0		
78	710.236	1.6	win-reward	ChoiceDisplay		0.0		
78	711.824	0.0	win-reward	ChosenDisplay		0.0		
78	711.84	0.25	win-reward	TurnDisplay				
78	712.074	0.75	win-reward	OutcomeDisplay				
79	712.827		loss-noreward	ImageDisplay1		0.0		
79	715.083	0.75	loss-noreward	StartDisplay				
79	715.835		loss-noreward	ImageDisplay2		0.0		
79	718.828	1.6	loss-noreward	ChoiceDisplay		0.0		
79	720.432	0.0	loss-noreward	ChosenDisplay		0.0		
79	720.449	0.25	loss-noreward	TurnDisplay				
79	720.683	0.75	loss-noreward	OutcomeDisplay				
80	721.435		loss-reward	ImageDisplay1		0.0		
80	723.675	0.75	loss-reward	StartDisplay				
80	724.428		loss-reward	ImageDisplay2		0.0		
80	727.437	1.6	loss-reward	ChoiceDisplay	1	1.056	1	1
80	728.506	0.544	loss-reward	ChosenDisplay		0.0		
80	729.041	0.25	loss-reward	TurnDisplay				
80	729.292	0.75	loss-reward	OutcomeDisplay				
81	730.044		loss-noreward	ImageDisplay1		0.0		
81	732.284	0.75	loss-noreward	StartDisplay				
81	733.037		loss-noreward	ImageDisplay2		0.0		
81	736.045	1.6	loss-noreward	ChoiceDisplay		0.0		
81	737.634	0.0	loss-noreward	ChosenDisplay		0.0		
81	737.65	0.25	loss-noreward	TurnDisplay				
81	737.884	0.75	loss-noreward	OutcomeDisplay				
82	738.637		loss-reward	ImageDisplay1		0.0		
82	740.642	0.75	loss-reward	StartDisplay				
82	741.395		loss-reward	ImageDisplay2		0.0		
82	744.638	1.6	loss-reward	ChoiceDisplay	1	1.012	1	1
82	745.674	0.588	loss-reward	ChosenDisplay		0.0		
82	746.242	0.25	loss-reward	TurnDisplay				
82	746.493	0.75	loss-reward	OutcomeDisplay				
83	747.245		loss-noreward	ImageDisplay1		0.0		
83	749.485	0.75	loss-noreward	StartDisplay				
83	750.238		loss-noreward	ImageDisplay2		0.0		
83	753.247	1.6	loss-noreward	ChoiceDisplay		0.0		
83	754.835	0.0	loss-noreward	ChosenDisplay		0.0		
83	754.851	0.25	loss-noreward	TurnDisplay				
83	755.085	0.75	loss-noreward	OutcomeDisplay				
84	755.838		win-reward	ImageDisplay1		0.0		
84	757.844	0.75	win-reward	StartDisplay				
84	758.596		win-reward	ImageDisplay2		0.0		
84	761.839	1.6	win-reward	ChoiceDisplay	1	0.971	1	1
84	762.825	0.629	win-reward	ChosenDisplay		0.0		
84	763.443	0.25	win-reward	TurnDisplay				
84	763.694	0.75	win-reward	OutcomeDisplay				
85	764.446		loss-reward	ImageDisplay1		0.0		
85	766.686	0.75	loss-reward	StartDisplay				
85	767.439		loss-reward	ImageDisplay2		0.0		
85	770.448	1.6	loss-reward	ChoiceDisplay		0.0		
85	772.036	0.0	loss-reward	ChosenDisplay		0.0		
85	772.052	0.25	loss-reward	TurnDisplay				
85	772.286	0.75	loss-reward	OutcomeDisplay				
86	773.039		win-noreward	ImageDisplay1		0.0		
86	775.045	0.75	win-noreward	StartDisplay				
86	775.797		win-noreward	ImageDisplay2		0.0		
86	779.04	1.6	win-noreward	ChoiceDisplay		0.0		
86	780.645	0.0	win-noreward	ChosenDisplay		0.0		
86	780.661	0.25	win-noreward	TurnDisplay				
86	780.895	0.75	win-noreward	OutcomeDisplay				
87	781.648		control-noreward	ImageDisplay1		0.0		
87	783.888	0.75	control-noreward	StartDisplay				
87	784.64		control-noreward	ImageDisplay2		0.0		
87	787.649	1.6	control-noreward	ChoiceDisplay		0.0		
87	789.237	0.0	control-noreward	ChosenDisplay		0.0		
87	789.253	0.25	control-noreward	TurnDisplay				
87	789.487	0.75	control-noreward	OutcomeDisplay				
88	790.24		control-noreward	ImageDisplay1		0.0		
88	792.246	0.75	control-noreward	StartDisplay				
88	792.998		control-noreward	ImageDisplay2		0.0		
88	796.241	1.6	control-noreward	ChoiceDisplay		0.0		
88	797.846	0.0	control-noreward	ChosenDisplay		0.0		
88	797.862	0.25	control-noreward	TurnDisplay				
88	798.096	0.75	control-noreward	OutcomeDisplay				
89	798.849		win-reward	ImageDisplay1		0.0		
89	800.838	0.75	win-reward	StartDisplay				
89	801.59		win-reward	ImageDisplay2		0.0		
89	804.85	1.6	win-reward	ChoiceDisplay		0.0		
89	806.438	0.0	win-reward	ChosenDisplay		0.0		
89	806.455	0.25	win-reward	TurnDisplay				
89	806.689	0.75	win-reward	OutcomeDisplay				
90	807.441		control-reward	ImageDisplay1		0.0		
90	809.697	0.75	control-reward	StartDisplay				
90	810.45		control-reward	ImageDisplay2		0.0		
90	813.442	1.6	control-reward	ChoiceDisplay		0.0		
90	815.047	0.0	control-reward	ChosenDisplay		0.0		
90	815.063	0.25	control-reward	TurnDisplay				
90	815.297	0.75	control-reward	OutcomeDisplay				
91	816.05		win-noreward	ImageDisplay1		0.0		
91	818.039	0.75	win-noreward	StartDisplay				
91	818.791		win-noreward	ImageDisplay2		0.0		
91	822.051	1.6	win-noreward	ChoiceDisplay		0.0		
91	823.639	0.0	win-noreward	ChosenDisplay		0.0		
91	823.656	0.25	win-noreward	TurnDisplay				
91	823.89	0.75	win-noreward	OutcomeDisplay				
92	824.642		win-noreward	ImageDisplay1		0.0		
92	826.899	0.75	win-noreward	StartDisplay				
92	827.651		win-noreward	ImageDisplay2		0.0		
92	830.643	1.6	win-noreward	ChoiceDisplay		0.0		
92	832.248	0.0	win-noreward	ChosenDisplay		0.0		
92	832.264	0.25	win-noreward	TurnDisplay				
92	832.499	0.75	win-noreward	OutcomeDisplay				
93	833.251		win-noreward	ImageDisplay1		0.0		
93	835.24	0.75	win-noreward	StartDisplay				
93	835.992		win-noreward	ImageDisplay2		0.0		
93	839.235	1.6	win-noreward	ChoiceDisplay		0.0		
93	840.84	0.0	win-noreward	ChosenDisplay		0.0		
93	840.857	0.25	win-noreward	TurnDisplay				
93	841.091	0.75	win-noreward	OutcomeDisplay				
94	841.843		control-reward	ImageDisplay1		0.0		
94	844.1	0.75	control-reward	StartDisplay				
94	844.835		control-reward	ImageDisplay2		0.0		
94	847.844	1.6	control-reward	ChoiceDisplay		0.0		
94	849.449	0.0	control-reward	ChosenDisplay		0.0		
94	849.466	0.25	control-reward	TurnDisplay				
94	849.7	0.75	control-reward	OutcomeDisplay				
95	850.435		control-noreward	ImageDisplay1		0.0		
95	852.692	0.75	control-noreward	StartDisplay				
95	853.444		control-noreward	ImageDisplay2		0.0		
95	856.436	1.6	control-noreward	ChoiceDisplay		0.0		
95	858.041	0.0	control-noreward	ChosenDisplay		0.0		
95	858.058	0.25	control-noreward	TurnDisplay				
95	858.292	0.75	control-noreward	OutcomeDisplay				
