onset	duration	trial_type	response_time	stim_file	accuracy
41.46	1.0	go	0.798	Go_O	1.0
44.034	1.0	go	0.27	Go_X	1.0
46.558	1.0	go	0.255	Go_O	1.0
49.083	1.0	go	0.099	Go_X	1.0
51.607	1.0	go	0.224	Go_O	1.0
54.131	1.0	go	0.289	Go_X	1.0
56.655	0.25	stop	0.225	Go_O	0.0
59.179	1.0	go	0.213	Go_X	1.0
61.704	0.2	stop	0.0	Go_X	1.0
64.245	1.0	go	0.375	Go_O	1.0
66.769	1.0	go	0.306	Go_X	1.0
69.293	1.0	go	0.216	Go_O	1.0
71.817	0.25	stop	0.155	Go_O	0.0
74.341	1.0	go	0.426	Go_O	1.0
76.866	1.0	go	0.246	Go_X	1.0
79.39	0.2	stop	0.0	Go_X	1.0
81.914	0.25	stop	0.25	Go_O	0.0
84.438	1.0	go	0.694	Go_O	1.0
86.962	1.0	go	0.266	Go_X	1.0
89.487	0.2	stop	0.37	Go_X	0.0
92.011	1.0	go	0.0	Go_O	0.0
94.535	1.0	go	0.33	Go_X	1.0
97.059	0.15	stop	0.0	Go_O	1.0
99.583	1.0	go	0.384	Go_X	1.0
102.108	1.0	go	0.529	Go_O	1.0
104.632	0.2	stop	0.0	Go_X	1.0
107.156	1.0	go	0.0	Go_X	0.0
109.68	1.0	go	0.241	Go_O	1.0
112.204	0.25	stop	0.219	Go_O	0.0
114.729	1.0	go	0.218	Go_X	0.0
117.253	1.0	go	0.512	Go_O	1.0
119.794	1.0	go	0.124	Go_O	0.0
122.318	1.0	go	0.357	Go_X	1.0
124.842	1.0	go	0.401	Go_X	1.0
127.366	0.2	stop	0.237	Go_X	0.0
129.891	1.0	go	0.278	Go_O	1.0
132.431	1.0	go	0.242	Go_O	1.0
134.956	1.0	go	0.526	Go_X	1.0
137.48	1.0	go	0.527	Go_X	1.0
140.004	1.0	go	0.421	Go_O	1.0
142.528	0.15	stop	0.209	Go_O	0.0
145.052	1.0	go	0.39	Go_X	1.0
147.577	1.0	go	0.249	Go_O	0.0
150.101	1.0	go	0.464	Go_X	1.0
152.642	1.0	go	0.44	Go_O	1.0
155.166	1.0	go	0.444	Go_X	1.0
157.69	1.0	go	0.5	Go_O	1.0
160.214	0.1	stop	0.0	Go_X	1.0
162.739	1.0	go	0.302	Go_X	0.0
165.263	1.0	go	0.304	Go_O	0.0
167.804	0.15	stop	0.0	Go_O	1.0
170.328	1.0	go	0.565	Go_X	1.0
172.852	0.2	stop	0.0	Go_X	1.0
175.376	0.25	stop	0.355	Go_O	0.0
177.901	1.0	go	0.67	Go_O	1.0
180.425	1.0	go	0.487	Go_O	1.0
182.949	1.0	go	0.476	Go_X	1.0
185.473	1.0	go	0.434	Go_X	1.0
187.997	0.2	stop	0.49	Go_X	0.0
190.522	1.0	go	0.0	Go_O	0.0
193.046	0.15	stop	0.0	Go_O	1.0
195.57	1.0	go	0.612	Go_X	1.0
198.094	1.0	go	0.0	Go_O	0.0
200.618	1.0	go	0.413	Go_X	1.0
203.143	1.0	go	0.869	Go_O	1.0
205.667	1.0	go	0.24	Go_O	0.0
208.191	1.0	go	0.845	Go_X	1.0
210.715	1.0	go	0.384	Go_O	1.0
213.239	1.0	go	0.956	Go_X	1.0
215.764	1.0	go	0.417	Go_O	1.0
218.288	0.2	stop	0.315	Go_X	0.0
220.812	1.0	go	0.0	Go_X	0.0
223.336	1.0	go	0.815	Go_O	1.0
225.86	1.0	go	0.352	Go_X	1.0
228.385	0.15	stop	0.0	Go_O	1.0
230.909	1.0	go	0.0	Go_O	0.0
233.433	1.0	go	0.503	Go_X	1.0
235.957	1.0	go	0.457	Go_X	1.0
238.481	1.0	go	0.501	Go_O	1.0
241.006	1.0	go	0.307	Go_X	1.0
243.53	1.0	go	0.439	Go_O	1.0
246.054	0.2	stop	0.39	Go_X	0.0
248.578	1.0	go	0.0	Go_X	0.0
251.102	1.0	go	0.989	Go_O	1.0
253.627	0.15	stop	0.0	Go_O	1.0
256.168	1.0	go	0.0	Go_X	0.0
258.692	1.0	go	0.541	Go_O	0.0
261.233	0.2	stop	0.485	Go_X	0.0
263.757	1.0	go	0.492	Go_X	1.0
266.298	0.15	stop	0.0	Go_O	1.0
268.822	1.0	go	0.0	Go_O	0.0
271.346	1.0	go	0.507	Go_X	1.0
273.887	1.0	go	0.0	Go_O	0.0
276.411	1.0	go	0.301	Go_X	1.0
278.936	1.0	go	0.57	Go_O	1.0
281.46	0.2	stop	0.0	Go_X	1.0
283.984	0.25	stop	0.0	Go_O	1.0
286.508	1.0	go	0.0	Go_X	0.0
289.032	1.0	go	0.619	Go_O	1.0
291.557	0.3	stop	0.375	Go_X	0.0
294.081	1.0	go	0.505	Go_O	1.0
296.605	1.0	go	0.282	Go_X	1.0
299.129	1.0	go	0.552	Go_O	1.0
301.653	1.0	go	0.0	Go_X	0.0
304.178	1.0	go	0.697	Go_X	1.0
306.702	1.0	go	0.0	Go_O	0.0
309.226	0.25	stop	0.0	Go_O	1.0
311.767	1.0	go	0.0	Go_O	0.0
314.291	1.0	go	0.0	Go_X	0.0
316.815	1.0	go	0.193	Go_X	0.0
319.339	1.0	go	0.649	Go_O	1.0
321.864	1.0	go	0.819	Go_O	1.0
324.388	0.3	stop	0.0	Go_X	1.0
326.912	1.0	go	0.704	Go_X	1.0
329.436	1.0	go	0.662	Go_O	1.0
331.961	1.0	go	0.0	Go_X	0.0
334.485	1.0	go	0.0	Go_O	0.0
337.026	0.35	stop	0.0	Go_O	1.0
339.55	1.0	go	0.0	Go_X	0.0
342.074	1.0	go	0.0	Go_O	0.0
344.598	0.4	stop	0.0	Go_X	1.0
347.122	1.0	go	0.0	Go_X	0.0
349.647	0.45	stop	0.0	Go_O	1.0
352.188	1.0	go	0.284	Go_X	1.0
354.712	1.0	go	0.383	Go_O	1.0
357.236	1.0	go	0.403	Go_O	1.0
359.76	1.0	go	0.46	Go_X	1.0
362.284	1.0	go	0.765	Go_X	1.0
364.809	1.0	go	0.676	Go_O	1.0
367.35	1.0	go	0.791	Go_X	1.0
369.874	0.5	stop	0.0	Go_X	1.0
372.415	1.0	go	0.565	Go_O	1.0
374.939	1.0	go	0.963	Go_X	1.0
377.463	1.0	go	0.404	Go_O	1.0
379.987	0.55	stop	0.619	Go_O	0.0
382.511	1.0	go	0.467	Go_X	1.0
385.036	1.0	go	0.981	Go_O	1.0
387.56	1.0	go	0.909	Go_X	1.0
390.084	1.0	go	0.591	Go_O	1.0
392.625	0.5	stop	0.0	Go_X	1.0
395.149	1.0	go	0.0	Go_X	0.0
397.673	1.0	go	0.567	Go_O	0.0
400.198	0.55	stop	0.0	Go_O	1.0
402.722	1.0	go	0.0	Go_X	0.0
405.246	1.0	go	0.0	Go_O	0.0
407.77	0.6	stop	0.0	Go_X	1.0
410.294	1.0	go	0.0	Go_X	0.0
412.819	1.0	go	0.0	Go_O	0.0
415.343	0.65	stop	0.0	Go_O	1.0
417.867	1.0	go	0.0	Go_O	0.0
420.391	1.0	go	0.0	Go_X	0.0
422.915	1.0	go	0.0	Go_X	0.0
425.441	1.0	go	0.0	Go_O	0.0
427.964	1.0	go	0.564	Go_O	1.0
430.488	1.0	go	0.339	Go_X	1.0
433.012	0.7	stop	0.452	Go_X	0.0
435.536	1.0	go	0.341	Go_O	1.0
438.061	0.65	stop	0.556	Go_O	0.0
440.585	1.0	go	0.532	Go_X	1.0
443.109	1.0	go	0.0	Go_O	0.0
445.633	1.0	go	0.0	Go_X	0.0
448.157	1.0	go	0.0	Go_O	0.0
450.682	1.0	go	0.0	Go_X	0.0
453.223	0.6	stop	0.0	Go_X	1.0
455.763	1.0	go	0.0	Go_X	0.0
458.288	1.0	go	0.0	Go_O	0.0
460.812	1.0	go	0.0	Go_O	0.0
463.336	0.65	stop	0.0	Go_O	1.0
465.877	0.7	stop	0.0	Go_X	1.0
468.418	0.75	stop	0.0	Go_O	1.0
470.942	1.0	go	0.0	Go_X	0.0
473.466	0.8	stop	0.0	Go_X	1.0
476.007	1.0	go	0.0	Go_X	0.0
478.531	1.0	go	0.0	Go_O	0.0
481.056	1.0	go	0.0	Go_O	0.0
483.58	1.0	go	0.0	Go_X	0.0
486.104	1.0	go	0.0	Go_X	0.0
488.628	1.0	go	0.467	Go_O	1.0
491.152	1.0	go	0.516	Go_O	1.0
493.677	1.0	go	0.785	Go_X	1.0
496.201	0.85	stop	0.789	Go_O	0.0
498.725	1.0	go	0.0	Go_O	0.0
501.249	1.0	go	0.0	Go_X	0.0
503.774	0.8	stop	0.0	Go_X	1.0
506.298	1.0	go	0.0	Go_X	0.0
508.839	1.0	go	0.0	Go_O	0.0
511.363	1.0	go	0.352	Go_X	1.0
513.887	1.0	go	0.801	Go_O	1.0
516.411	1.0	go	0.0	Go_O	0.0
518.935	0.85	stop	0.0	Go_O	1.0
521.46	1.0	go	0.0	Go_X	0.0
524.001	1.0	go	0.0	Go_O	0.0
526.525	1.0	go	0.0	Go_X	0.0
529.049	0.9	stop	0.0	Go_X	1.0
531.59	1.0	go	0.0	Go_X	0.0
534.114	0.95	stop	0.0	Go_O	1.0
536.655	1.0	go	0.0	Go_O	0.0
539.179	1.0	go	0.0	Go_X	0.0
541.703	1.0	go	0.0	Go_O	0.0
544.228	1.0	go	0.0	Go_X	0.0
546.769	1.0	go	0.0	Go_O	0.0
549.293	1.0	go	0.0	Go_X	0.0
551.817	1.0	go	0.0	Go_O	0.0
554.358	1.0	stop	0.0	Go_X	1.0
556.915	1.0	go	0.0	Go_X	0.0
559.44	1.0	go	0.0	Go_O	0.0
561.964	1.0	go	0.0	Go_X	0.0
564.488	1.0	go	0.0	Go_O	0.0
567.012	1.05	stop	0.0	Go_O	1.0
569.603	1.0	go	0.0	Go_X	0.0
572.128	1.1	stop	0.0	Go_X	1.0
574.769	1.0	go	0.0	Go_O	0.0
577.31	1.0	go	0.0	Go_X	0.0
579.834	1.15	stop	0.0	Go_O	1.0
582.542	1.0	go	0.0	Go_O	0.0
585.066	1.0	go	0.0	Go_X	0.0
587.59	1.0	go	0.0	Go_O	0.0
590.115	1.0	go	0.0	Go_X	0.0
592.643	1.0	go	0.0	Go_O	0.0
595.18	1.0	go	0.0	Go_X	0.0
597.704	1.0	go	0.0	Go_O	0.0
600.228	1.0	go	0.0	Go_X	0.0
602.752	1.0	go	0.0	Go_O	0.0
605.277	1.0	go	0.0	Go_X	0.0
607.801	1.2	stop	0.0	Go_X	1.0
610.542	1.0	go	0.0	Go_O	0.0
613.066	1.0	go	0.0	Go_O	0.0
615.591	1.25	stop	0.0	Go_O	1.0
618.382	1.0	go	0.0	Go_X	0.0
620.91	1.3	stop	0.0	Go_X	1.0
623.748	1.0	go	0.0	Go_O	0.0
626.273	1.0	go	0.0	Go_X	0.0
628.797	1.35	stop	0.0	Go_O	1.0
631.705	1.0	go	0.0	Go_O	0.0
634.23	1.4	stop	0.44	Go_X	0.0
637.188	1.0	go	0.645	Go_X	1.0
639.713	1.0	go	0.791	Go_O	1.0
642.237	1.0	go	0.752	Go_X	1.0
644.761	1.35	stop	0.0	Go_O	1.0
647.653	1.0	go	0.0	Go_O	0.0
650.177	1.0	go	0.0	Go_X	0.0
652.701	1.0	go	0.0	Go_X	0.0
655.226	1.0	go	0.0	Go_O	0.0
657.75	1.4	stop	0.0	Go_X	1.0
660.692	1.0	go	0.0	Go_O	0.0
663.216	1.0	go	0.0	Go_X	0.0
665.74	1.45	stop	0.0	Go_O	1.0
668.749	1.0	go	0.862	Go_O	1.0
671.274	1.0	go	0.0	Go_X	0.0
673.798	1.0	go	0.0	Go_O	0.0
676.322	1.0	go	0.0	Go_X	0.0
678.846	1.5	stop	0.0	Go_X	1.0
681.905	1.0	go	0.0	Go_O	0.0
684.43	1.55	stop	0.0	Go_O	1.0
687.522	1.0	go	0.0	Go_X	0.0
690.046	1.0	go	0.0	Go_X	0.0
692.57	1.6	stop	0.0	Go_X	1.0
695.713	1.0	go	0.0	Go_O	0.0
698.237	1.0	go	0.0	Go_O	0.0
700.762	1.0	go	0.0	Go_X	0.0
703.286	1.0	go	0.0	Go_X	0.0
705.81	1.65	stop	0.0	Go_O	1.0
709.003	1.0	go	0.0	Go_O	0.0
711.527	1.7	stop	0.0	Go_X	1.0
714.77	1.0	go	0.0	Go_X	0.0
717.294	1.0	go	0.0	Go_O	0.0
719.818	1.0	go	0.0	Go_O	0.0
722.359	1.0	go	0.0	Go_X	0.0
724.884	1.0	go	0.0	Go_X	0.0
727.408	1.0	go	0.0	Go_O	0.0
729.932	1.75	stop	0.0	Go_O	1.0
733.225	1.0	go	0.0	Go_O	0.0
735.749	1.0	go	0.0	Go_X	0.0
738.274	1.8	stop	0.0	Go_X	1.0
741.636	1.0	go	0.0	Go_O	0.0
744.158	1.0	go	0.0	Go_X	0.0
746.682	1.85	stop	0.0	Go_O	1.0
750.076	1.0	go	0.0	Go_X	0.0
752.616	1.0	go	0.0	Go_O	0.0
755.141	1.0	go	0.0	Go_X	0.0
757.665	1.0	go	0.0	Go_O	0.0
760.189	1.9	stop	0.0	Go_X	1.0
763.649	1.0	go	0.498	Go_X	1.0
766.174	1.95	stop	0.666	Go_O	0.0
769.667	1.0	go	0.739	Go_O	1.0
772.192	1.0	go	0.0	Go_X	0.0
774.716	1.0	go	0.0	Go_O	0.0
777.24	1.0	go	0.0	Go_O	0.0
779.764	1.0	go	0.0	Go_X	0.0
782.288	1.9	stop	0.0	Go_X	1.0
785.732	1.0	go	0.0	Go_O	0.0
788.256	1.0	go	0.0	Go_X	0.0
790.78	1.95	stop	0.0	Go_O	1.0
794.274	2.0	stop	0.0	Go_X	1.0
797.818	1.0	go	0.0	Go_O	0.0
800.342	1.0	go	0.0	Go_X	0.0
802.866	1.0	go	0.0	Go_X	0.0
805.391	1.0	go	0.0	Go_O	0.0
807.915	2.05	stop	0.0	Go_O	1.0
811.509	1.0	go	0.0	Go_O	0.0
