onset	duration	trial_type	response_time	stim_file	accuracy
39.993	1.0	go	0.0	Go_X	0.0
42.584	1.0	go	0.0	Go_O	0.0
45.108	1.0	go	0.61	Go_O	1.0
47.633	1.0	go	0.399	Go_X	1.0
50.157	1.0	go	0.532	Go_O	1.0
52.681	1.0	go	0.433	Go_X	1.0
55.205	0.25	stopfail	0.333	Go_O	0.0
57.729	1.0	go	0.275	Go_O	0.0
60.254	0.2	stopfail	0.375	Go_X	0.0
62.778	1.0	go	0.363	Go_X	0.0
65.302	1.0	go	0.549	Go_X	1.0
67.826	1.0	go	0.567	Go_O	1.0
70.35	0.15	stopsuccess	0.0	Go_O	1.0
72.875	1.0	go	0.507	Go_O	1.0
75.399	1.0	go	0.397	Go_X	1.0
77.923	0.2	stopfail	0.393	Go_X	0.0
80.447	0.15	stopsuccess	0.0	Go_O	1.0
82.971	1.0	go	0.464	Go_O	1.0
85.496	1.0	go	0.589	Go_X	1.0
88.02	0.2	stopsuccess	0.0	Go_X	1.0
90.544	1.0	go	0.511	Go_O	1.0
93.068	1.0	go	0.474	Go_X	1.0
95.592	0.25	stopsuccess	0.0	Go_O	1.0
98.116	1.0	go	0.459	Go_O	1.0
100.641	1.0	go	0.517	Go_X	1.0
103.165	0.3	stopsuccess	0.0	Go_X	1.0
105.689	1.0	go	0.623	Go_X	1.0
108.213	1.0	go	0.415	Go_O	1.0
110.737	0.35	stopfail	0.476	Go_O	0.0
113.262	1.0	go	0.665	Go_O	1.0
115.786	1.0	go	0.412	Go_X	1.0
118.31	1.0	go	0.397	Go_X	1.0
120.834	1.0	go	0.514	Go_O	1.0
123.358	1.0	go	0.44	Go_X	1.0
125.883	0.3	stopsuccess	0.0	Go_X	1.0
128.407	1.0	go	0.357	Go_O	1.0
130.931	1.0	go	0.411	Go_X	1.0
133.455	1.0	go	0.481	Go_O	1.0
135.979	1.0	go	0.415	Go_X	1.0
138.504	1.0	go	0.485	Go_O	1.0
141.028	0.35	stopfail	0.542	Go_O	0.0
143.552	1.0	go	0.268	Go_X	1.0
146.076	1.0	go	0.552	Go_O	1.0
148.6	1.0	go	0.844	Go_O	1.0
151.125	1.0	go	0.559	Go_X	1.0
153.649	1.0	go	0.471	Go_X	1.0
156.173	1.0	go	0.518	Go_O	1.0
158.697	0.3	stopfail	0.438	Go_X	0.0
161.221	1.0	go	0.429	Go_O	1.0
163.745	1.0	go	0.641	Go_X	1.0
166.27	0.25	stopsuccess	0.0	Go_O	1.0
168.794	1.0	go	0.422	Go_X	1.0
171.318	0.3	stopsuccess	0.0	Go_X	1.0
173.842	0.35	stopfail	0.493	Go_O	0.0
176.366	1.0	go	0.603	Go_O	1.0
178.891	1.0	go	0.503	Go_O	1.0
181.415	1.0	go	0.469	Go_X	1.0
183.939	1.0	go	0.659	Go_X	1.0
186.463	0.3	stopsuccess	0.0	Go_X	1.0
188.987	1.0	go	0.53	Go_O	1.0
191.512	0.35	stopsuccess	0.0	Go_O	1.0
194.036	1.0	go	0.408	Go_X	1.0
196.56	1.0	go	0.55	Go_O	1.0
199.084	1.0	go	0.554	Go_O	1.0
201.608	1.0	go	0.437	Go_X	1.0
204.133	1.0	go	0.463	Go_X	1.0
206.657	1.0	go	0.605	Go_O	1.0
209.181	1.0	go	0.848	Go_O	1.0
211.705	1.0	go	0.424	Go_X	1.0
214.229	1.0	go	0.456	Go_X	1.0
216.754	0.4	stopfail	0.495	Go_X	0.0
219.278	1.0	go	0.501	Go_O	1.0
221.802	1.0	go	0.508	Go_O	1.0
224.326	1.0	go	0.6	Go_X	1.0
226.85	0.35	stopfail	0.676	Go_O	0.0
229.374	1.0	go	0.608	Go_O	1.0
231.899	1.0	go	0.805	Go_X	1.0
234.423	1.0	go	0.89	Go_O	1.0
236.947	1.0	go	0.452	Go_X	1.0
239.471	1.0	go	0.772	Go_O	1.0
241.995	1.0	go	0.63	Go_X	1.0
244.52	0.3	stopfail	0.47	Go_X	0.0
247.044	1.0	go	0.0	Go_X	0.0
249.568	1.0	go	0.532	Go_O	1.0
252.092	0.25	stopsuccess	0.0	Go_O	1.0
254.616	1.0	go	0.442	Go_X	1.0
257.141	1.0	go	0.546	Go_O	1.0
259.665	0.3	stopfail	0.723	Go_X	0.0
262.189	1.0	go	0.465	Go_O	1.0
264.713	0.25	stopsuccess	0.0	Go_O	1.0
267.237	1.0	go	0.46	Go_X	1.0
269.762	1.0	go	0.576	Go_X	1.0
272.286	1.0	go	0.493	Go_O	1.0
274.81	1.0	go	0.714	Go_O	1.0
277.334	1.0	go	0.433	Go_X	1.0
279.858	0.3	stopfail	0.424	Go_X	0.0
282.383	0.25	stopsuccess	0.0	Go_O	1.0
284.907	1.0	go	0.496	Go_X	1.0
287.431	1.0	go	0.607	Go_O	1.0
289.955	0.3	stopfail	0.398	Go_X	0.0
292.479	1.0	go	0.568	Go_O	1.0
295.003	1.0	go	0.382	Go_X	1.0
297.528	1.0	go	0.397	Go_X	1.0
300.052	1.0	go	0.678	Go_O	1.0
302.576	1.0	go	0.814	Go_O	1.0
305.1	1.0	go	0.458	Go_X	1.0
307.624	0.25	stopsuccess	0.0	Go_O	1.0
310.149	1.0	go	0.53	Go_X	1.0
312.673	1.0	go	0.497	Go_O	1.0
315.197	1.0	go	0.55	Go_O	1.0
317.721	1.0	go	0.519	Go_X	1.0
320.245	1.0	go	0.626	Go_X	1.0
322.77	0.3	stopfail	0.481	Go_X	0.0
325.294	1.0	go	0.686	Go_O	1.0
327.818	1.0	go	0.425	Go_X	1.0
330.342	1.0	go	0.446	Go_O	1.0
332.866	1.0	go	0.639	Go_O	0.0
335.391	0.25	stopsuccess	0.0	Go_O	1.0
337.915	1.0	go	0.497	Go_X	1.0
340.439	1.0	go	0.56	Go_X	1.0
342.963	0.3	stopsuccess	0.0	Go_X	1.0
345.487	1.0	go	0.664	Go_O	0.0
348.011	0.35	stopsuccess	0.0	Go_O	1.0
350.536	1.0	go	0.566	Go_O	1.0
353.06	1.0	go	0.426	Go_X	1.0
355.584	1.0	go	0.636	Go_X	1.0
358.108	1.0	go	0.532	Go_O	1.0
360.632	1.0	go	0.716	Go_O	1.0
363.157	1.0	go	0.479	Go_X	1.0
365.681	1.0	go	0.391	Go_X	1.0
368.205	0.4	stopfail	0.469	Go_X	0.0
370.729	1.0	go	0.445	Go_O	1.0
373.253	1.0	go	0.561	Go_X	1.0
375.778	1.0	go	0.434	Go_O	1.0
378.302	0.35	stopsuccess	0.0	Go_O	1.0
380.826	1.0	go	0.576	Go_X	1.0
383.35	1.0	go	0.463	Go_O	1.0
385.874	1.0	go	0.431	Go_X	1.0
388.399	1.0	go	0.51	Go_O	1.0
390.923	0.4	stopfail	0.832	Go_X	0.0
393.447	1.0	go	0.464	Go_O	1.0
395.971	1.0	go	0.479	Go_X	1.0
398.495	0.35	stopsuccess	0.0	Go_O	1.0
401.02	1.0	go	0.424	Go_X	1.0
403.544	1.0	go	0.0	Go_O	0.0
406.068	0.4	stopsuccess	0.0	Go_X	1.0
408.592	1.0	go	0.604	Go_O	1.0
411.116	1.0	go	0.415	Go_X	1.0
413.641	0.45	stopsuccess	0.0	Go_O	1.0
416.165	1.0	go	0.727	Go_X	1.0
418.689	1.0	go	0.496	Go_O	1.0
421.213	1.0	go	0.681	Go_X	1.0
423.737	1.0	go	0.846	Go_O	1.0
426.261	1.0	go	0.465	Go_O	0.0
428.786	1.0	go	0.719	Go_X	1.0
431.31	0.5	stopfail	0.376	Go_X	0.0
433.834	1.0	go	0.496	Go_O	1.0
436.358	0.45	stopsuccess	0.0	Go_O	1.0
438.882	1.0	go	0.572	Go_X	1.0
441.407	1.0	go	0.0	Go_O	0.0
443.931	1.0	go	0.471	Go_X	1.0
446.455	1.0	go	0.438	Go_X	1.0
448.979	1.0	go	0.58	Go_O	1.0
451.503	0.5	stopfail	0.448	Go_X	0.0
454.028	1.0	go	0.454	Go_O	1.0
456.552	1.0	go	0.506	Go_X	1.0
459.076	1.0	go	0.438	Go_X	1.0
461.6	0.45	stopsuccess	0.0	Go_O	1.0
464.141	0.5	stopsuccess	0.0	Go_X	1.0
466.665	0.55	stopsuccess	0.0	Go_O	1.0
469.189	1.0	go	0.0	Go_O	0.0
471.714	0.6	stopsuccess	0.0	Go_X	1.0
474.238	1.0	go	0.583	Go_O	0.0
476.762	1.0	go	0.459	Go_X	1.0
479.286	1.0	go	0.451	Go_X	1.0
481.81	1.0	go	0.537	Go_O	1.0
484.335	1.0	go	0.375	Go_X	1.0
486.859	1.0	go	0.328	Go_O	1.0
489.383	1.0	go	0.478	Go_O	1.0
491.907	1.0	go	0.37	Go_X	1.0
494.431	0.65	stopfail	0.416	Go_O	0.0
496.956	1.0	go	0.651	Go_X	1.0
499.48	1.0	go	0.494	Go_O	1.0
502.004	0.6	stopfail	0.363	Go_X	0.0
504.528	1.0	go	0.598	Go_X	1.0
507.052	1.0	go	0.381	Go_O	1.0
509.577	1.0	go	0.364	Go_X	1.0
512.101	1.0	go	0.428	Go_O	1.0
514.625	1.0	go	0.387	Go_X	1.0
517.149	0.55	stopfail	0.386	Go_O	0.0
519.673	1.0	go	0.559	Go_O	1.0
522.197	1.0	go	0.306	Go_X	1.0
524.722	1.0	go	0.453	Go_O	1.0
527.246	0.5	stopfail	0.398	Go_X	0.0
529.77	1.0	go	0.309	Go_O	1.0
532.294	0.45	stopsuccess	0.0	Go_O	1.0
534.818	1.0	go	0.524	Go_X	1.0
537.343	1.0	go	0.815	Go_X	1.0
539.867	1.0	go	0.549	Go_O	1.0
542.391	1.0	go	0.857	Go_X	1.0
544.915	1.0	go	0.367	Go_O	1.0
547.439	1.0	go	0.548	Go_O	1.0
549.964	1.0	go	0.411	Go_X	1.0
552.488	0.5	stopfail	0.577	Go_X	0.0
555.012	1.0	go	0.413	Go_X	1.0
557.536	1.0	go	0.451	Go_O	1.0
560.06	1.0	go	0.689	Go_O	1.0
562.585	1.0	go	0.305	Go_X	1.0
565.109	0.45	stopfail	0.511	Go_O	0.0
567.633	1.0	go	0.514	Go_O	1.0
570.157	0.4	stopfail	0.539	Go_X	0.0
572.681	1.0	go	0.479	Go_X	1.0
575.206	1.0	go	0.623	Go_O	1.0
577.73	0.35	stopfail	0.401	Go_O	0.0
580.254	1.0	go	0.44	Go_X	1.0
582.778	1.0	go	0.313	Go_X	1.0
585.302	1.0	go	0.469	Go_O	1.0
587.826	1.0	go	0.416	Go_O	0.0
590.351	1.0	go	0.391	Go_X	1.0
592.875	1.0	go	0.452	Go_O	1.0
595.399	1.0	go	0.586	Go_X	1.0
597.923	1.0	go	0.379	Go_O	1.0
600.447	1.0	go	0.569	Go_X	1.0
602.972	1.0	go	0.396	Go_O	0.0
605.496	0.3	stopfail	0.468	Go_X	0.0
608.02	1.0	go	0.482	Go_X	1.0
610.544	1.0	go	0.572	Go_O	1.0
613.068	0.25	stopsuccess	0.0	Go_O	1.0
615.593	1.0	go	0.38	Go_X	1.0
618.117	0.3	stopsuccess	0.0	Go_X	1.0
620.641	1.0	go	0.475	Go_X	1.0
623.165	1.0	go	0.771	Go_O	1.0
625.689	0.35	stopsuccess	0.0	Go_O	1.0
628.214	1.0	go	0.556	Go_X	1.0
630.738	0.4	stopfail	0.563	Go_X	0.0
633.262	1.0	go	0.544	Go_O	1.0
635.786	1.0	go	0.523	Go_X	1.0
638.31	1.0	go	0.614	Go_O	1.0
640.835	0.35	stopsuccess	0.0	Go_O	1.0
643.359	1.0	go	0.855	Go_O	1.0
645.883	1.0	go	0.432	Go_X	1.0
648.407	1.0	go	0.601	Go_O	1.0
650.931	1.0	go	0.506	Go_X	1.0
653.455	0.4	stopsuccess	0.0	Go_X	1.0
655.98	1.0	go	0.497	Go_O	1.0
658.504	1.0	go	0.663	Go_X	1.0
661.028	0.45	stopfail	0.583	Go_O	0.0
663.552	1.0	go	0.395	Go_X	1.0
666.076	1.0	go	0.443	Go_O	1.0
668.601	1.0	go	0.779	Go_X	1.0
671.125	1.0	go	0.404	Go_O	1.0
673.649	0.4	stopfail	0.474	Go_X	0.0
676.173	1.0	go	0.806	Go_X	1.0
678.697	0.35	stopsuccess	0.0	Go_O	1.0
681.222	1.0	go	0.524	Go_O	1.0
683.746	1.0	go	0.505	Go_X	1.0
686.27	0.4	stopfail	0.545	Go_X	0.0
688.794	1.0	go	0.699	Go_O	1.0
691.318	1.0	go	0.41	Go_X	1.0
693.843	1.0	go	0.391	Go_O	1.0
696.367	1.0	go	0.827	Go_O	1.0
698.891	0.35	stopsuccess	0.0	Go_O	1.0
701.415	1.0	go	0.421	Go_X	1.0
703.939	0.4	stopfail	0.564	Go_X	0.0
706.464	1.0	go	0.65	Go_X	1.0
708.988	1.0	go	0.645	Go_O	1.0
711.512	1.0	go	0.634	Go_O	1.0
714.036	1.0	go	0.514	Go_X	1.0
716.56	1.0	go	0.488	Go_O	1.0
719.084	1.0	go	0.465	Go_X	1.0
721.609	0.35	stopsuccess	0.0	Go_O	1.0
724.133	1.0	go	0.401	Go_O	1.0
726.657	1.0	go	0.499	Go_X	1.0
729.181	0.4	stopsuccess	0.0	Go_X	1.0
731.705	1.0	go	0.75	Go_X	1.0
734.23	1.0	go	0.667	Go_O	1.0
736.754	0.45	stopsuccess	0.0	Go_O	1.0
739.278	1.0	go	0.333	Go_X	1.0
741.802	1.0	go	0.513	Go_O	1.0
744.326	1.0	go	0.561	Go_X	1.0
746.851	1.0	go	0.348	Go_O	1.0
749.375	0.5	stopfail	0.371	Go_X	0.0
751.899	1.0	go	0.386	Go_O	1.0
754.423	0.45	stopfail	0.344	Go_O	0.0
756.947	1.0	go	0.454	Go_X	1.0
759.472	1.0	go	0.657	Go_X	1.0
761.996	1.0	go	0.472	Go_O	1.0
764.52	1.0	go	0.587	Go_X	1.0
767.044	1.0	go	0.78	Go_O	1.0
769.568	0.4	stopfail	0.438	Go_X	0.0
772.093	1.0	go	0.418	Go_X	1.0
774.617	1.0	go	0.671	Go_O	1.0
777.141	0.35	stopfail	0.394	Go_O	0.0
779.665	0.3	stopsuccess	0.0	Go_X	1.0
782.189	1.0	go	0.52	Go_O	1.0
784.713	1.0	go	0.565	Go_X	1.0
787.238	1.0	go	0.845	Go_O	1.0
789.762	1.0	go	0.471	Go_X	1.0
792.286	0.35	stopsuccess	0.0	Go_O	1.0
794.81	1.0	go	0.593	Go_X	1.0
