frame	onset	duration	trial_type	event_type	response_type	response_time	stim_file	accuracy
0	548.749		control-noreward	ImageDisplay1		0.0		
0	550.989	0.75	control-noreward	StartDisplay				
0	551.724		control-noreward	ImageDisplay2		0.0		
0	554.733	1.6	control-noreward	ChoiceDisplay	1	0.718	1	1
0	555.469	0.882	control-noreward	ChosenDisplay		0.0		
0	556.338	0.25	control-noreward	TurnDisplay				
0	556.589	0.75	control-noreward	OutcomeDisplay				
1	557.341		control-noreward	ImageDisplay1		0.0		
1	559.581	0.75	control-noreward	StartDisplay				
1	560.333		control-noreward	ImageDisplay2		0.0		
1	563.342	1.6	control-noreward	ChoiceDisplay	1	0.797	1	1
1	564.161	0.803	control-noreward	ChosenDisplay		0.0		
1	564.947	0.25	control-noreward	TurnDisplay				
1	565.198	0.75	control-noreward	OutcomeDisplay				
2	565.95		loss-reward	ImageDisplay1		0.0		
2	567.939	0.75	loss-reward	StartDisplay				
2	568.691		loss-reward	ImageDisplay2		0.0		
2	571.951	1.6	loss-reward	ChoiceDisplay	1	0.784	1	1
2	572.753	0.816	loss-reward	ChosenDisplay		0.0		
2	573.556	0.25	loss-reward	TurnDisplay				
2	573.807	0.75	loss-reward	OutcomeDisplay				
3	574.559		win-reward	ImageDisplay1		0.0		
3	576.548	0.75	win-reward	StartDisplay				
3	577.3		win-reward	ImageDisplay2		0.0		
3	580.56	1.6	win-reward	ChoiceDisplay	1	0.687	1	1
3	581.262	0.913	win-reward	ChosenDisplay		0.0		
3	582.165	0.25	win-reward	TurnDisplay				
3	582.416	0.75	win-reward	OutcomeDisplay				
4	583.168		loss-reward	ImageDisplay1		0.0		
4	585.157	0.75	loss-reward	StartDisplay				
4	585.909		loss-reward	ImageDisplay2		0.0		
4	589.169	1.6	loss-reward	ChoiceDisplay	1	0.811	1	1
4	590.005	0.789	loss-reward	ChosenDisplay		0.0		
4	590.774	0.25	loss-reward	TurnDisplay				
4	591.025	0.75	loss-reward	OutcomeDisplay				
5	591.777		win-noreward	ImageDisplay1		0.0		
5	594.017	0.75	win-noreward	StartDisplay				
5	594.769		win-noreward	ImageDisplay2		0.0		
5	597.778	1.6	win-noreward	ChoiceDisplay	1	0.907	1	1
5	598.698	0.693	win-noreward	ChosenDisplay		0.0		
5	599.383	0.25	win-noreward	TurnDisplay				
5	599.634	0.75	win-noreward	OutcomeDisplay				
6	600.386		control-noreward	ImageDisplay1		0.0		
6	602.375	0.75	control-noreward	StartDisplay				
6	603.127		control-noreward	ImageDisplay2		0.0		
6	606.387	1.6	control-noreward	ChoiceDisplay	1	0.661	1	1
6	607.072	0.939	control-noreward	ChosenDisplay		0.0		
6	607.992	0.25	control-noreward	TurnDisplay				
6	608.243	0.75	control-noreward	OutcomeDisplay				
7	608.995		loss-reward	ImageDisplay1		0.0		
7	611.235	0.75	loss-reward	StartDisplay				
7	611.987		loss-reward	ImageDisplay2		0.0		
7	614.996	1.6	loss-reward	ChoiceDisplay	1	0.777	1	1
7	615.798	0.823	loss-reward	ChosenDisplay		0.0		
7	616.601	0.25	loss-reward	TurnDisplay				
7	616.852	0.75	loss-reward	OutcomeDisplay				
8	617.604		loss-noreward	ImageDisplay1		0.0		
8	619.593	0.75	loss-noreward	StartDisplay				
8	620.345		loss-noreward	ImageDisplay2		0.0		
8	623.605	1.6	loss-noreward	ChoiceDisplay	1	0.795	1	1
8	624.424	0.805	loss-noreward	ChosenDisplay		0.0		
8	625.21	0.25	loss-noreward	TurnDisplay				
8	625.461	0.75	loss-noreward	OutcomeDisplay				
9	626.213		control-reward	ImageDisplay1		0.0		
9	628.202	0.75	control-reward	StartDisplay				
9	628.954		control-reward	ImageDisplay2		0.0		
9	632.214	1.6	control-reward	ChoiceDisplay	1	0.945	1	1
9	633.184	0.655	control-reward	ChosenDisplay		0.0		
9	633.819	0.25	control-reward	TurnDisplay				
9	634.07	0.75	control-reward	OutcomeDisplay				
10	634.822		win-noreward	ImageDisplay1		0.0		
10	637.062	0.75	win-noreward	StartDisplay				
10	637.814		win-noreward	ImageDisplay2		0.0		
10	640.823	1.6	win-noreward	ChoiceDisplay	1	0.846	1	1
10	641.692	0.754	win-noreward	ChosenDisplay		0.0		
10	642.428	0.25	win-noreward	TurnDisplay				
10	642.679	0.75	win-noreward	OutcomeDisplay				
11	643.431		win-reward	ImageDisplay1		0.0		
11	645.671	0.75	win-reward	StartDisplay				
11	646.423		win-reward	ImageDisplay2		0.0		
11	649.432	1.6	win-reward	ChoiceDisplay	1	0.783	1	1
11	650.234	0.817	win-reward	ChosenDisplay		0.0		
11	651.037	0.25	win-reward	TurnDisplay				
11	651.288	0.75	win-reward	OutcomeDisplay				
12	652.04		loss-noreward	ImageDisplay1		0.0		
12	654.28	0.75	loss-noreward	StartDisplay				
12	655.032		loss-noreward	ImageDisplay2		0.0		
12	658.041	1.6	loss-noreward	ChoiceDisplay	1	1.03	1	1
12	659.094	0.57	loss-noreward	ChosenDisplay		0.0		
12	659.646	0.25	loss-noreward	TurnDisplay				
12	659.897	0.75	loss-noreward	OutcomeDisplay				
13	660.649		loss-reward	ImageDisplay1		0.0		
13	662.638	0.75	loss-reward	StartDisplay				
13	663.39		loss-reward	ImageDisplay2		0.0		
13	666.65	1.6	loss-reward	ChoiceDisplay	1	0.868	1	1
13	667.536	0.732	loss-reward	ChosenDisplay		0.0		
13	668.255	0.25	loss-reward	TurnDisplay				
13	668.506	0.75	loss-reward	OutcomeDisplay				
14	669.258		control-noreward	ImageDisplay1		0.0		
14	671.247	0.75	control-noreward	StartDisplay				
14	671.999		control-noreward	ImageDisplay2		0.0		
14	675.259	1.6	control-noreward	ChoiceDisplay	1	1.049	1	1
14	676.329	0.551	control-noreward	ChosenDisplay		0.0		
14	676.864	0.25	control-noreward	TurnDisplay				
14	677.115	0.75	control-noreward	OutcomeDisplay				
15	677.867		win-noreward	ImageDisplay1		0.0		
15	679.856	0.75	win-noreward	StartDisplay				
15	680.608		win-noreward	ImageDisplay2		0.0		
15	683.868	1.6	win-noreward	ChoiceDisplay	1	0.74	1	1
15	684.62	0.86	win-noreward	ChosenDisplay		0.0		
15	685.473	0.25	win-noreward	TurnDisplay				
15	685.724	0.75	win-noreward	OutcomeDisplay				
16	686.476		win-noreward	ImageDisplay1		0.0		
16	688.465	0.75	win-noreward	StartDisplay				
16	689.217		win-noreward	ImageDisplay2		0.0		
16	692.477	1.6	win-noreward	ChoiceDisplay	1	0.941	1	1
16	693.43	0.659	win-noreward	ChosenDisplay		0.0		
16	694.082	0.25	win-noreward	TurnDisplay				
16	694.333	0.75	win-noreward	OutcomeDisplay				
17	695.085		control-reward	ImageDisplay1		0.0		
17	697.074	0.75	control-reward	StartDisplay				
17	697.826		control-reward	ImageDisplay2		0.0		
17	701.086	1.6	control-reward	ChoiceDisplay	1	1.049	1	1
17	702.156	0.551	control-reward	ChosenDisplay		0.0		
17	702.691	0.25	control-reward	TurnDisplay				
17	702.942	0.75	control-reward	OutcomeDisplay				
18	703.694		control-reward	ImageDisplay1		0.0		
18	705.934	0.75	control-reward	StartDisplay				
18	706.686		control-reward	ImageDisplay2		0.0		
18	709.695	1.6	control-reward	ChoiceDisplay	1	0.992	1	1
18	710.715	0.608	control-reward	ChosenDisplay		0.0		
18	711.3	0.25	control-reward	TurnDisplay				
18	711.551	0.75	control-reward	OutcomeDisplay				
19	712.303		loss-noreward	ImageDisplay1		0.0		
19	714.543	0.75	loss-noreward	StartDisplay				
19	715.295		loss-noreward	ImageDisplay2		0.0		
19	718.304	1.6	loss-noreward	ChoiceDisplay	1	0.973	1	1
19	719.29	0.627	loss-noreward	ChosenDisplay		0.0		
19	719.909	0.25	loss-noreward	TurnDisplay				
19	720.16	0.75	loss-noreward	OutcomeDisplay				
20	720.912		control-noreward	ImageDisplay1		0.0		
20	723.152	0.75	control-noreward	StartDisplay				
20	723.904		control-noreward	ImageDisplay2		0.0		
20	726.913	1.6	control-noreward	ChoiceDisplay	1	0.696	1	1
20	727.632	0.904	control-noreward	ChosenDisplay		0.0		
20	728.518	0.25	control-noreward	TurnDisplay				
20	728.769	0.75	control-noreward	OutcomeDisplay				
21	729.521		win-reward	ImageDisplay1		0.0		
21	731.51	0.75	win-reward	StartDisplay				
21	732.262		win-reward	ImageDisplay2		0.0		
21	735.522	1.6	win-reward	ChoiceDisplay	1	1.262	1	1
21	736.809	0.338	win-reward	ChosenDisplay		0.0		
21	737.127	0.25	win-reward	TurnDisplay				
21	737.378	0.75	win-reward	OutcomeDisplay				
22	738.13		loss-reward	ImageDisplay1		0.0		
22	740.37	0.75	loss-reward	StartDisplay				
22	741.122		loss-reward	ImageDisplay2		0.0		
22	744.131	1.6	loss-reward	ChoiceDisplay	1	0.922	1	1
22	745.067	0.678	loss-reward	ChosenDisplay		0.0		
22	745.736	0.25	loss-reward	TurnDisplay				
22	745.987	0.75	loss-reward	OutcomeDisplay				
23	746.739		control-reward	ImageDisplay1		0.0		
23	748.979	0.75	control-reward	StartDisplay				
23	749.731		control-reward	ImageDisplay2		0.0		
23	752.74	1.6	control-reward	ChoiceDisplay	1	1.17	1	1
23	753.927	0.43	control-reward	ChosenDisplay		0.0		
23	754.345	0.25	control-reward	TurnDisplay				
23	754.596	0.75	control-reward	OutcomeDisplay				
24	755.348		win-noreward	ImageDisplay1		0.0		
24	757.588	0.75	win-noreward	StartDisplay				
24	758.34		win-noreward	ImageDisplay2		0.0		
24	761.349	1.6	win-noreward	ChoiceDisplay	1	1.222	1	1
24	762.586	0.378	win-noreward	ChosenDisplay		0.0		
24	762.954	0.25	win-noreward	TurnDisplay				
24	763.205	0.75	win-noreward	OutcomeDisplay				
25	763.957		loss-reward	ImageDisplay1		0.0		
25	765.946	0.75	loss-reward	StartDisplay				
25	766.698		loss-reward	ImageDisplay2		0.0		
25	769.958	1.6	loss-reward	ChoiceDisplay	1	0.887	1	1
25	770.861	0.713	loss-reward	ChosenDisplay		0.0		
25	771.563	0.25	loss-reward	TurnDisplay				
25	771.814	0.75	loss-reward	OutcomeDisplay				
26	772.566		control-noreward	ImageDisplay1		0.0		
26	774.555	0.75	control-noreward	StartDisplay				
26	775.307		control-noreward	ImageDisplay2		0.0		
26	778.567	1.6	control-noreward	ChoiceDisplay	1	0.932	1	1
26	779.52	0.668	control-noreward	ChosenDisplay		0.0		
26	780.172	0.25	control-noreward	TurnDisplay				
26	780.423	0.75	control-noreward	OutcomeDisplay				
27	781.175		win-reward	ImageDisplay1		0.0		
27	783.415	0.75	win-reward	StartDisplay				
27	784.167		win-reward	ImageDisplay2		0.0		
27	787.176	1.6	win-reward	ChoiceDisplay	1	0.825	1	1
27	788.029	0.775	win-reward	ChosenDisplay		0.0		
27	788.781	0.25	win-reward	TurnDisplay				
27	789.032	0.75	win-reward	OutcomeDisplay				
28	789.784		win-reward	ImageDisplay1		0.0		
28	791.773	0.75	win-reward	StartDisplay				
28	792.525		win-reward	ImageDisplay2		0.0		
28	795.785	1.6	win-reward	ChoiceDisplay	1	0.717	1	1
28	796.521	0.883	win-reward	ChosenDisplay		0.0		
28	797.39	0.25	win-reward	TurnDisplay				
28	797.641	0.75	win-reward	OutcomeDisplay				
29	798.393		control-reward	ImageDisplay1		0.0		
29	800.633	0.75	control-reward	StartDisplay				
29	801.385		control-reward	ImageDisplay2		0.0		
29	804.394	1.6	control-reward	ChoiceDisplay	1	0.382	1	1
29	804.795	1.218	control-reward	ChosenDisplay		0.0		
29	805.999	0.25	control-reward	TurnDisplay				
29	806.25	0.75	control-reward	OutcomeDisplay				
30	807.002		loss-reward	ImageDisplay1		0.0		
30	809.242	0.75	loss-reward	StartDisplay				
30	809.994		loss-reward	ImageDisplay2		0.0		
30	813.003	1.6	loss-reward	ChoiceDisplay	1	0.777	1	1
30	813.805	0.823	loss-reward	ChosenDisplay		0.0		
30	814.608	0.25	loss-reward	TurnDisplay				
30	814.859	0.75	loss-reward	OutcomeDisplay				
31	815.611		win-reward	ImageDisplay1		0.0		
31	817.851	0.75	win-reward	StartDisplay				
31	818.603		win-reward	ImageDisplay2		0.0		
31	821.612	1.6	win-reward	ChoiceDisplay	1	0.938	1	1
31	822.565	0.662	win-reward	ChosenDisplay		0.0		
31	823.217	0.25	win-reward	TurnDisplay				
31	823.468	0.75	win-reward	OutcomeDisplay				
32	824.22		control-reward	ImageDisplay1		0.0		
32	826.209	0.75	control-reward	StartDisplay				
32	826.961		control-reward	ImageDisplay2		0.0		
32	830.221	1.6	control-reward	ChoiceDisplay	1	0.842	1	1
32	831.09	0.758	control-reward	ChosenDisplay		0.0		
32	831.826	0.25	control-reward	TurnDisplay				
32	832.077	0.75	control-reward	OutcomeDisplay				
33	832.829		win-reward	ImageDisplay1		0.0		
33	835.069	0.75	win-reward	StartDisplay				
33	835.821		win-reward	ImageDisplay2		0.0		
33	838.83	1.6	win-reward	ChoiceDisplay	1	0.777	1	1
33	839.632	0.823	win-reward	ChosenDisplay		0.0		
33	840.435	0.25	win-reward	TurnDisplay				
33	840.686	0.75	win-reward	OutcomeDisplay				
34	841.438		win-noreward	ImageDisplay1		0.0		
34	843.427	0.75	win-noreward	StartDisplay				
34	844.179		win-noreward	ImageDisplay2		0.0		
34	847.439	1.6	win-noreward	ChoiceDisplay	1	1.01	1	1
34	848.476	0.59	win-noreward	ChosenDisplay		0.0		
34	849.044	0.25	win-noreward	TurnDisplay				
34	849.295	0.75	win-noreward	OutcomeDisplay				
35	850.047		win-reward	ImageDisplay1		0.0		
35	852.287	0.75	win-reward	StartDisplay				
35	853.039		win-reward	ImageDisplay2		0.0		
35	856.048	1.6	win-reward	ChoiceDisplay	1	0.876	1	1
35	856.951	0.724	win-reward	ChosenDisplay		0.0		
35	857.653	0.25	win-reward	TurnDisplay				
35	857.904	0.75	win-reward	OutcomeDisplay				
36	858.656		control-reward	ImageDisplay1		0.0		
36	860.645	0.75	control-reward	StartDisplay				
36	861.397		control-reward	ImageDisplay2		0.0		
36	864.657	1.6	control-reward	ChoiceDisplay	1	0.814	1	1
36	865.493	0.786	control-reward	ChosenDisplay		0.0		
36	866.262	0.25	control-reward	TurnDisplay				
36	866.513	0.75	control-reward	OutcomeDisplay				
37	867.265		win-noreward	ImageDisplay1		0.0		
37	869.254	0.75	win-noreward	StartDisplay				
37	870.006		win-noreward	ImageDisplay2		0.0		
37	873.266	1.6	win-noreward	ChoiceDisplay	1	0.875	1	1
37	874.169	0.725	win-noreward	ChosenDisplay		0.0		
37	874.871	0.25	win-noreward	TurnDisplay				
37	875.122	0.75	win-noreward	OutcomeDisplay				
38	875.874		control-noreward	ImageDisplay1		0.0		
38	878.114	0.75	control-noreward	StartDisplay				
38	878.866		control-noreward	ImageDisplay2		0.0		
38	881.875	1.6	control-noreward	ChoiceDisplay	1	0.788	1	1
38	882.677	0.812	control-noreward	ChosenDisplay		0.0		
38	883.48	0.25	control-noreward	TurnDisplay				
38	883.731	0.75	control-noreward	OutcomeDisplay				
39	884.483		loss-reward	ImageDisplay1		0.0		
39	886.472	0.75	loss-reward	StartDisplay				
39	887.224		loss-reward	ImageDisplay2		0.0		
39	890.484	1.6	loss-reward	ChoiceDisplay	1	0.808	1	1
39	891.32	0.792	loss-reward	ChosenDisplay		0.0		
39	892.089	0.25	loss-reward	TurnDisplay				
39	892.34	0.75	loss-reward	OutcomeDisplay				
40	893.092		loss-reward	ImageDisplay1		0.0		
40	895.332	0.75	loss-reward	StartDisplay				
40	896.084		loss-reward	ImageDisplay2		0.0		
40	899.093	1.6	loss-reward	ChoiceDisplay	1	0.963	1	1
40	900.079	0.637	loss-reward	ChosenDisplay		0.0		
40	900.698	0.25	loss-reward	TurnDisplay				
40	900.949	0.75	loss-reward	OutcomeDisplay				
41	901.701		win-reward	ImageDisplay1		0.0		
41	903.69	0.75	win-reward	StartDisplay				
41	904.442		win-reward	ImageDisplay2		0.0		
41	907.702	1.6	win-reward	ChoiceDisplay	1	0.858	1	1
41	908.588	0.742	win-reward	ChosenDisplay		0.0		
41	909.307	0.25	win-reward	TurnDisplay				
41	909.558	0.75	win-reward	OutcomeDisplay				
42	910.31		loss-noreward	ImageDisplay1		0.0		
42	912.299	0.75	loss-noreward	StartDisplay				
42	913.051		loss-noreward	ImageDisplay2		0.0		
42	916.311	1.6	loss-noreward	ChoiceDisplay	1	0.776	1	1
42	917.113	0.824	loss-noreward	ChosenDisplay		0.0		
42	917.916	0.25	loss-noreward	TurnDisplay				
42	918.167	0.75	loss-noreward	OutcomeDisplay				
43	918.919		loss-noreward	ImageDisplay1		0.0		
43	920.908	0.75	loss-noreward	StartDisplay				
43	921.66		loss-noreward	ImageDisplay2		0.0		
43	924.92	1.6	loss-noreward	ChoiceDisplay	1	0.922	1	1
43	925.856	0.678	loss-noreward	ChosenDisplay		0.0		
43	926.525	0.25	loss-noreward	TurnDisplay				
43	926.776	0.75	loss-noreward	OutcomeDisplay				
44	927.528		control-reward	ImageDisplay1		0.0		
44	929.517	0.75	control-reward	StartDisplay				
44	930.269		control-reward	ImageDisplay2		0.0		
44	933.529	1.6	control-reward	ChoiceDisplay	1	1.113	1	1
44	934.666	0.487	control-reward	ChosenDisplay		0.0		
44	935.134	0.25	control-reward	TurnDisplay				
44	935.385	0.75	control-reward	OutcomeDisplay				
45	936.137		control-reward	ImageDisplay1		0.0		
45	938.126	0.75	control-reward	StartDisplay				
45	938.878		control-reward	ImageDisplay2		0.0		
45	942.138	1.6	control-reward	ChoiceDisplay	1	0.984	1	1
45	943.141	0.616	control-reward	ChosenDisplay		0.0		
45	943.743	0.25	control-reward	TurnDisplay				
45	943.994	0.75	control-reward	OutcomeDisplay				
46	944.746		loss-reward	ImageDisplay1		0.0		
46	946.986	0.75	loss-reward	StartDisplay				
46	947.738		loss-reward	ImageDisplay2		0.0		
46	950.747	1.6	loss-reward	ChoiceDisplay	1	0.9	1	1
46	951.667	0.7	loss-reward	ChosenDisplay		0.0		
46	952.352	0.25	loss-reward	TurnDisplay				
46	952.603	0.75	loss-reward	OutcomeDisplay				
47	953.355		control-noreward	ImageDisplay1		0.0		
47	955.595	0.75	control-noreward	StartDisplay				
47	956.347		control-noreward	ImageDisplay2		0.0		
47	959.356	1.6	control-noreward	ChoiceDisplay	1	1.068	1	1
47	960.443	0.532	control-noreward	ChosenDisplay		0.0		
47	960.961	0.25	control-noreward	TurnDisplay				
47	961.212	0.75	control-noreward	OutcomeDisplay				
48	961.964		loss-noreward	ImageDisplay1		0.0		
48	964.204	0.75	loss-noreward	StartDisplay				
48	964.956		loss-noreward	ImageDisplay2		0.0		
48	967.965	1.6	loss-noreward	ChoiceDisplay	1	0.971	1	1
48	968.951	0.629	loss-noreward	ChosenDisplay		0.0		
48	969.57	0.25	loss-noreward	TurnDisplay				
48	969.821	0.75	loss-noreward	OutcomeDisplay				
49	970.573		control-noreward	ImageDisplay1		0.0		
49	972.562	0.75	control-noreward	StartDisplay				
49	973.314		control-noreward	ImageDisplay2		0.0		
49	976.574	1.6	control-noreward	ChoiceDisplay	1	0.892	1	1
49	977.494	0.708	control-noreward	ChosenDisplay		0.0		
49	978.179	0.25	control-noreward	TurnDisplay				
49	978.43	0.75	control-noreward	OutcomeDisplay				
50	979.182		win-reward	ImageDisplay1		0.0		
50	981.171	0.75	win-reward	StartDisplay				
50	981.923		win-reward	ImageDisplay2		0.0		
50	985.183	1.6	win-reward	ChoiceDisplay	1	0.991	1	1
50	986.186	0.609	win-reward	ChosenDisplay		0.0		
50	986.788	0.25	win-reward	TurnDisplay				
50	987.039	0.75	win-reward	OutcomeDisplay				
51	987.791		loss-noreward	ImageDisplay1		0.0		
51	989.78	0.75	loss-noreward	StartDisplay				
51	990.532		loss-noreward	ImageDisplay2		0.0		
51	993.792	1.6	loss-noreward	ChoiceDisplay	1	0.908	1	1
51	994.712	0.692	loss-noreward	ChosenDisplay		0.0		
51	995.397	0.25	loss-noreward	TurnDisplay				
51	995.648	0.75	loss-noreward	OutcomeDisplay				
52	996.4		win-reward	ImageDisplay1		0.0		
52	998.389	0.75	win-reward	StartDisplay				
52	999.141		win-reward	ImageDisplay2		0.0		
52	1002.401	1.6	win-reward	ChoiceDisplay	1	1.172	1	1
52	1003.588	0.428	win-reward	ChosenDisplay		0.0		
52	1004.006	0.25	win-reward	TurnDisplay				
52	1004.257	0.75	win-reward	OutcomeDisplay				
53	1005.009		control-noreward	ImageDisplay1		0.0		
53	1006.998	0.75	control-noreward	StartDisplay				
53	1007.75		control-noreward	ImageDisplay2		0.0		
53	1011.01	1.6	control-noreward	ChoiceDisplay	1	1.265	1	1
53	1012.297	0.335	control-noreward	ChosenDisplay		0.0		
53	1012.615	0.25	control-noreward	TurnDisplay				
53	1012.866	0.75	control-noreward	OutcomeDisplay				
54	1013.618		win-reward	ImageDisplay1		0.0		
54	1015.858	0.75	win-reward	StartDisplay				
54	1016.61		win-reward	ImageDisplay2		0.0		
54	1019.619	1.6	win-reward	ChoiceDisplay	1	1.046	1	1
54	1020.689	0.554	win-reward	ChosenDisplay		0.0		
54	1021.224	0.25	win-reward	TurnDisplay				
54	1021.475	0.75	win-reward	OutcomeDisplay				
55	1022.227		loss-noreward	ImageDisplay1		0.0		
55	1024.467	0.75	loss-noreward	StartDisplay				
55	1025.219		loss-noreward	ImageDisplay2		0.0		
55	1028.228	1.6	loss-noreward	ChoiceDisplay	1	1.112	1	1
55	1029.365	0.488	loss-noreward	ChosenDisplay		0.0		
55	1029.833	0.25	loss-noreward	TurnDisplay				
55	1030.084	0.75	loss-noreward	OutcomeDisplay				
56	1030.836		loss-noreward	ImageDisplay1		0.0		
56	1032.825	0.75	loss-noreward	StartDisplay				
56	1033.577		loss-noreward	ImageDisplay2		0.0		
56	1036.837	1.6	loss-noreward	ChoiceDisplay	1	1.127	1	1
56	1037.991	0.473	loss-noreward	ChosenDisplay		0.0		
56	1038.442	0.25	loss-noreward	TurnDisplay				
56	1038.693	0.75	loss-noreward	OutcomeDisplay				
57	1039.445		win-noreward	ImageDisplay1		0.0		
57	1041.434	0.75	win-noreward	StartDisplay				
57	1042.186		win-noreward	ImageDisplay2		0.0		
57	1045.446	1.6	win-noreward	ChoiceDisplay	1	1.175	1	1
57	1046.633	0.425	win-noreward	ChosenDisplay		0.0		
57	1047.051	0.25	win-noreward	TurnDisplay				
57	1047.302	0.75	win-noreward	OutcomeDisplay				
58	1048.054		control-reward	ImageDisplay1		0.0		
58	1050.294	0.75	control-reward	StartDisplay				
58	1051.046		control-reward	ImageDisplay2		0.0		
58	1054.055	1.6	control-reward	ChoiceDisplay	1	0.954	1	1
58	1055.025	0.646	control-reward	ChosenDisplay		0.0		
58	1055.66	0.25	control-reward	TurnDisplay				
58	1055.911	0.75	control-reward	OutcomeDisplay				
59	1056.663		win-noreward	ImageDisplay1		0.0		
59	1058.652	0.75	win-noreward	StartDisplay				
59	1059.404		win-noreward	ImageDisplay2		0.0		
59	1062.664	1.6	win-noreward	ChoiceDisplay	1	0.906	1	1
59	1063.584	0.694	win-noreward	ChosenDisplay		0.0		
59	1064.269	0.25	win-noreward	TurnDisplay				
59	1064.52	0.75	win-noreward	OutcomeDisplay				
60	1065.272		win-noreward	ImageDisplay1		0.0		
60	1067.512	0.75	win-noreward	StartDisplay				
60	1068.264		win-noreward	ImageDisplay2		0.0		
60	1071.273	1.6	win-noreward	ChoiceDisplay	1	1.349	1	1
60	1072.644	0.251	win-noreward	ChosenDisplay		0.0		
60	1072.878	0.25	win-noreward	TurnDisplay				
60	1073.129	0.75	win-noreward	OutcomeDisplay				
61	1073.881		loss-reward	ImageDisplay1		0.0		
61	1075.87	0.75	loss-reward	StartDisplay				
61	1076.622		loss-reward	ImageDisplay2		0.0		
61	1079.882	1.6	loss-reward	ChoiceDisplay	1	1.27	1	1
61	1081.169	0.33	loss-reward	ChosenDisplay		0.0		
61	1081.487	0.25	loss-reward	TurnDisplay				
61	1081.738	0.75	loss-reward	OutcomeDisplay				
62	1082.49		win-reward	ImageDisplay1		0.0		
62	1084.73	0.75	win-reward	StartDisplay				
62	1085.482		win-reward	ImageDisplay2		0.0		
62	1088.491	1.6	win-reward	ChoiceDisplay	1	1.057	1	1
62	1089.561	0.543	win-reward	ChosenDisplay		0.0		
62	1090.096	0.25	win-reward	TurnDisplay				
62	1090.347	0.75	win-reward	OutcomeDisplay				
63	1091.099		control-noreward	ImageDisplay1		0.0		
63	1093.339	0.75	control-noreward	StartDisplay				
63	1094.091		control-noreward	ImageDisplay2		0.0		
63	1097.1	1.6	control-noreward	ChoiceDisplay	1	0.907	1	1
63	1098.02	0.693	control-noreward	ChosenDisplay		0.0		
63	1098.705	0.25	control-noreward	TurnDisplay				
63	1098.956	0.75	control-noreward	OutcomeDisplay				
64	1099.708		control-noreward	ImageDisplay1		0.0		
64	1101.948	0.75	control-noreward	StartDisplay				
64	1102.7		control-noreward	ImageDisplay2		0.0		
64	1105.709	1.6	control-noreward	ChoiceDisplay	1	1.038	1	1
64	1106.762	0.562	control-noreward	ChosenDisplay		0.0		
64	1107.314	0.25	control-noreward	TurnDisplay				
64	1107.565	0.75	control-noreward	OutcomeDisplay				
65	1108.317		control-noreward	ImageDisplay1		0.0		
65	1110.557	0.75	control-noreward	StartDisplay				
65	1111.309		control-noreward	ImageDisplay2		0.0		
65	1114.318	1.6	control-noreward	ChoiceDisplay	1	1.255	1	1
65	1115.589	0.345	control-noreward	ChosenDisplay		0.0		
65	1115.923	0.25	control-noreward	TurnDisplay				
65	1116.174	0.75	control-noreward	OutcomeDisplay				
66	1116.926		loss-reward	ImageDisplay1		0.0		
66	1118.915	0.75	loss-reward	StartDisplay				
66	1119.667		loss-reward	ImageDisplay2		0.0		
66	1122.927	1.6	loss-reward	ChoiceDisplay	1	0.882	1	1
66	1123.83	0.718	loss-reward	ChosenDisplay		0.0		
66	1124.532	0.25	loss-reward	TurnDisplay				
66	1124.783	0.75	loss-reward	OutcomeDisplay				
67	1125.535		loss-noreward	ImageDisplay1		0.0		
67	1127.524	0.75	loss-noreward	StartDisplay				
67	1128.276		loss-noreward	ImageDisplay2		0.0		
67	1131.536	1.6	loss-noreward	ChoiceDisplay	1	0.96	1	1
67	1132.522	0.64	loss-noreward	ChosenDisplay		0.0		
67	1133.141	0.25	loss-noreward	TurnDisplay				
67	1133.392	0.75	loss-noreward	OutcomeDisplay				
68	1134.144		control-reward	ImageDisplay1		0.0		
68	1136.133	0.75	control-reward	StartDisplay				
68	1136.885		control-reward	ImageDisplay2		0.0		
68	1140.145	1.6	control-reward	ChoiceDisplay	1	1.006	1	1
68	1141.165	0.594	control-reward	ChosenDisplay		0.0		
68	1141.75	0.25	control-reward	TurnDisplay				
68	1142.001	0.75	control-reward	OutcomeDisplay				
69	1142.753		win-noreward	ImageDisplay1		0.0		
69	1144.993	0.75	win-noreward	StartDisplay				
69	1145.745		win-noreward	ImageDisplay2		0.0		
69	1148.754	1.6	win-noreward	ChoiceDisplay	1	1.167	1	1
69	1149.941	0.433	win-noreward	ChosenDisplay		0.0		
69	1150.359	0.25	win-noreward	TurnDisplay				
69	1150.61	0.75	win-noreward	OutcomeDisplay				
70	1151.362		control-reward	ImageDisplay1		0.0		
70	1153.602	0.75	control-reward	StartDisplay				
70	1154.354		control-reward	ImageDisplay2		0.0		
70	1157.363	1.6	control-reward	ChoiceDisplay	1	1.123	1	1
70	1158.5	0.477	control-reward	ChosenDisplay		0.0		
70	1158.968	0.25	control-reward	TurnDisplay				
70	1159.219	0.75	control-reward	OutcomeDisplay				
71	1159.971		win-reward	ImageDisplay1		0.0		
71	1161.96	0.75	win-reward	StartDisplay				
71	1162.712		win-reward	ImageDisplay2		0.0		
71	1165.972	1.6	win-reward	ChoiceDisplay	1	0.963	1	1
71	1166.958	0.637	win-reward	ChosenDisplay		0.0		
71	1167.577	0.25	win-reward	TurnDisplay				
71	1167.828	0.75	win-reward	OutcomeDisplay				
72	1168.58		loss-reward	ImageDisplay1		0.0		
72	1170.82	0.75	loss-reward	StartDisplay				
72	1171.572		loss-reward	ImageDisplay2		0.0		
72	1174.581	1.6	loss-reward	ChoiceDisplay	1	0.947	1	1
72	1175.551	0.653	loss-reward	ChosenDisplay		0.0		
72	1176.186	0.25	loss-reward	TurnDisplay				
72	1176.437	0.75	loss-reward	OutcomeDisplay				
73	1177.189		control-reward	ImageDisplay1		0.0		
73	1179.178	0.75	control-reward	StartDisplay				
73	1179.93		control-reward	ImageDisplay2		0.0		
73	1183.19	1.6	control-reward	ChoiceDisplay	1	1.183	1	1
73	1184.394	0.417	control-reward	ChosenDisplay		0.0		
73	1184.795	0.25	control-reward	TurnDisplay				
73	1185.046	0.75	control-reward	OutcomeDisplay				
74	1185.798		loss-reward	ImageDisplay1		0.0		
74	1188.038	0.75	loss-reward	StartDisplay				
74	1188.79		loss-reward	ImageDisplay2		0.0		
74	1191.799	1.6	loss-reward	ChoiceDisplay	1	1.024	1	1
74	1192.836	0.576	loss-reward	ChosenDisplay		0.0		
74	1193.404	0.25	loss-reward	TurnDisplay				
74	1193.655	0.75	loss-reward	OutcomeDisplay				
75	1194.407		win-reward	ImageDisplay1		0.0		
75	1196.396	0.75	win-reward	StartDisplay				
75	1197.148		win-reward	ImageDisplay2		0.0		
75	1200.408	1.6	win-reward	ChoiceDisplay	1	1.061	1	1
75	1201.495	0.539	win-reward	ChosenDisplay		0.0		
75	1202.013	0.25	win-reward	TurnDisplay				
75	1202.264	0.75	win-reward	OutcomeDisplay				
76	1203.016		loss-noreward	ImageDisplay1		0.0		
76	1205.005	0.75	loss-noreward	StartDisplay				
76	1205.757		loss-noreward	ImageDisplay2		0.0		
76	1209.017	1.6	loss-noreward	ChoiceDisplay	1	0.823	1	1
76	1209.853	0.777	loss-noreward	ChosenDisplay		0.0		
76	1210.622	0.25	loss-noreward	TurnDisplay				
76	1210.873	0.75	loss-noreward	OutcomeDisplay				
77	1211.625		control-noreward	ImageDisplay1		0.0		
77	1213.614	0.75	control-noreward	StartDisplay				
77	1214.366		control-noreward	ImageDisplay2		0.0		
77	1217.626	1.6	control-noreward	ChoiceDisplay	1	1.081	1	1
77	1218.729	0.519	control-noreward	ChosenDisplay		0.0		
77	1219.231	0.25	control-noreward	TurnDisplay				
77	1219.482	0.75	control-noreward	OutcomeDisplay				
78	1220.234		loss-noreward	ImageDisplay1		0.0		
78	1222.474	0.75	loss-noreward	StartDisplay				
78	1223.226		loss-noreward	ImageDisplay2		0.0		
78	1226.235	1.6	loss-noreward	ChoiceDisplay	1	0.939	1	1
78	1227.188	0.661	loss-noreward	ChosenDisplay		0.0		
78	1227.84	0.25	loss-noreward	TurnDisplay				
78	1228.091	0.75	loss-noreward	OutcomeDisplay				
79	1228.843		control-reward	ImageDisplay1		0.0		
79	1231.083	0.75	control-reward	StartDisplay				
79	1231.835		control-reward	ImageDisplay2		0.0		
79	1234.844	1.6	control-reward	ChoiceDisplay	1	1.036	1	1
79	1235.897	0.564	control-reward	ChosenDisplay		0.0		
79	1236.449	0.25	control-reward	TurnDisplay				
79	1236.7	0.75	control-reward	OutcomeDisplay				
80	1237.452		loss-noreward	ImageDisplay1		0.0		
80	1239.692	0.75	loss-noreward	StartDisplay				
80	1240.444		loss-noreward	ImageDisplay2		0.0		
80	1243.453	1.6	loss-noreward	ChoiceDisplay	1	1.347	1	1
80	1244.824	0.253	loss-noreward	ChosenDisplay		0.0		
80	1245.058	0.25	loss-noreward	TurnDisplay				
80	1245.309	0.75	loss-noreward	OutcomeDisplay				
81	1246.061		win-noreward	ImageDisplay1		0.0		
81	1248.301	0.75	win-noreward	StartDisplay				
81	1249.053		win-noreward	ImageDisplay2		0.0		
81	1252.062	1.6	win-noreward	ChoiceDisplay	1	1.206	1	1
81	1253.282	0.394	win-noreward	ChosenDisplay		0.0		
81	1253.667	0.25	win-noreward	TurnDisplay				
81	1253.918	0.75	win-noreward	OutcomeDisplay				
82	1254.67		win-reward	ImageDisplay1		0.0		
82	1256.659	0.75	win-reward	StartDisplay				
82	1257.411		win-reward	ImageDisplay2		0.0		
82	1260.671	1.6	win-reward	ChoiceDisplay	1	1.227	1	1
82	1261.925	0.373	win-reward	ChosenDisplay		0.0		
82	1262.276	0.25	win-reward	TurnDisplay				
82	1262.527	0.75	win-reward	OutcomeDisplay				
83	1263.279		control-reward	ImageDisplay1		0.0		
83	1265.519	0.75	control-reward	StartDisplay				
83	1266.271		control-reward	ImageDisplay2		0.0		
83	1269.28	1.6	control-reward	ChoiceDisplay	1	1.589	1	1
83	1270.868	0.0	control-reward	ChosenDisplay		0.0		
83	1270.885	0.25	control-reward	TurnDisplay				
83	1271.119	0.75	control-reward	OutcomeDisplay				
84	1271.871		win-reward	ImageDisplay1		0.0		
84	1274.128	0.75	win-reward	StartDisplay				
84	1274.88		win-reward	ImageDisplay2		0.0		
84	1277.872	1.6	win-reward	ChoiceDisplay	1	1.023	1	1
84	1278.909	0.577	win-reward	ChosenDisplay		0.0		
84	1279.477	0.25	win-reward	TurnDisplay				
84	1279.728	0.75	win-reward	OutcomeDisplay				
85	1280.48		control-reward	ImageDisplay1		0.0		
85	1282.72	0.75	control-reward	StartDisplay				
85	1283.472		control-reward	ImageDisplay2		0.0		
85	1286.481	1.6	control-reward	ChoiceDisplay	1	1.242	1	1
85	1287.735	0.358	control-reward	ChosenDisplay		0.0		
85	1288.086	0.25	control-reward	TurnDisplay				
85	1288.337	0.75	control-reward	OutcomeDisplay				
86	1289.089		loss-reward	ImageDisplay1		0.0		
86	1291.329	0.75	loss-reward	StartDisplay				
86	1292.081		loss-reward	ImageDisplay2		0.0		
86	1295.09	1.6	loss-reward	ChoiceDisplay	1	0.979	1	1
86	1296.093	0.621	loss-reward	ChosenDisplay		0.0		
86	1296.695	0.25	loss-reward	TurnDisplay				
86	1296.946	0.75	loss-reward	OutcomeDisplay				
87	1297.698		loss-noreward	ImageDisplay1		0.0		
87	1299.938	0.75	loss-noreward	StartDisplay				
87	1300.69		loss-noreward	ImageDisplay2		0.0		
87	1303.699	1.6	loss-noreward	ChoiceDisplay	1	1.117	1	1
87	1304.836	0.483	loss-noreward	ChosenDisplay		0.0		
87	1305.304	0.25	loss-noreward	TurnDisplay				
87	1305.555	0.75	loss-noreward	OutcomeDisplay				
88	1306.307		loss-reward	ImageDisplay1		0.0		
88	1308.296	0.75	loss-reward	StartDisplay				
88	1309.049		loss-reward	ImageDisplay2		0.0		
88	1312.308	1.6	loss-reward	ChoiceDisplay	1	0.876	1	1
88	1313.211	0.724	loss-reward	ChosenDisplay		0.0		
88	1313.913	0.25	loss-reward	TurnDisplay				
88	1314.164	0.75	loss-reward	OutcomeDisplay				
89	1314.916		win-reward	ImageDisplay1		0.0		
89	1317.156	0.75	win-reward	StartDisplay				
89	1317.908		win-reward	ImageDisplay2		0.0		
89	1320.917	1.6	win-reward	ChoiceDisplay	1	1.115	1	1
89	1322.054	0.485	win-reward	ChosenDisplay		0.0		
89	1322.522	0.25	win-reward	TurnDisplay				
89	1322.773	0.75	win-reward	OutcomeDisplay				
90	1323.525		win-noreward	ImageDisplay1		0.0		
90	1325.765	0.75	win-noreward	StartDisplay				
90	1326.517		win-noreward	ImageDisplay2		0.0		
90	1329.526	1.6	win-noreward	ChoiceDisplay	1	1.146	1	1
90	1330.697	0.454	win-noreward	ChosenDisplay		0.0		
90	1331.131	0.25	win-noreward	TurnDisplay				
90	1331.382	0.75	win-noreward	OutcomeDisplay				
91	1332.134		win-noreward	ImageDisplay1		0.0		
91	1334.123	0.75	win-noreward	StartDisplay				
91	1334.876		win-noreward	ImageDisplay2		0.0		
91	1338.135	1.6	win-noreward	ChoiceDisplay	1	1.056	1	1
91	1339.205	0.544	win-noreward	ChosenDisplay		0.0		
91	1339.74	0.25	win-noreward	TurnDisplay				
91	1339.991	0.75	win-noreward	OutcomeDisplay				
92	1340.743		loss-reward	ImageDisplay1		0.0		
92	1342.983	0.75	loss-reward	StartDisplay				
92	1343.735		loss-reward	ImageDisplay2		0.0		
92	1346.744	1.6	loss-reward	ChoiceDisplay	1	1.18	1	1
92	1347.948	0.42	loss-reward	ChosenDisplay		0.0		
92	1348.349	0.25	loss-reward	TurnDisplay				
92	1348.6	0.75	loss-reward	OutcomeDisplay				
93	1349.352		control-noreward	ImageDisplay1		0.0		
93	1351.341	0.75	control-noreward	StartDisplay				
93	1352.094		control-noreward	ImageDisplay2		0.0		
93	1355.353	1.6	control-noreward	ChoiceDisplay	1	1.181	1	1
93	1356.557	0.419	control-noreward	ChosenDisplay		0.0		
93	1356.958	0.25	control-noreward	TurnDisplay				
93	1357.209	0.75	control-noreward	OutcomeDisplay				
94	1357.961		loss-reward	ImageDisplay1		0.0		
94	1359.95	0.75	loss-reward	StartDisplay				
94	1360.703		loss-reward	ImageDisplay2		0.0		
94	1363.962	1.6	loss-reward	ChoiceDisplay	1	0.943	1	1
94	1364.932	0.657	loss-reward	ChosenDisplay		0.0		
94	1365.567	0.25	loss-reward	TurnDisplay				
94	1365.818	0.75	loss-reward	OutcomeDisplay				
95	1366.57		control-noreward	ImageDisplay1		0.0		
95	1368.559	0.75	control-noreward	StartDisplay				
95	1369.312		control-noreward	ImageDisplay2		0.0		
95	1372.571	1.6	control-noreward	ChoiceDisplay	1	1.524	1	1
95	1374.109	0.0	control-noreward	ChosenDisplay		0.0		
95	1374.176	0.25	control-noreward	TurnDisplay				
95	1374.343	0.75	control-noreward	OutcomeDisplay				
