onset	duration	trial_type	response_time	stim_file	accuracy
49.435	1.0	go	0.563	Go_O	1.0
51.976	1.0	go	0.57	Go_X	1.0
54.517	1.0	go	0.586	Go_O	1.0
57.041	1.0	go	0.545	Go_X	1.0
59.565	1.0	go	0.481	Go_O	1.0
62.09	1.0	go	0.563	Go_X	1.0
64.614	0.25	stop	0.0	Go_O	1.0
67.155	1.0	go	0.516	Go_X	1.0
69.679	0.3	stop	0.0	Go_X	1.0
72.203	1.0	go	0.46	Go_O	1.0
74.727	1.0	go	0.556	Go_O	1.0
77.252	1.0	go	0.539	Go_X	1.0
79.793	0.35	stop	0.0	Go_O	1.0
82.334	1.0	go	0.581	Go_X	1.0
84.875	1.0	go	0.505	Go_O	1.0
87.399	0.4	stop	0.49	Go_X	0.0
89.94	0.35	stop	0.0	Go_O	1.0
92.481	1.0	go	0.539	Go_X	1.0
95.022	1.0	go	0.463	Go_O	1.0
97.546	0.4	stop	0.0	Go_X	1.0
100.087	1.0	go	0.48	Go_O	1.0
102.611	1.0	go	0.49	Go_X	1.0
105.135	0.45	stop	0.562	Go_O	0.0
107.659	1.0	go	0.561	Go_O	1.0
110.184	1.0	go	0.486	Go_X	1.0
112.708	0.4	stop	0.0	Go_X	1.0
115.249	1.0	go	0.535	Go_X	1.0
117.79	1.0	go	0.611	Go_O	1.0
120.314	0.45	stop	0.534	Go_O	0.0
122.838	1.0	go	0.552	Go_O	1.0
125.362	1.0	go	0.576	Go_X	1.0
127.887	1.0	go	0.611	Go_O	1.0
130.428	1.0	go	0.618	Go_X	1.0
132.952	1.0	go	0.603	Go_O	1.0
135.476	0.4	stop	0.0	Go_X	1.0
138.017	1.0	go	0.6	Go_X	1.0
140.541	1.0	go	0.543	Go_X	1.0
143.065	1.0	go	0.587	Go_O	1.0
145.59	1.0	go	0.543	Go_O	1.0
148.114	1.0	go	0.61	Go_X	1.0
150.638	0.45	stop	0.548	Go_O	0.0
153.162	1.0	go	0.615	Go_X	1.0
155.687	1.0	go	0.612	Go_O	1.0
158.211	1.0	go	0.627	Go_X	1.0
160.735	1.0	go	0.613	Go_O	1.0
163.259	1.0	go	0.593	Go_O	1.0
165.784	1.0	go	0.664	Go_X	1.0
168.308	0.4	stop	0.0	Go_X	1.0
170.849	1.0	go	0.603	Go_O	1.0
173.39	1.0	go	0.572	Go_X	1.0
175.914	0.45	stop	0.0	Go_O	1.0
178.438	1.0	go	0.565	Go_O	1.0
180.979	0.5	stop	0.0	Go_X	1.0
183.503	0.55	stop	0.61	Go_O	0.0
186.027	1.0	go	0.725	Go_X	1.0
188.552	1.0	go	0.657	Go_X	1.0
191.076	1.0	go	0.678	Go_O	1.0
193.6	1.0	go	0.651	Go_O	1.0
196.124	0.5	stop	0.666	Go_X	0.0
198.649	1.0	go	0.85	Go_X	1.0
201.189	0.45	stop	0.0	Go_O	1.0
203.714	1.0	go	0.596	Go_X	1.0
206.238	1.0	go	0.722	Go_O	1.0
208.762	1.0	go	0.639	Go_O	1.0
211.286	1.0	go	0.651	Go_X	1.0
213.811	1.0	go	0.654	Go_O	1.0
216.352	1.0	go	0.628	Go_X	1.0
218.876	1.0	go	0.753	Go_O	1.0
221.417	1.0	go	0.482	Go_X	1.0
223.941	1.0	go	0.549	Go_X	1.0
226.465	0.5	stop	0.622	Go_X	0.0
228.989	1.0	go	0.437	Go_O	1.0
231.514	1.0	go	0.541	Go_O	1.0
234.038	1.0	go	0.58	Go_X	1.0
236.563	0.45	stop	0.524	Go_O	0.0
239.086	1.0	go	0.56	Go_O	1.0
241.611	1.0	go	0.595	Go_X	1.0
244.135	1.0	go	0.624	Go_X	1.0
246.659	1.0	go	0.508	Go_O	1.0
249.183	1.0	go	0.552	Go_X	1.0
251.707	1.0	go	0.462	Go_O	1.0
254.232	0.4	stop	0.57	Go_X	0.0
256.773	1.0	go	0.636	Go_O	1.0
259.314	1.0	go	0.443	Go_X	1.0
261.855	0.35	stop	0.0	Go_O	1.0
264.379	1.0	go	0.592	Go_O	1.0
266.903	1.0	go	0.504	Go_X	1.0
269.427	0.4	stop	0.0	Go_X	1.0
271.968	1.0	go	0.511	Go_O	1.0
274.492	0.45	stop	0.505	Go_O	0.0
277.017	1.0	go	0.464	Go_X	1.0
279.541	1.0	go	0.612	Go_X	1.0
282.082	1.0	go	0.478	Go_O	1.0
284.606	1.0	go	0.48	Go_X	1.0
287.13	1.0	go	0.545	Go_O	1.0
289.654	0.4	stop	0.0	Go_X	1.0
292.195	0.45	stop	0.537	Go_O	0.0
294.72	1.0	go	0.491	Go_O	1.0
297.244	1.0	go	0.567	Go_X	1.0
299.768	0.4	stop	0.0	Go_X	1.0
302.292	1.0	go	0.657	Go_X	1.0
304.816	1.0	go	0.501	Go_O	1.0
307.341	1.0	go	0.539	Go_O	1.0
309.865	1.0	go	0.508	Go_X	1.0
312.389	1.0	go	0.561	Go_X	1.0
314.913	1.0	go	0.694	Go_O	1.0
317.438	0.45	stop	0.495	Go_O	0.0
319.978	1.0	go	0.704	Go_X	1.0
322.503	1.0	go	0.671	Go_O	1.0
325.027	1.0	go	0.568	Go_O	1.0
327.551	1.0	go	0.71	Go_X	1.0
330.075	1.0	go	0.886	Go_X	1.0
332.6	0.4	stop	0.0	Go_X	1.0
335.141	1.0	go	0.667	Go_O	1.0
337.665	1.0	go	0.597	Go_X	1.0
340.189	1.0	go	0.616	Go_O	1.0
342.73	1.0	go	0.581	Go_O	1.0
345.254	0.45	stop	0.554	Go_O	0.0
347.795	1.0	go	0.445	Go_X	1.0
350.319	1.0	go	0.546	Go_X	1.0
352.844	0.4	stop	0.543	Go_X	0.0
355.384	1.0	go	0.649	Go_O	1.0
357.909	0.35	stop	0.0	Go_O	1.0
360.433	1.0	go	0.571	Go_O	1.0
362.957	1.0	go	0.564	Go_X	1.0
365.498	1.0	go	0.613	Go_X	1.0
368.022	1.0	go	0.615	Go_O	1.0
370.547	1.0	go	0.65	Go_X	1.0
373.071	1.0	go	0.661	Go_O	1.0
375.595	1.0	go	0.687	Go_X	1.0
378.119	0.4	stop	0.0	Go_X	1.0
380.66	1.0	go	0.543	Go_O	1.0
383.186	1.0	go	0.652	Go_X	1.0
385.709	1.0	go	0.617	Go_O	1.0
388.233	0.45	stop	0.0	Go_O	1.0
390.775	1.0	go	0.572	Go_O	1.0
393.298	1.0	go	0.553	Go_X	1.0
395.839	1.0	go	0.63	Go_O	1.0
398.363	1.0	go	0.68	Go_X	1.0
400.887	0.5	stop	0.0	Go_X	1.0
403.412	1.0	go	0.601	Go_X	1.0
405.936	1.0	go	0.639	Go_O	1.0
408.46	0.55	stop	0.536	Go_O	0.0
410.984	1.0	go	0.471	Go_X	1.0
413.509	1.0	go	0.56	Go_O	1.0
416.033	0.5	stop	0.597	Go_X	0.0
418.574	1.0	go	0.639	Go_O	1.0
421.098	1.0	go	0.591	Go_X	1.0
423.622	0.45	stop	0.0	Go_O	1.0
426.163	1.0	go	0.681	Go_X	1.0
428.687	1.0	go	0.666	Go_O	1.0
431.212	1.0	go	0.488	Go_X	1.0
433.736	1.0	go	0.52	Go_O	1.0
436.26	1.0	go	0.63	Go_X	1.0
438.784	1.0	go	0.524	Go_O	1.0
441.308	0.5	stop	0.568	Go_X	0.0
443.833	1.0	go	0.585	Go_X	1.0
446.357	0.45	stop	0.0	Go_O	1.0
448.881	1.0	go	0.619	Go_O	1.0
451.405	1.0	go	0.623	Go_O	1.0
453.93	1.0	go	0.482	Go_X	1.0
456.454	1.0	go	0.583	Go_X	1.0
458.978	1.0	go	0.602	Go_O	1.0
461.502	0.5	stop	0.551	Go_X	0.0
464.043	1.0	go	0.61	Go_X	1.0
466.567	1.0	go	0.628	Go_O	1.0
469.092	1.0	go	0.618	Go_X	1.0
471.616	0.45	stop	0.554	Go_O	0.0
474.14	0.4	stop	0.0	Go_X	1.0
476.664	0.45	stop	0.0	Go_O	1.0
479.189	1.0	go	0.633	Go_O	1.0
481.713	0.5	stop	0.0	Go_X	1.0
484.237	1.0	go	0.705	Go_O	1.0
486.778	1.0	go	0.659	Go_X	1.0
489.302	1.0	go	0.642	Go_O	1.0
491.826	1.0	go	0.74	Go_X	1.0
494.351	1.0	go	0.859	Go_O	1.0
496.875	1.0	go	0.575	Go_X	1.0
499.399	1.0	go	0.649	Go_X	1.0
501.923	1.0	go	0.775	Go_O	1.0
504.447	0.55	stop	0.596	Go_O	0.0
506.988	1.0	go	0.695	Go_O	1.0
509.513	1.0	go	0.665	Go_X	1.0
512.037	0.5	stop	0.622	Go_X	0.0
514.561	1.0	go	0.654	Go_O	1.0
517.085	1.0	go	0.689	Go_X	1.0
519.61	1.0	go	0.538	Go_O	1.0
522.134	1.0	go	0.535	Go_X	1.0
524.658	1.0	go	0.612	Go_X	1.0
527.182	0.45	stop	0.611	Go_O	0.0
529.706	1.0	go	0.563	Go_O	1.0
532.231	1.0	go	0.572	Go_X	1.0
534.755	1.0	go	0.627	Go_O	1.0
537.279	0.4	stop	0.529	Go_X	0.0
539.803	1.0	go	0.612	Go_X	1.0
542.328	0.35	stop	0.0	Go_O	1.0
544.852	1.0	go	0.582	Go_O	1.0
547.393	1.0	go	0.7	Go_X	1.0
549.917	1.0	go	0.617	Go_O	1.0
552.458	1.0	go	0.635	Go_X	0.0
554.982	1.0	go	0.46	Go_O	1.0
557.506	1.0	go	0.59	Go_O	1.0
560.031	1.0	go	0.621	Go_X	1.0
562.572	0.4	stop	0.0	Go_X	1.0
565.112	1.0	go	0.587	Go_X	1.0
567.637	1.0	go	0.458	Go_O	1.0
570.161	1.0	go	0.576	Go_X	1.0
572.685	1.0	go	0.545	Go_O	1.0
575.209	0.45	stop	0.0	Go_O	1.0
577.734	1.0	go	0.628	Go_O	1.0
580.258	0.5	stop	0.623	Go_X	0.0
582.782	1.0	go	0.692	Go_X	1.0
585.306	1.0	go	0.578	Go_O	1.0
587.831	0.45	stop	0.0	Go_O	1.0
590.355	1.0	go	0.618	Go_X	1.0
592.879	1.0	go	0.677	Go_O	1.0
595.403	1.0	go	0.608	Go_X	1.0
597.944	1.0	go	0.587	Go_O	1.0
600.468	1.0	go	0.669	Go_X	1.0
602.993	1.0	go	0.667	Go_X	1.0
605.517	1.0	go	0.728	Go_O	1.0
608.041	1.0	go	0.865	Go_O	1.0
610.582	1.0	go	0.599	Go_X	1.0
613.106	1.0	go	0.551	Go_O	1.0
615.63	0.5	stop	0.582	Go_X	0.0
618.155	1.0	go	0.54	Go_X	1.0
620.679	1.0	go	0.678	Go_X	1.0
623.203	0.45	stop	0.0	Go_O	1.0
625.744	1.0	go	0.612	Go_O	1.0
628.268	0.5	stop	0.659	Go_X	0.0
630.809	1.0	go	0.718	Go_X	1.0
633.333	1.0	go	0.657	Go_O	1.0
635.858	0.45	stop	0.0	Go_O	1.0
638.382	1.0	go	0.683	Go_O	1.0
640.906	0.5	stop	0.0	Go_X	1.0
643.43	1.0	go	0.646	Go_X	1.0
645.971	1.0	go	0.641	Go_X	1.0
648.495	1.0	go	0.671	Go_O	1.0
651.02	0.55	stop	0.655	Go_O	0.0
653.561	1.0	go	0.753	Go_X	1.0
656.102	1.0	go	0.602	Go_O	1.0
658.626	1.0	go	0.666	Go_X	1.0
661.15	1.0	go	0.615	Go_O	1.0
663.674	0.5	stop	0.607	Go_X	0.0
666.198	1.0	go	0.599	Go_X	1.0
668.739	1.0	go	0.647	Go_O	1.0
671.264	0.45	stop	0.0	Go_O	1.0
673.788	1.0	go	0.794	Go_X	1.0
676.312	1.0	go	0.821	Go_O	1.0
678.836	1.0	go	0.689	Go_X	1.0
681.377	1.0	go	0.766	Go_O	1.0
683.902	0.5	stop	0.0	Go_X	1.0
686.426	1.0	go	0.787	Go_O	1.0
688.95	0.55	stop	0.691	Go_O	0.0
691.474	1.0	go	0.84	Go_X	1.0
693.998	1.0	go	0.69	Go_X	1.0
696.523	0.5	stop	0.556	Go_X	0.0
699.047	1.0	go	0.802	Go_O	1.0
701.571	1.0	go	0.766	Go_X	1.0
704.095	1.0	go	0.794	Go_O	1.0
706.636	1.0	go	0.687	Go_X	1.0
709.16	0.45	stop	0.0	Go_O	1.0
711.685	1.0	go	0.655	Go_O	1.0
714.209	0.5	stop	0.0	Go_X	1.0
716.733	1.0	go	0.741	Go_O	1.0
719.257	1.0	go	0.752	Go_X	1.0
721.782	1.0	go	0.707	Go_X	1.0
724.306	1.0	go	0.968	Go_O	1.0
726.83	1.0	go	0.769	Go_X	1.0
729.354	1.0	go	0.701	Go_O	1.0
731.878	0.55	stop	0.564	Go_O	0.0
734.403	1.0	go	0.682	Go_X	1.0
736.927	1.0	go	0.701	Go_O	1.0
739.451	0.5	stop	0.0	Go_X	1.0
741.975	1.0	go	0.608	Go_X	1.0
744.5	1.0	go	0.613	Go_O	1.0
747.024	0.55	stop	0.627	Go_O	0.0
749.548	1.0	go	0.799	Go_O	1.0
752.072	1.0	go	0.627	Go_X	1.0
754.596	1.0	go	0.574	Go_O	1.0
757.121	1.0	go	0.6	Go_X	1.0
759.645	0.5	stop	0.528	Go_X	0.0
762.169	1.0	go	0.553	Go_X	1.0
764.693	0.45	stop	0.537	Go_O	0.0
767.234	1.0	go	0.641	Go_O	1.0
769.759	1.0	go	0.524	Go_X	1.0
772.283	1.0	go	0.708	Go_O	1.0
774.807	1.0	go	0.862	Go_X	1.0
777.331	1.0	go	0.569	Go_O	1.0
779.855	0.4	stop	0.0	Go_X	1.0
782.38	1.0	go	0.701	Go_O	1.0
784.904	1.0	go	0.779	Go_X	1.0
787.428	0.45	stop	0.0	Go_O	1.0
789.952	0.5	stop	0.0	Go_X	1.0
792.477	1.0	go	0.698	Go_X	1.0
795.001	1.0	go	0.645	Go_O	1.0
797.525	1.0	go	0.664	Go_O	1.0
800.049	1.0	go	0.613	Go_X	1.0
802.573	0.55	stop	0.0	Go_O	1.0
805.098	1.0	go	0.571	Go_X	1.0
