onset	duration	trial_type	response_time	stim_file	accuracy
209.489	1.0	go	0.447	Go_O	1.0
212.08	1.0	go	0.334	Go_X	1.0
214.604	1.0	go	0.276	Go_O	1.0
217.128	1.0	go	0.31	Go_X	1.0
219.652	1.0	go	0.35	Go_X	1.0
222.176	1.0	go	0.45	Go_O	1.0
224.701	0.25	stopfail	0.563	Go_O	0.0
227.225	1.0	go	0.45	Go_X	1.0
229.749	0.2	stopfail	0.396	Go_X	0.0
232.273	1.0	go	0.607	Go_O	1.0
234.797	1.0	go	0.429	Go_O	1.0
237.321	1.0	go	0.504	Go_X	1.0
239.846	0.15	stopsuccess	0.0	Go_O	1.0
242.37	1.0	go	0.329	Go_X	1.0
244.894	1.0	go	0.246	Go_O	1.0
247.418	0.2	stopsuccess	0.0	Go_X	1.0
249.942	0.25	stopfail	0.488	Go_O	0.0
252.466	1.0	go	0.299	Go_X	1.0
254.991	1.0	go	0.416	Go_O	1.0
257.515	0.2	stopsuccess	0.0	Go_X	1.0
260.039	1.0	go	0.314	Go_O	1.0
262.563	1.0	go	0.577	Go_X	1.0
265.087	0.25	stopfail	0.303	Go_O	0.0
267.611	1.0	go	0.244	Go_O	1.0
270.135	1.0	go	0.396	Go_X	1.0
272.66	0.2	stopsuccess	0.0	Go_X	1.0
275.184	1.0	go	0.455	Go_X	0.0
277.708	1.0	go	0.33	Go_O	1.0
280.232	0.25	stopsuccess	0.0	Go_O	1.0
282.756	1.0	go	0.452	Go_O	1.0
285.28	1.0	go	0.478	Go_X	1.0
287.805	1.0	go	0.485	Go_X	1.0
290.329	1.0	go	0.563	Go_O	1.0
292.853	1.0	go	0.479	Go_O	1.0
295.377	0.3	stopsuccess	0.0	Go_X	1.0
297.901	1.0	go	0.38	Go_X	1.0
300.425	1.0	go	0.536	Go_X	1.0
302.95	1.0	go	0.327	Go_O	1.0
305.474	1.0	go	0.375	Go_X	1.0
307.998	1.0	go	0.305	Go_O	1.0
310.522	0.35	stopfail	0.387	Go_O	0.0
313.046	1.0	go	0.496	Go_O	1.0
315.57	1.0	go	0.445	Go_X	1.0
318.095	1.0	go	0.506	Go_O	1.0
320.619	1.0	go	0.533	Go_X	1.0
323.143	1.0	go	0.387	Go_O	1.0
325.667	1.0	go	0.378	Go_X	1.0
328.191	0.3	stopfail	0.369	Go_X	0.0
330.715	1.0	go	0.337	Go_O	1.0
333.239	1.0	go	0.384	Go_X	1.0
335.764	0.25	stopfail	0.34	Go_O	0.0
338.288	1.0	go	0.556	Go_O	1.0
340.812	0.2	stopsuccess	0.0	Go_X	1.0
343.336	0.25	stopfail	0.343	Go_O	0.0
345.86	1.0	go	0.479	Go_X	1.0
348.384	1.0	go	0.445	Go_O	1.0
350.909	1.0	go	0.279	Go_X	1.0
353.433	1.0	go	0.655	Go_O	1.0
355.957	0.2	stopfail	0.33	Go_X	0.0
358.481	1.0	go	0.459	Go_X	1.0
361.005	0.15	stopfail	0.284	Go_O	0.0
363.529	1.0	go	0.489	Go_O	1.0
366.054	1.0	go	0.412	Go_X	1.0
368.578	1.0	go	0.435	Go_X	1.0
371.102	1.0	go	0.474	Go_O	1.0
373.626	1.0	go	0.321	Go_X	1.0
376.15	1.0	go	0.532	Go_O	1.0
378.674	1.0	go	0.432	Go_O	1.0
381.199	1.0	go	0.416	Go_X	1.0
383.723	1.0	go	0.397	Go_O	1.0
386.247	0.1	stopsuccess	0.0	Go_X	1.0
388.771	1.0	go	0.327	Go_X	1.0
391.295	1.0	go	0.467	Go_X	1.0
393.819	1.0	go	0.284	Go_O	1.0
396.344	0.15	stopsuccess	0.0	Go_O	1.0
398.868	1.0	go	0.314	Go_X	1.0
401.392	1.0	go	0.404	Go_O	1.0
403.916	1.0	go	0.374	Go_O	1.0
406.44	1.0	go	0.399	Go_X	1.0
408.964	1.0	go	0.357	Go_O	1.0
411.488	1.0	go	0.457	Go_X	1.0
414.013	0.2	stopsuccess	0.0	Go_X	1.0
416.537	1.0	go	0.455	Go_O	1.0
419.061	1.0	go	0.353	Go_X	1.0
421.585	0.25	stopfail	0.377	Go_O	0.0
424.109	1.0	go	0.361	Go_X	1.0
426.633	1.0	go	0.308	Go_O	1.0
429.158	0.2	stopsuccess	0.0	Go_X	1.0
431.682	1.0	go	0.419	Go_X	1.0
434.206	0.25	stopfail	0.42	Go_O	0.0
436.73	1.0	go	0.362	Go_O	1.0
439.254	1.0	go	0.477	Go_O	1.0
441.778	1.0	go	0.325	Go_X	1.0
444.303	1.0	go	0.318	Go_O	1.0
446.827	1.0	go	0.358	Go_X	1.0
449.351	0.2	stopsuccess	0.0	Go_X	1.0
451.875	0.25	stopfail	0.267	Go_O	0.0
454.399	1.0	go	0.405	Go_O	1.0
456.923	1.0	go	0.345	Go_X	1.0
459.448	0.2	stopfail	0.485	Go_X	0.0
461.972	1.0	go	0.435	Go_X	1.0
464.496	1.0	go	0.334	Go_O	1.0
467.02	1.0	go	0.4	Go_X	1.0
469.544	1.0	go	0.5	Go_O	1.0
472.068	1.0	go	0.307	Go_X	1.0
474.593	1.0	go	0.401	Go_O	1.0
477.117	0.15	stopsuccess	0.0	Go_O	1.0
479.641	1.0	go	0.405	Go_O	1.0
482.165	1.0	go	0.326	Go_X	1.0
484.689	1.0	go	0.315	Go_O	1.0
487.213	1.0	go	0.307	Go_X	1.0
489.737	1.0	go	0.341	Go_O	1.0
492.262	0.2	stopfail	0.331	Go_X	0.0
494.786	1.0	go	0.588	Go_X	1.0
497.31	1.0	go	0.422	Go_O	1.0
499.834	1.0	go	0.419	Go_X	1.0
502.358	1.0	go	0.415	Go_X	1.0
504.882	0.15	stopsuccess	0.0	Go_O	1.0
507.407	1.0	go	0.377	Go_O	1.0
509.931	1.0	go	0.375	Go_X	1.0
512.455	0.2	stopsuccess	0.0	Go_X	1.0
514.979	1.0	go	0.322	Go_O	1.0
517.503	0.25	stopsuccess	0.0	Go_O	1.0
520.027	1.0	go	0.379	Go_O	1.0
522.552	1.0	go	0.276	Go_X	1.0
525.076	1.0	go	0.295	Go_O	1.0
527.6	1.0	go	0.331	Go_X	1.0
530.124	1.0	go	0.475	Go_X	1.0
532.648	1.0	go	0.387	Go_O	1.0
535.172	1.0	go	0.436	Go_O	1.0
537.697	0.3	stopsuccess	0.0	Go_X	1.0
540.221	1.0	go	0.492	Go_X	1.0
542.745	1.0	go	0.242	Go_O	1.0
545.269	1.0	go	0.383	Go_X	1.0
547.793	0.35	stopsuccess	0.0	Go_O	1.0
550.317	1.0	go	0.393	Go_X	1.0
552.841	1.0	go	0.503	Go_O	1.0
555.366	1.0	go	0.441	Go_X	1.0
557.89	1.0	go	0.251	Go_O	1.0
560.414	0.4	stopfail	0.365	Go_X	0.0
562.938	1.0	go	0.267	Go_X	0.0
565.462	1.0	go	0.685	Go_O	1.0
567.986	0.35	stopsuccess	0.0	Go_O	1.0
570.511	1.0	go	0.32	Go_X	1.0
573.035	1.0	go	0.488	Go_O	1.0
575.559	0.4	stopfail	0.261	Go_X	0.0
578.083	1.0	go	0.291	Go_O	1.0
580.607	1.0	go	0.284	Go_X	1.0
583.131	0.35	stopfail	0.257	Go_O	0.0
585.656	1.0	go	0.266	Go_O	0.0
588.18	1.0	go	0.361	Go_X	1.0
590.704	1.0	go	0.504	Go_O	1.0
593.228	1.0	go	0.584	Go_X	1.0
595.752	1.0	go	0.359	Go_O	1.0
598.276	1.0	go	0.339	Go_X	1.0
600.801	0.3	stopfail	0.406	Go_X	0.0
603.325	1.0	go	0.5	Go_X	1.0
605.849	0.25	stopfail	0.328	Go_O	0.0
608.373	1.0	go	0.474	Go_O	1.0
610.897	1.0	go	0.337	Go_X	1.0
613.421	1.0	go	0.565	Go_O	1.0
615.946	1.0	go	0.302	Go_X	1.0
618.47	1.0	go	0.576	Go_O	1.0
620.994	0.2	stopfail	0.305	Go_X	0.0
623.518	1.0	go	0.421	Go_X	1.0
626.042	1.0	go	0.514	Go_O	1.0
628.566	1.0	go	0.473	Go_X	1.0
631.09	0.15	stopsuccess	0.0	Go_O	1.0
633.615	0.2	stopsuccess	0.0	Go_X	1.0
636.139	0.25	stopfail	0.376	Go_O	0.0
638.663	1.0	go	0.57	Go_O	1.0
641.187	0.2	stopsuccess	0.0	Go_X	1.0
643.711	1.0	go	0.607	Go_X	1.0
646.235	1.0	go	0.387	Go_O	1.0
648.76	1.0	go	0.696	Go_X	1.0
651.284	1.0	go	0.366	Go_O	1.0
653.808	1.0	go	0.521	Go_O	1.0
656.332	1.0	go	0.39	Go_X	1.0
658.856	1.0	go	0.261	Go_O	1.0
661.38	1.0	go	0.245	Go_X	1.0
663.905	0.25	stopfail	0.417	Go_O	0.0
666.429	1.0	go	0.526	Go_X	1.0
668.953	1.0	go	0.297	Go_O	1.0
671.477	0.2	stopsuccess	0.0	Go_X	1.0
674.001	1.0	go	0.279	Go_O	1.0
676.525	1.0	go	0.842	Go_X	1.0
679.05	1.0	go	0.291	Go_O	1.0
681.574	1.0	go	0.329	Go_X	1.0
684.098	1.0	go	0.699	Go_X	1.0
686.622	0.25	stopfail	0.312	Go_O	0.0
689.146	1.0	go	0.377	Go_O	1.0
691.67	1.0	go	0.416	Go_X	1.0
694.195	1.0	go	0.673	Go_O	1.0
696.719	0.2	stopfail	0.464	Go_X	0.0
699.243	1.0	go	0.409	Go_X	1.0
701.767	0.15	stopfail	0.261	Go_O	0.0
704.291	1.0	go	0.398	Go_O	1.0
706.815	1.0	go	0.403	Go_O	1.0
709.339	1.0	go	0.545	Go_X	1.0
711.864	1.0	go	0.423	Go_X	1.0
714.388	1.0	go	0.304	Go_O	1.0
716.912	1.0	go	0.383	Go_X	1.0
719.436	1.0	go	0.261	Go_O	1.0
721.96	0.1	stopsuccess	0.0	Go_X	1.0
724.484	1.0	go	0.401	Go_X	1.0
727.009	1.0	go	0.444	Go_O	1.0
729.533	1.0	go	0.386	Go_O	1.0
732.057	1.0	go	0.45	Go_X	1.0
734.581	0.15	stopfail	0.331	Go_O	0.0
737.105	1.0	go	0.39	Go_X	1.0
739.629	0.1	stopsuccess	0.0	Go_X	1.0
742.154	1.0	go	0.796	Go_O	1.0
744.678	1.0	go	0.346	Go_O	1.0
747.202	0.15	stopsuccess	0.0	Go_O	1.0
749.726	1.0	go	0.316	Go_X	1.0
752.25	1.0	go	0.414	Go_O	1.0
754.774	1.0	go	0.712	Go_X	1.0
757.299	1.0	go	0.436	Go_X	1.0
759.823	1.0	go	0.228	Go_O	1.0
762.347	1.0	go	0.443	Go_O	1.0
764.871	1.0	go	0.473	Go_X	1.0
767.395	1.0	go	0.281	Go_O	1.0
769.919	1.0	go	0.597	Go_X	1.0
772.444	1.0	go	0.886	Go_X	1.0
774.968	0.2	stopsuccess	0.0	Go_X	1.0
777.492	1.0	go	0.864	Go_O	1.0
780.016	1.0	go	0.534	Go_X	1.0
782.54	0.25	stopsuccess	0.0	Go_O	1.0
785.064	1.0	go	0.31	Go_O	0.0
787.588	0.3	stopfail	0.34	Go_X	0.0
790.113	1.0	go	0.454	Go_O	1.0
792.637	1.0	go	0.452	Go_X	1.0
795.161	0.25	stopfail	0.397	Go_O	0.0
797.685	1.0	go	0.597	Go_X	1.0
800.209	0.2	stopsuccess	0.0	Go_X	1.0
802.733	1.0	go	0.368	Go_O	1.0
805.258	1.0	go	0.331	Go_X	1.0
807.782	1.0	go	0.402	Go_O	1.0
810.306	0.25	stopsuccess	0.0	Go_O	1.0
812.83	1.0	go	0.59	Go_O	1.0
815.354	1.0	go	0.503	Go_X	1.0
817.878	1.0	go	0.612	Go_X	1.0
820.403	1.0	go	0.442	Go_O	1.0
822.927	0.3	stopfail	0.456	Go_X	0.0
825.451	1.0	go	0.324	Go_O	1.0
827.975	1.0	go	0.359	Go_X	1.0
830.499	0.25	stopsuccess	0.0	Go_O	1.0
833.023	1.0	go	0.544	Go_O	1.0
835.548	1.0	go	0.548	Go_X	1.0
838.072	1.0	go	0.336	Go_X	1.0
840.596	1.0	go	0.367	Go_O	1.0
843.12	0.3	stopsuccess	0.0	Go_X	1.0
845.644	1.0	go	0.448	Go_X	1.0
848.168	0.35	stopfail	0.857	Go_O	0.0
850.692	1.0	go	0.431	Go_O	1.0
853.217	1.0	go	0.3	Go_X	1.0
855.741	0.3	stopsuccess	0.0	Go_X	1.0
858.265	1.0	go	0.485	Go_O	1.0
860.789	1.0	go	0.394	Go_O	1.0
863.313	1.0	go	0.378	Go_X	1.0
865.837	1.0	go	0.778	Go_O	1.0
868.362	0.35	stopfail	0.276	Go_O	0.0
870.886	1.0	go	0.315	Go_X	1.0
873.41	0.3	stopfail	0.329	Go_X	0.0
875.934	1.0	go	0.582	Go_O	1.0
878.458	1.0	go	0.0	Go_X	0.0
880.982	1.0	go	0.35	Go_O	1.0
883.507	1.0	go	0.31	Go_X	1.0
886.031	1.0	go	0.679	Go_X	1.0
888.555	1.0	go	0.386	Go_O	1.0
891.079	0.25	stopfail	0.311	Go_O	0.0
893.603	1.0	go	0.249	Go_O	0.0
896.127	1.0	go	0.361	Go_X	1.0
898.652	0.2	stopsuccess	0.0	Go_X	1.0
901.176	1.0	go	0.378	Go_O	1.0
903.7	1.0	go	0.635	Go_X	1.0
906.224	0.25	stopsuccess	0.0	Go_O	1.0
908.748	1.0	go	0.0	Go_X	0.0
911.272	1.0	go	0.392	Go_O	1.0
913.797	1.0	go	0.386	Go_O	1.0
916.321	1.0	go	0.437	Go_X	1.0
918.845	0.3	stopfail	0.397	Go_X	0.0
921.369	1.0	go	0.277	Go_O	1.0
923.893	0.25	stopsuccess	0.0	Go_O	1.0
926.417	1.0	go	0.0	Go_X	0.0
928.941	1.0	go	0.0	Go_O	0.0
931.466	1.0	go	0.0	Go_X	0.0
933.99	1.0	go	0.0	Go_O	0.0
936.514	1.0	go	0.489	Go_X	1.0
939.038	0.3	stopfail	0.293	Go_X	0.0
941.562	1.0	go	0.347	Go_X	1.0
944.086	1.0	go	0.441	Go_O	1.0
946.611	0.25	stopfail	0.257	Go_O	0.0
949.135	0.2	stopfail	0.209	Go_X	0.0
951.659	1.0	go	0.389	Go_X	1.0
954.183	1.0	go	0.445	Go_O	1.0
956.707	1.0	go	0.383	Go_X	1.0
959.231	1.0	go	0.344	Go_O	1.0
961.756	0.15	stopsuccess	0.0	Go_O	1.0
964.28	1.0	go	0.329	Go_X	1.0
