frame	onset	duration	trial_type	event_type	response_type	response_time	stim_file	accuracy
0	62.641		loss-noreward	ImageDisplay1		0.0		
0	64.631		loss-noreward	StartDisplay		0.0		
0	65.383		loss-noreward	ImageDisplay2		0.0		
0	68.626		loss-noreward	ChoiceDisplay		0.0		
0	70.231		loss-noreward	ChosenDisplay		0.0		
0	70.247		loss-noreward	TurnDisplay				
0	70.481		loss-noreward	OutcomeDisplay				
1	71.234		win-reward	ImageDisplay1		0.0		
1	73.474		win-reward	StartDisplay		0.0		
1	74.226		win-reward	ImageDisplay2		0.0		
1	77.235		win-reward	ChoiceDisplay		0.0		
1	78.823		win-reward	ChosenDisplay		0.0		
1	78.84		win-reward	TurnDisplay				
1	79.074		win-reward	OutcomeDisplay				
2	79.826		win-reward	ImageDisplay1		0.0		
2	82.083		win-reward	StartDisplay		0.0		
2	82.835		win-reward	ImageDisplay2		0.0		
2	85.827		win-reward	ChoiceDisplay		0.0		
2	87.432		win-reward	ChosenDisplay		0.0		
2	87.449		win-reward	TurnDisplay				
2	87.683		win-reward	OutcomeDisplay				
3	88.435		loss-reward	ImageDisplay1		0.0		
3	90.675		loss-reward	StartDisplay		0.0		
3	91.427		loss-reward	ImageDisplay2		0.0		
3	94.436		loss-reward	ChoiceDisplay		0.0		
3	96.024		loss-reward	ChosenDisplay		0.0		
3	96.041		loss-reward	TurnDisplay				
3	96.275		loss-reward	OutcomeDisplay				
4	97.027		loss-reward	ImageDisplay1		0.0		
4	99.284		loss-reward	StartDisplay		0.0		
4	100.036		loss-reward	ImageDisplay2		0.0		
4	103.029		loss-reward	ChoiceDisplay	3	0.867	3	3
4	103.914		loss-reward	ChosenDisplay		0.0		
4	104.633		loss-reward	TurnDisplay				
4	104.884		loss-reward	OutcomeDisplay				
5	105.636		control-reward	ImageDisplay1		0.0		
5	107.876		control-reward	StartDisplay		0.0		
5	108.629		control-reward	ImageDisplay2		0.0		
5	111.638		control-reward	ChoiceDisplay	3	0.803	3	3
5	112.457		control-reward	ChosenDisplay		0.0		
5	113.242		control-reward	TurnDisplay				
5	113.493		control-reward	OutcomeDisplay				
6	114.245		loss-reward	ImageDisplay1		0.0		
6	116.485		loss-reward	StartDisplay		0.0		
6	117.238		loss-reward	ImageDisplay2		0.0		
6	120.247		loss-reward	ChoiceDisplay	3	0.755	3	3
6	121.016		loss-reward	ChosenDisplay		0.0		
6	121.851		loss-reward	TurnDisplay				
6	122.102		loss-reward	OutcomeDisplay				
7	122.854		win-noreward	ImageDisplay1		0.0		
7	124.844		win-noreward	StartDisplay		0.0		
7	125.596		win-noreward	ImageDisplay2		0.0		
7	128.856		win-noreward	ChoiceDisplay	3	0.752	3	3
7	129.625		win-noreward	ChosenDisplay		0.0		
7	130.46		win-noreward	TurnDisplay				
7	130.711		win-noreward	OutcomeDisplay				
8	131.463		loss-reward	ImageDisplay1		0.0		
8	133.703		loss-reward	StartDisplay		0.0		
8	134.456		loss-reward	ImageDisplay2		0.0		
8	137.465		loss-reward	ChoiceDisplay	3	0.544	3	3
8	138.033		loss-reward	ChosenDisplay		0.0		
8	139.069		loss-reward	TurnDisplay				
8	139.32		loss-reward	OutcomeDisplay				
9	140.072		control-reward	ImageDisplay1		0.0		
9	142.312		control-reward	StartDisplay		0.0		
9	143.065		control-reward	ImageDisplay2		0.0		
9	146.074		control-reward	ChoiceDisplay	3	0.525	3	3
9	146.625		control-reward	ChosenDisplay		0.0		
9	147.678		control-reward	TurnDisplay				
9	147.929		control-reward	OutcomeDisplay				
10	148.681		loss-noreward	ImageDisplay1		0.0		
10	150.671		loss-noreward	StartDisplay		0.0		
10	151.423		loss-noreward	ImageDisplay2		0.0		
10	154.683		loss-noreward	ChoiceDisplay	3	0.67	3	3
10	155.368		loss-noreward	ChosenDisplay		0.0		
10	156.288		loss-noreward	TurnDisplay				
10	156.538		loss-noreward	OutcomeDisplay				
11	157.291		loss-noreward	ImageDisplay1		0.0		
11	159.28		loss-noreward	StartDisplay		0.0		
11	160.032		loss-noreward	ImageDisplay2		0.0		
11	163.292		loss-noreward	ChoiceDisplay	3	0.634	3	3
11	163.944		loss-noreward	ChosenDisplay		0.0		
11	164.897		loss-noreward	TurnDisplay				
11	165.147		loss-noreward	OutcomeDisplay				
12	165.9		control-noreward	ImageDisplay1		0.0		
12	167.889		control-noreward	StartDisplay		0.0		
12	168.641		control-noreward	ImageDisplay2		0.0		
12	171.901		control-noreward	ChoiceDisplay	3	0.281	3	3
12	172.202		control-noreward	ChosenDisplay		0.0		
12	173.506		control-noreward	TurnDisplay				
12	173.756		control-noreward	OutcomeDisplay				
13	174.509		loss-reward	ImageDisplay1		0.0		
13	176.749		loss-reward	StartDisplay		0.0		
13	177.501		loss-reward	ImageDisplay2		0.0		
13	180.51		loss-reward	ChoiceDisplay	3	0.408	3	3
13	180.944		loss-reward	ChosenDisplay		0.0		
13	182.115		loss-reward	TurnDisplay				
13	182.365		loss-reward	OutcomeDisplay				
14	183.118		win-noreward	ImageDisplay1		0.0		
14	185.107		win-noreward	StartDisplay		0.0		
14	185.859		win-noreward	ImageDisplay2		0.0		
14	189.119		win-noreward	ChoiceDisplay	3	0.495	3	3
14	189.637		win-noreward	ChosenDisplay		0.0		
14	190.724		win-noreward	TurnDisplay				
14	190.974		win-noreward	OutcomeDisplay				
15	191.727		loss-reward	ImageDisplay1		0.0		
15	193.967		loss-reward	StartDisplay		0.0		
15	194.719		loss-reward	ImageDisplay2		0.0		
15	197.728		loss-reward	ChoiceDisplay	3	0.488	3	3
15	198.229		loss-reward	ChosenDisplay		0.0		
15	199.333		loss-reward	TurnDisplay				
15	199.583		loss-reward	OutcomeDisplay				
16	200.336		control-noreward	ImageDisplay1		0.0		
16	202.325		control-noreward	StartDisplay		0.0		
16	203.077		control-noreward	ImageDisplay2		0.0		
16	206.337		control-noreward	ChoiceDisplay	3	0.724	3	3
16	207.072		control-noreward	ChosenDisplay		0.0		
16	207.942		control-noreward	TurnDisplay				
16	208.192		control-noreward	OutcomeDisplay				
17	208.945		control-reward	ImageDisplay1		0.0		
17	211.185		control-reward	StartDisplay		0.0		
17	211.937		control-reward	ImageDisplay2		0.0		
17	214.946		control-reward	ChoiceDisplay	3	0.8	3	3
17	215.765		control-reward	ChosenDisplay		0.0		
17	216.551		control-reward	TurnDisplay				
17	216.802		control-reward	OutcomeDisplay				
18	217.554		control-noreward	ImageDisplay1		0.0		
18	219.543		control-noreward	StartDisplay		0.0		
18	220.295		control-noreward	ImageDisplay2		0.0		
18	223.555		control-noreward	ChoiceDisplay	3	0.38	3	3
18	223.956		control-noreward	ChosenDisplay		0.0		
18	225.16		control-noreward	TurnDisplay				
18	225.411		control-noreward	OutcomeDisplay				
19	226.163		control-noreward	ImageDisplay1		0.0		
19	228.152		control-noreward	StartDisplay		0.0		
19	228.904		control-noreward	ImageDisplay2		0.0		
19	232.164		control-noreward	ChoiceDisplay	3	0.56	3	3
19	232.749		control-noreward	ChosenDisplay		0.0		
19	233.769		control-noreward	TurnDisplay				
19	234.02		control-noreward	OutcomeDisplay				
20	234.772		control-reward	ImageDisplay1		0.0		
20	237.012		control-reward	StartDisplay		0.0		
20	237.764		control-reward	ImageDisplay2		0.0		
20	240.773		control-reward	ChoiceDisplay	3	0.464	3	3
20	241.258		control-reward	ChosenDisplay		0.0		
20	242.378		control-reward	TurnDisplay				
20	242.629		control-reward	OutcomeDisplay				
21	243.381		control-reward	ImageDisplay1		0.0		
21	245.621		control-reward	StartDisplay		0.0		
21	246.373		control-reward	ImageDisplay2		0.0		
21	249.382		control-reward	ChoiceDisplay	3	0.546	3	3
21	249.95		control-reward	ChosenDisplay		0.0		
21	250.987		control-reward	TurnDisplay				
21	251.238		control-reward	OutcomeDisplay				
22	251.99		win-reward	ImageDisplay1		0.0		
22	254.23		win-reward	StartDisplay		0.0		
22	254.982		win-reward	ImageDisplay2		0.0		
22	257.991		win-reward	ChoiceDisplay	3	0.51	3	3
22	258.526		win-reward	ChosenDisplay		0.0		
22	259.596		win-reward	TurnDisplay				
22	259.847		win-reward	OutcomeDisplay				
23	260.599		control-noreward	ImageDisplay1		0.0		
23	262.588		control-noreward	StartDisplay		0.0		
23	263.34		control-noreward	ImageDisplay2		0.0		
23	266.6		control-noreward	ChoiceDisplay	3	0.523	3	3
23	267.135		control-noreward	ChosenDisplay		0.0		
23	268.205		control-noreward	TurnDisplay				
23	268.456		control-noreward	OutcomeDisplay				
24	269.208		win-noreward	ImageDisplay1		0.0		
24	271.197		win-noreward	StartDisplay		0.0		
24	271.95		win-noreward	ImageDisplay2		0.0		
24	275.209		win-noreward	ChoiceDisplay	3	0.596	3	3
24	275.828		win-noreward	ChosenDisplay		0.0		
24	276.814		win-noreward	TurnDisplay				
24	277.065		win-noreward	OutcomeDisplay				
25	277.817		win-noreward	ImageDisplay1		0.0		
25	279.806		win-noreward	StartDisplay		0.0		
25	280.559		win-noreward	ImageDisplay2		0.0		
25	283.818		win-noreward	ChoiceDisplay	3	0.6	3	3
25	284.437		win-noreward	ChosenDisplay		0.0		
25	285.423		win-noreward	TurnDisplay				
25	285.674		win-noreward	OutcomeDisplay				
26	286.426		control-noreward	ImageDisplay1		0.0		
26	288.415		control-noreward	StartDisplay		0.0		
26	289.168		control-noreward	ImageDisplay2		0.0		
26	292.427		control-noreward	ChoiceDisplay	3	0.63	3	3
26	293.079		control-noreward	ChosenDisplay		0.0		
26	294.032		control-noreward	TurnDisplay				
26	294.283		control-noreward	OutcomeDisplay				
27	295.035		loss-noreward	ImageDisplay1		0.0		
27	297.024		loss-noreward	StartDisplay		0.0		
27	297.777		loss-noreward	ImageDisplay2		0.0		
27	301.036		loss-noreward	ChoiceDisplay	3	0.505	3	3
27	301.555		loss-noreward	ChosenDisplay		0.0		
27	302.641		loss-noreward	TurnDisplay				
27	302.892		loss-noreward	OutcomeDisplay				
28	303.644		win-reward	ImageDisplay1		0.0		
28	305.884		win-reward	StartDisplay		0.0		
28	306.636		win-reward	ImageDisplay2		0.0		
28	309.645		win-reward	ChoiceDisplay	3	0.674	3	3
28	310.331		win-reward	ChosenDisplay		0.0		
28	311.25		win-reward	TurnDisplay				
28	311.501		win-reward	OutcomeDisplay				
29	312.253		control-reward	ImageDisplay1		0.0		
29	314.493		control-reward	StartDisplay		0.0		
29	315.245		control-reward	ImageDisplay2		0.0		
29	318.254		control-reward	ChoiceDisplay	3	0.533	3	3
29	318.806		control-reward	ChosenDisplay		0.0		
29	319.859		control-reward	TurnDisplay				
29	320.11		control-reward	OutcomeDisplay				
30	320.862		control-reward	ImageDisplay1		0.0		
30	323.102		control-reward	StartDisplay		0.0		
30	323.854		control-reward	ImageDisplay2		0.0		
30	326.863		control-reward	ChoiceDisplay	3	0.408	3	3
30	327.281		control-reward	ChosenDisplay		0.0		
30	328.468		control-reward	TurnDisplay				
30	328.719		control-reward	OutcomeDisplay				
31	329.471		win-reward	ImageDisplay1		0.0		
31	331.711		win-reward	StartDisplay		0.0		
31	332.464		win-reward	ImageDisplay2		0.0		
31	335.472		win-reward	ChoiceDisplay	3	0.546	3	3
31	336.041		win-reward	ChosenDisplay		0.0		
31	337.077		win-reward	TurnDisplay				
31	337.328		win-reward	OutcomeDisplay				
32	338.08		win-noreward	ImageDisplay1		0.0		
32	340.07		win-noreward	StartDisplay		0.0		
32	340.822		win-noreward	ImageDisplay2		0.0		
32	344.082		win-noreward	ChoiceDisplay	3	0.536	3	3
32	344.633		win-noreward	ChosenDisplay		0.0		
32	345.686		win-noreward	TurnDisplay				
32	345.937		win-noreward	OutcomeDisplay				
33	346.689		control-noreward	ImageDisplay1		0.0		
33	348.679		control-noreward	StartDisplay		0.0		
33	349.431		control-noreward	ImageDisplay2		0.0		
33	352.691		control-noreward	ChoiceDisplay	3	0.47	3	3
33	353.175		control-noreward	ChosenDisplay		0.0		
33	354.295		control-noreward	TurnDisplay				
33	354.546		control-noreward	OutcomeDisplay				
34	355.298		win-reward	ImageDisplay1		0.0		
34	357.538		win-reward	StartDisplay		0.0		
34	358.291		win-reward	ImageDisplay2		0.0		
34	361.3		win-reward	ChoiceDisplay	3	0.51	3	3
34	361.835		win-reward	ChosenDisplay		0.0		
34	362.904		win-reward	TurnDisplay				
34	363.155		win-reward	OutcomeDisplay				
35	363.907		loss-reward	ImageDisplay1		0.0		
35	366.147		loss-reward	StartDisplay		0.0		
35	366.9		loss-reward	ImageDisplay2		0.0		
35	369.909		loss-reward	ChoiceDisplay	3	0.439	3	3
35	370.36		loss-reward	ChosenDisplay		0.0		
35	371.513		loss-reward	TurnDisplay				
35	371.764		loss-reward	OutcomeDisplay				
36	372.516		win-noreward	ImageDisplay1		0.0		
36	374.506		win-noreward	StartDisplay		0.0		
36	375.258		win-noreward	ImageDisplay2		0.0		
36	378.518		win-noreward	ChoiceDisplay	3	0.714	3	3
36	379.253		win-noreward	ChosenDisplay		0.0		
36	380.122		win-noreward	TurnDisplay				
36	380.373		win-noreward	OutcomeDisplay				
37	381.125		loss-reward	ImageDisplay1		0.0		
37	383.365		loss-reward	StartDisplay		0.0		
37	384.118		loss-reward	ImageDisplay2		0.0		
37	387.127		loss-reward	ChoiceDisplay	3	0.47	3	3
37	387.612		loss-reward	ChosenDisplay		0.0		
37	388.732		loss-reward	TurnDisplay				
37	388.982		loss-reward	OutcomeDisplay				
38	389.735		control-noreward	ImageDisplay1		0.0		
38	391.724		control-noreward	StartDisplay		0.0		
38	392.476		control-noreward	ImageDisplay2		0.0		
38	395.736		control-noreward	ChoiceDisplay	3	0.203	3	3
38	395.953		control-noreward	ChosenDisplay		0.0		
38	397.341		control-noreward	TurnDisplay				
38	397.591		control-noreward	OutcomeDisplay				
39	398.344		loss-reward	ImageDisplay1		0.0		
39	400.584		loss-reward	StartDisplay		0.0		
39	401.336		loss-reward	ImageDisplay2		0.0		
39	404.345		loss-reward	ChoiceDisplay	3	0.409	3	3
39	404.779		loss-reward	ChosenDisplay		0.0		
39	405.95		loss-reward	TurnDisplay				
39	406.2		loss-reward	OutcomeDisplay				
40	406.953		control-reward	ImageDisplay1		0.0		
40	409.193		control-reward	StartDisplay		0.0		
40	409.945		control-reward	ImageDisplay2		0.0		
40	412.954		control-reward	ChoiceDisplay	3	0.57	3	3
40	413.539		control-reward	ChosenDisplay		0.0		
40	414.559		control-reward	TurnDisplay				
40	414.809		control-reward	OutcomeDisplay				
41	415.562		control-reward	ImageDisplay1		0.0		
41	417.802		control-reward	StartDisplay		0.0		
41	418.554		control-reward	ImageDisplay2		0.0		
41	421.563		control-reward	ChoiceDisplay	3	0.48	3	3
41	422.064		control-reward	ChosenDisplay		0.0		
41	423.168		control-reward	TurnDisplay				
41	423.418		control-reward	OutcomeDisplay				
42	424.171		win-reward	ImageDisplay1		0.0		
42	426.411		win-reward	StartDisplay		0.0		
42	427.163		win-reward	ImageDisplay2		0.0		
42	430.172		win-reward	ChoiceDisplay	3	0.408	3	3
42	430.607		win-reward	ChosenDisplay		0.0		
42	431.777		win-reward	TurnDisplay				
42	432.027		win-reward	OutcomeDisplay				
43	432.78		loss-noreward	ImageDisplay1		0.0		
43	434.769		loss-noreward	StartDisplay		0.0		
43	435.521		loss-noreward	ImageDisplay2		0.0		
43	438.781		loss-noreward	ChoiceDisplay	3	0.614	3	3
43	439.416		loss-noreward	ChosenDisplay		0.0		
43	440.386		loss-noreward	TurnDisplay				
43	440.636		loss-noreward	OutcomeDisplay				
44	441.389		loss-reward	ImageDisplay1		0.0		
44	443.629		loss-reward	StartDisplay		0.0		
44	444.381		loss-reward	ImageDisplay2		0.0		
44	447.39		loss-reward	ChoiceDisplay	3	0.483	3	3
44	447.891		loss-reward	ChosenDisplay		0.0		
44	448.995		loss-reward	TurnDisplay				
44	449.246		loss-reward	OutcomeDisplay				
45	449.998		win-noreward	ImageDisplay1		0.0		
45	451.987		win-noreward	StartDisplay		0.0		
45	452.739		win-noreward	ImageDisplay2		0.0		
45	455.999		win-noreward	ChoiceDisplay	3	0.498	3	3
45	456.517		win-noreward	ChosenDisplay		0.0		
45	457.604		win-noreward	TurnDisplay				
45	457.855		win-noreward	OutcomeDisplay				
46	458.607		control-reward	ImageDisplay1		0.0		
46	460.847		control-reward	StartDisplay		0.0		
46	461.599		control-reward	ImageDisplay2		0.0		
46	464.608		control-reward	ChoiceDisplay	3	0.654	3	3
46	465.277		control-reward	ChosenDisplay		0.0		
46	466.213		control-reward	TurnDisplay				
46	466.464		control-reward	OutcomeDisplay				
47	467.216		win-reward	ImageDisplay1		0.0		
47	469.456		win-reward	StartDisplay		0.0		
47	470.208		win-reward	ImageDisplay2		0.0		
47	473.217		win-reward	ChoiceDisplay	3	0.42	3	3
47	473.652		win-reward	ChosenDisplay		0.0		
47	474.822		win-reward	TurnDisplay				
47	475.073		win-reward	OutcomeDisplay				
48	475.825		loss-reward	ImageDisplay1		0.0		
48	478.065		loss-reward	StartDisplay		0.0		
48	478.817		loss-reward	ImageDisplay2		0.0		
48	481.826		loss-reward	ChoiceDisplay	3	0.56	3	3
48	482.411		loss-reward	ChosenDisplay		0.0		
48	483.431		loss-reward	TurnDisplay				
48	483.682		loss-reward	OutcomeDisplay				
49	484.434		loss-reward	ImageDisplay1		0.0		
49	486.674		loss-reward	StartDisplay		0.0		
49	487.426		loss-reward	ImageDisplay2		0.0		
49	490.435		loss-reward	ChoiceDisplay	3	0.54	3	3
49	490.987		loss-reward	ChosenDisplay		0.0		
49	492.04		loss-reward	TurnDisplay				
49	492.291		loss-reward	OutcomeDisplay				
50	493.043		win-reward	ImageDisplay1		0.0		
50	495.283		win-reward	StartDisplay		0.0		
50	496.035		win-reward	ImageDisplay2		0.0		
50	499.044		win-reward	ChoiceDisplay	3	0.399	3	3
50	499.462		win-reward	ChosenDisplay		0.0		
50	500.649		win-reward	TurnDisplay				
50	500.9		win-reward	OutcomeDisplay				
51	501.652		loss-noreward	ImageDisplay1		0.0		
51	503.641		loss-noreward	StartDisplay		0.0		
51	504.394		loss-noreward	ImageDisplay2		0.0		
51	507.653		loss-noreward	ChoiceDisplay	3	0.515	3	3
51	508.188		loss-noreward	ChosenDisplay		0.0		
51	509.258		loss-noreward	TurnDisplay				
51	509.509		loss-noreward	OutcomeDisplay				
52	510.261		win-reward	ImageDisplay1		0.0		
52	512.501		win-reward	StartDisplay		0.0		
52	513.253		win-reward	ImageDisplay2		0.0		
52	516.262		win-reward	ChoiceDisplay	3	0.336	3	3
52	516.613		win-reward	ChosenDisplay		0.0		
52	517.867		win-reward	TurnDisplay				
52	518.118		win-reward	OutcomeDisplay				
53	518.87		control-reward	ImageDisplay1		0.0		
53	521.11		control-reward	StartDisplay		0.0		
53	521.862		control-reward	ImageDisplay2		0.0		
53	524.871		control-reward	ChoiceDisplay	3	0.76	3	3
53	525.657		control-reward	ChosenDisplay		0.0		
53	526.476		control-reward	TurnDisplay				
53	526.727		control-reward	OutcomeDisplay				
54	527.479		win-noreward	ImageDisplay1		0.0		
54	529.468		win-noreward	StartDisplay		0.0		
54	530.221		win-noreward	ImageDisplay2		0.0		
54	533.48		win-noreward	ChoiceDisplay	3	0.472	3	3
54	533.965		win-noreward	ChosenDisplay		0.0		
54	535.085		win-noreward	TurnDisplay				
54	535.336		win-noreward	OutcomeDisplay				
55	536.088		control-noreward	ImageDisplay1		0.0		
55	538.077		control-noreward	StartDisplay		0.0		
55	538.83		control-noreward	ImageDisplay2		0.0		
55	542.089		control-noreward	ChoiceDisplay	3	0.708	3	3
55	542.808		control-noreward	ChosenDisplay		0.0		
55	543.694		control-noreward	TurnDisplay				
55	543.945		control-noreward	OutcomeDisplay				
56	544.697		loss-noreward	ImageDisplay1		0.0		
56	546.686		loss-noreward	StartDisplay		0.0		
56	547.439		loss-noreward	ImageDisplay2		0.0		
56	550.698		loss-noreward	ChoiceDisplay	3	0.341	3	3
56	551.066		loss-noreward	ChosenDisplay		0.0		
56	552.303		loss-noreward	TurnDisplay				
56	552.554		loss-noreward	OutcomeDisplay				
57	553.306		control-reward	ImageDisplay1		0.0		
57	555.546		control-reward	StartDisplay		0.0		
57	556.298		control-reward	ImageDisplay2		0.0		
57	559.307		control-reward	ChoiceDisplay	3	0.456	3	3
57	559.776		control-reward	ChosenDisplay		0.0		
57	560.912		control-reward	TurnDisplay				
57	561.163		control-reward	OutcomeDisplay				
58	561.915		control-noreward	ImageDisplay1		0.0		
58	563.905		control-noreward	StartDisplay		0.0		
58	564.657		control-noreward	ImageDisplay2		0.0		
58	567.916		control-noreward	ChoiceDisplay	3	0.553	3	3
58	568.485		control-noreward	ChosenDisplay		0.0		
58	569.521		control-noreward	TurnDisplay				
58	569.772		control-noreward	OutcomeDisplay				
59	570.524		win-reward	ImageDisplay1		0.0		
59	572.764		win-reward	StartDisplay		0.0		
59	573.517		win-reward	ImageDisplay2		0.0		
59	576.526		win-reward	ChoiceDisplay	3	0.627	3	3
59	577.177		win-reward	ChosenDisplay		0.0		
59	578.13		win-reward	TurnDisplay				
59	578.381		win-reward	OutcomeDisplay				
60	579.133		win-noreward	ImageDisplay1		0.0		
60	581.123		win-noreward	StartDisplay		0.0		
60	581.875		win-noreward	ImageDisplay2		0.0		
60	585.135		win-noreward	ChoiceDisplay	3	0.396	3	3
60	585.552		win-noreward	ChosenDisplay		0.0		
60	586.739		win-noreward	TurnDisplay				
60	586.99		win-noreward	OutcomeDisplay				
61	587.742		loss-noreward	ImageDisplay1		0.0		
61	589.732		loss-noreward	StartDisplay		0.0		
61	590.484		loss-noreward	ImageDisplay2		0.0		
61	593.744		loss-noreward	ChoiceDisplay	3	0.648	3	3
61	594.412		loss-noreward	ChosenDisplay		0.0		
61	595.348		loss-noreward	TurnDisplay				
61	595.599		loss-noreward	OutcomeDisplay				
62	596.351		loss-reward	ImageDisplay1		0.0		
62	598.591		loss-reward	StartDisplay		0.0		
62	599.344		loss-reward	ImageDisplay2		0.0		
62	602.353		loss-reward	ChoiceDisplay	3	0.444	3	3
62	602.821		loss-reward	ChosenDisplay		0.0		
62	603.957		loss-reward	TurnDisplay				
62	604.208		loss-reward	OutcomeDisplay				
63	604.96		win-noreward	ImageDisplay1		0.0		
63	606.95		win-noreward	StartDisplay		0.0		
63	607.702		win-noreward	ImageDisplay2		0.0		
63	610.962		win-noreward	ChoiceDisplay	3	0.6	3	3
63	611.58		win-noreward	ChosenDisplay		0.0		
63	612.566		win-noreward	TurnDisplay				
63	612.817		win-noreward	OutcomeDisplay				
64	613.569		loss-noreward	ImageDisplay1		0.0		
64	615.559		loss-noreward	StartDisplay		0.0		
64	616.311		loss-noreward	ImageDisplay2		0.0		
64	619.571		loss-noreward	ChoiceDisplay	3	0.577	3	3
64	620.173		loss-noreward	ChosenDisplay		0.0		
64	621.176		loss-noreward	TurnDisplay				
64	621.426		loss-noreward	OutcomeDisplay				
65	622.179		loss-noreward	ImageDisplay1		0.0		
65	624.168		loss-noreward	StartDisplay		0.0		
65	624.92		loss-noreward	ImageDisplay2		0.0		
65	628.18		loss-noreward	ChoiceDisplay	3	0.449	3	3
65	628.648		loss-noreward	ChosenDisplay		0.0		
65	629.785		loss-noreward	TurnDisplay				
65	630.035		loss-noreward	OutcomeDisplay				
66	630.788		control-noreward	ImageDisplay1		0.0		
66	632.777		control-noreward	StartDisplay		0.0		
66	633.529		control-noreward	ImageDisplay2		0.0		
66	636.789		control-noreward	ChoiceDisplay	3	0.535	3	3
66	637.34		control-noreward	ChosenDisplay		0.0		
66	638.394		control-noreward	TurnDisplay				
66	638.644		control-noreward	OutcomeDisplay				
67	639.397		win-reward	ImageDisplay1		0.0		
67	641.637		win-reward	StartDisplay		0.0		
67	642.389		win-reward	ImageDisplay2		0.0		
67	645.398		win-reward	ChoiceDisplay	3	0.358	3	3
67	645.782		win-reward	ChosenDisplay		0.0		
67	647.003		win-reward	TurnDisplay				
67	647.253		win-reward	OutcomeDisplay				
68	648.006		control-reward	ImageDisplay1		0.0		
68	650.246		control-reward	StartDisplay		0.0		
68	650.998		control-reward	ImageDisplay2		0.0		
68	654.007		control-reward	ChoiceDisplay	3	0.531	3	3
68	654.559		control-reward	ChosenDisplay		0.0		
68	655.612		control-reward	TurnDisplay				
68	655.862		control-reward	OutcomeDisplay				
69	656.615		win-noreward	ImageDisplay1		0.0		
69	658.604		win-noreward	StartDisplay		0.0		
69	659.356		win-noreward	ImageDisplay2		0.0		
69	662.616		win-noreward	ChoiceDisplay	3	0.578	3	3
69	663.218		win-noreward	ChosenDisplay		0.0		
69	664.221		win-noreward	TurnDisplay				
69	664.471		win-noreward	OutcomeDisplay				
70	665.224		control-reward	ImageDisplay1		0.0		
70	667.464		control-reward	StartDisplay		0.0		
70	668.216		control-reward	ImageDisplay2		0.0		
70	671.225		control-reward	ChoiceDisplay	3	0.521	3	3
70	671.76		control-reward	ChosenDisplay		0.0		
70	672.83		control-reward	TurnDisplay				
70	673.08		control-reward	OutcomeDisplay				
71	673.833		win-noreward	ImageDisplay1		0.0		
71	675.822		win-noreward	StartDisplay		0.0		
71	676.574		win-noreward	ImageDisplay2		0.0		
71	679.834		win-noreward	ChoiceDisplay	3	0.611	3	3
71	680.469		win-noreward	ChosenDisplay		0.0		
71	681.439		win-noreward	TurnDisplay				
71	681.69		win-noreward	OutcomeDisplay				
72	682.442		loss-reward	ImageDisplay1		0.0		
72	684.682		loss-reward	StartDisplay		0.0		
72	685.434		loss-reward	ImageDisplay2		0.0		
72	688.443		loss-reward	ChoiceDisplay	3	0.772	3	3
72	689.229		loss-reward	ChosenDisplay		0.0		
72	690.048		loss-reward	TurnDisplay				
72	690.299		loss-reward	OutcomeDisplay				
73	691.051		control-noreward	ImageDisplay1		0.0		
73	693.04		control-noreward	StartDisplay		0.0		
73	693.792		control-noreward	ImageDisplay2		0.0		
73	697.052		control-noreward	ChoiceDisplay	3	0.769	3	3
73	697.838		control-noreward	ChosenDisplay		0.0		
73	698.657		control-noreward	TurnDisplay				
73	698.908		control-noreward	OutcomeDisplay				
74	699.66		loss-noreward	ImageDisplay1		0.0		
74	701.649		loss-noreward	StartDisplay		0.0		
74	702.401		loss-noreward	ImageDisplay2		0.0		
74	705.661		loss-noreward	ChoiceDisplay	3	0.537	3	3
74	706.213		loss-noreward	ChosenDisplay		0.0		
74	707.266		loss-noreward	TurnDisplay				
74	707.517		loss-noreward	OutcomeDisplay				
75	708.269		loss-reward	ImageDisplay1		0.0		
75	710.509		loss-reward	StartDisplay		0.0		
75	711.261		loss-reward	ImageDisplay2		0.0		
75	714.27		loss-reward	ChoiceDisplay	3	0.423	3	3
75	714.705		loss-reward	ChosenDisplay		0.0		
75	715.875		loss-reward	TurnDisplay				
75	716.126		loss-reward	OutcomeDisplay				
76	716.878		control-reward	ImageDisplay1		0.0		
76	719.118		control-reward	StartDisplay		0.0		
76	719.87		control-reward	ImageDisplay2		0.0		
76	722.879		control-reward	ChoiceDisplay	3	0.455	3	3
76	723.347		control-reward	ChosenDisplay		0.0		
76	724.484		control-reward	TurnDisplay				
76	724.735		control-reward	OutcomeDisplay				
77	725.487		win-reward	ImageDisplay1		0.0		
77	727.727		win-reward	StartDisplay		0.0		
77	728.479		win-reward	ImageDisplay2		0.0		
77	731.488		win-reward	ChoiceDisplay	3	0.436	3	3
77	731.94		win-reward	ChosenDisplay		0.0		
77	733.093		win-reward	TurnDisplay				
77	733.344		win-reward	OutcomeDisplay				
78	734.096		win-noreward	ImageDisplay1		0.0		
78	736.085		win-noreward	StartDisplay		0.0		
78	736.837		win-noreward	ImageDisplay2		0.0		
78	740.097		win-noreward	ChoiceDisplay	3	0.417	3	3
78	740.532		win-noreward	ChosenDisplay		0.0		
78	741.702		win-noreward	TurnDisplay				
78	741.953		win-noreward	OutcomeDisplay				
79	742.705		win-reward	ImageDisplay1		0.0		
79	744.945		win-reward	StartDisplay		0.0		
79	745.697		win-reward	ImageDisplay2		0.0		
79	748.706		win-reward	ChoiceDisplay	3	0.269	3	3
79	748.99		win-reward	ChosenDisplay		0.0		
79	750.311		win-reward	TurnDisplay				
79	750.562		win-reward	OutcomeDisplay				
80	751.314		win-reward	ImageDisplay1		0.0		
80	753.554		win-reward	StartDisplay		0.0		
80	754.306		win-reward	ImageDisplay2		0.0		
80	757.315		win-reward	ChoiceDisplay	3	0.462	3	3
80	757.8		win-reward	ChosenDisplay		0.0		
80	758.92		win-reward	TurnDisplay				
80	759.171		win-reward	OutcomeDisplay				
81	759.923		control-reward	ImageDisplay1		0.0		
81	762.163		control-reward	StartDisplay		0.0		
81	762.915		control-reward	ImageDisplay2		0.0		
81	765.924		control-reward	ChoiceDisplay	3	0.571	3	3
81	766.509		control-reward	ChosenDisplay		0.0		
81	767.529		control-reward	TurnDisplay				
81	767.78		control-reward	OutcomeDisplay				
82	768.532		loss-reward	ImageDisplay1		0.0		
82	770.772		loss-reward	StartDisplay		0.0		
82	771.524		loss-reward	ImageDisplay2		0.0		
82	774.533		loss-reward	ChoiceDisplay	3	0.596	3	3
82	775.152		loss-reward	ChosenDisplay		0.0		
82	776.138		loss-reward	TurnDisplay				
82	776.389		loss-reward	OutcomeDisplay				
83	777.141		control-noreward	ImageDisplay1		0.0		
83	779.13		control-noreward	StartDisplay		0.0		
83	779.883		control-noreward	ImageDisplay2		0.0		
83	783.142		control-noreward	ChoiceDisplay	3	0.345	3	3
83	783.51		control-noreward	ChosenDisplay		0.0		
83	784.747		control-noreward	TurnDisplay				
83	784.998		control-noreward	OutcomeDisplay				
84	785.75		win-reward	ImageDisplay1		0.0		
84	787.99		win-reward	StartDisplay		0.0		
84	788.742		win-reward	ImageDisplay2		0.0		
84	791.751		win-reward	ChoiceDisplay	3	0.742	3	3
84	792.504		win-reward	ChosenDisplay		0.0		
84	793.356		win-reward	TurnDisplay				
84	793.607		win-reward	OutcomeDisplay				
85	794.359		loss-noreward	ImageDisplay1		0.0		
85	796.349		loss-noreward	StartDisplay		0.0		
85	797.101		loss-noreward	ImageDisplay2		0.0		
85	800.36		loss-noreward	ChoiceDisplay	3	0.774	3	3
85	801.146		loss-noreward	ChosenDisplay		0.0		
85	801.965		loss-noreward	TurnDisplay				
85	802.216		loss-noreward	OutcomeDisplay				
86	802.968		win-reward	ImageDisplay1		0.0		
86	805.208		win-reward	StartDisplay		0.0		
86	805.961		win-reward	ImageDisplay2		0.0		
86	808.97		win-reward	ChoiceDisplay	3	0.584	3	3
86	809.571		win-reward	ChosenDisplay		0.0		
86	810.574		win-reward	TurnDisplay				
86	810.825		win-reward	OutcomeDisplay				
87	811.577		control-noreward	ImageDisplay1		0.0		
87	813.567		control-noreward	StartDisplay		0.0		
87	814.319		control-noreward	ImageDisplay2		0.0		
87	817.579		control-noreward	ChoiceDisplay	3	0.829	3	3
87	818.431		control-noreward	ChosenDisplay		0.0		
87	819.183		control-noreward	TurnDisplay				
87	819.434		control-noreward	OutcomeDisplay				
88	820.186		win-noreward	ImageDisplay1		0.0		
88	822.176		win-noreward	StartDisplay		0.0		
88	822.928		win-noreward	ImageDisplay2		0.0		
88	826.188		win-noreward	ChoiceDisplay	3	0.704	3	3
88	826.906		win-noreward	ChosenDisplay		0.0		
88	827.792		win-noreward	TurnDisplay				
88	828.043		win-noreward	OutcomeDisplay				
89	828.795		loss-noreward	ImageDisplay1		0.0		
89	830.785		loss-noreward	StartDisplay		0.0		
89	831.537		loss-noreward	ImageDisplay2		0.0		
89	834.797		loss-noreward	ChoiceDisplay	3	0.488	3	3
89	835.298		loss-noreward	ChosenDisplay		0.0		
89	836.401		loss-noreward	TurnDisplay				
89	836.652		loss-noreward	OutcomeDisplay				
90	837.404		loss-noreward	ImageDisplay1		0.0		
90	839.394		loss-noreward	StartDisplay		0.0		
90	840.146		loss-noreward	ImageDisplay2		0.0		
90	843.406		loss-noreward	ChoiceDisplay	3	0.321	3	3
90	843.74		loss-noreward	ChosenDisplay		0.0		
90	845.01		loss-noreward	TurnDisplay				
90	845.261		loss-noreward	OutcomeDisplay				
91	846.013		loss-reward	ImageDisplay1		0.0		
91	848.253		loss-reward	StartDisplay		0.0		
91	849.006		loss-reward	ImageDisplay2		0.0		
91	852.015		loss-reward	ChoiceDisplay	3	0.62	3	3
91	852.65		loss-reward	ChosenDisplay		0.0		
91	853.62		loss-reward	TurnDisplay				
91	853.87		loss-reward	OutcomeDisplay				
92	854.623		control-noreward	ImageDisplay1		0.0		
92	856.612		control-noreward	StartDisplay		0.0		
92	857.364		control-noreward	ImageDisplay2		0.0		
92	860.624		control-noreward	ChoiceDisplay	3	0.659	3	3
92	861.309		control-noreward	ChosenDisplay		0.0		
92	862.229		control-noreward	TurnDisplay				
92	862.479		control-noreward	OutcomeDisplay				
93	863.232		win-reward	ImageDisplay1		0.0		
93	865.472		win-reward	StartDisplay		0.0		
93	866.224		win-reward	ImageDisplay2		0.0		
93	869.233		win-reward	ChoiceDisplay	3	0.62	3	3
93	869.868		win-reward	ChosenDisplay		0.0		
93	870.838		win-reward	TurnDisplay				
93	871.088		win-reward	OutcomeDisplay				
94	871.841		control-noreward	ImageDisplay1		0.0		
94	873.83		control-noreward	StartDisplay		0.0		
94	874.582		control-noreward	ImageDisplay2		0.0		
94	877.842		control-noreward	ChoiceDisplay	3	0.802	3	3
94	878.661		control-noreward	ChosenDisplay		0.0		
94	879.447		control-noreward	TurnDisplay				
94	879.697		control-noreward	OutcomeDisplay				
95	880.45		loss-reward	ImageDisplay1		0.0		
95	882.69		loss-reward	StartDisplay		0.0		
95	883.442		loss-reward	ImageDisplay2		0.0		
95	886.451		loss-reward	ChoiceDisplay	3	0.555	3	3
95	887.019		loss-reward	ChosenDisplay		0.0		
95	888.056		loss-reward	TurnDisplay				
95	888.306		loss-reward	OutcomeDisplay				
