onset	duration	trial_type	response_time	stim_file	accuracy
0.5249999999999986	1.0	go	0.644	Go_O	1.0
3.0489999999999995	1.0	go	0.732	Go_X	1.0
5.573	1.0	go	0.755	Go_X	1.0
8.097999999999999	1.0	go	0.819	Go_O	1.0
10.622	1.0	go	0.702	Go_X	1.0
13.146	1.0	go	0.722	Go_O	1.0
15.669999999999995	0.25	stopsuccess	0.0	Go_O	1.0
18.193999999999996	1.0	go	0.512	Go_O	1.0
20.718999999999994	0.3	stopsuccess	0.0	Go_X	1.0
23.243000000000002	1.0	go	0.508	Go_X	1.0
25.767000000000003	1.0	go	0.557	Go_O	1.0
28.291000000000004	1.0	go	0.49	Go_X	1.0
30.81499999999999	0.35	stopsuccess	0.0	Go_O	1.0
33.339999999999996	1.0	go	0.592	Go_O	1.0
35.864	1.0	go	0.58	Go_X	1.0
38.388	0.4	stopsuccess	0.0	Go_X	1.0
40.912	0.45	stopfail	0.464	Go_O	0.0
43.436	1.0	go	0.604	Go_X	1.0
45.96	1.0	go	0.601	Go_O	1.0
48.48499999999999	0.4	stopsuccess	0.0	Go_X	1.0
51.00899999999999	1.0	go	0.403	Go_O	1.0
53.532999999999994	1.0	go	0.395	Go_X	1.0
56.056999999999995	0.45	stopfail	0.301	Go_O	0.0
58.580999999999996	1.0	go	0.584	Go_O	1.0
61.106	1.0	go	0.429	Go_X	1.0
63.63	0.4	stopsuccess	0.0	Go_X	1.0
66.154	1.0	go	0.706	Go_O	1.0
68.678	1.0	go	0.575	Go_X	1.0
71.202	0.45	stopfail	0.536	Go_O	0.0
73.727	1.0	go	0.435	Go_X	1.0
76.251	1.0	go	0.588	Go_O	1.0
78.775	1.0	go	0.747	Go_X	1.0
81.299	1.0	go	0.718	Go_O	1.0
83.82300000000001	1.0	go	0.627	Go_X	1.0
86.34799999999998	0.4	stopfail	0.538	Go_X	0.0
88.87199999999999	1.0	go	0.629	Go_O	1.0
91.39599999999999	1.0	go	0.729	Go_X	1.0
93.91999999999999	1.0	go	0.745	Go_O	1.0
96.44399999999999	1.0	go	0.764	Go_O	1.0
98.969	1.0	go	0.835	Go_X	1.0
101.493	0.35	stopsuccess	0.0	Go_O	1.0
104.017	1.0	go	0.795	Go_X	1.0
106.541	1.0	go	0.0	Go_O	0.0
109.065	1.0	go	0.378	Go_X	1.0
111.589	1.0	go	0.662	Go_O	1.0
114.114	1.0	go	0.437	Go_O	1.0
116.63799999999998	1.0	go	0.356	Go_X	1.0
119.16199999999998	0.4	stopfail	0.393	Go_X	0.0
121.68599999999998	1.0	go	0.751	Go_O	0.0
124.20999999999998	1.0	go	0.54	Go_X	1.0
126.73499999999999	0.35	stopfail	0.322	Go_O	0.0
129.259	1.0	go	0.568	Go_X	1.0
131.783	0.3	stopsuccess	0.0	Go_X	1.0
134.307	0.35	stopfail	0.441	Go_O	0.0
136.831	1.0	go	0.614	Go_O	1.0
139.356	1.0	go	0.566	Go_O	1.0
141.88	1.0	go	0.628	Go_X	1.0
144.404	1.0	go	0.914	Go_O	1.0
146.928	0.3	stopsuccess	0.0	Go_X	1.0
149.452	1.0	go	0.59	Go_X	1.0
151.977	0.35	stopsuccess	0.0	Go_O	1.0
154.50099999999998	1.0	go	0.677	Go_X	1.0
157.02499999999998	1.0	go	0.622	Go_O	1.0
159.54899999999998	1.0	go	0.666	Go_O	1.0
162.07299999999998	1.0	go	0.285	Go_X	1.0
164.59799999999998	1.0	go	0.733	Go_O	1.0
167.12199999999999	1.0	go	0.533	Go_X	1.0
169.646	1.0	go	0.573	Go_O	1.0
172.17	1.0	go	0.605	Go_X	1.0
174.694	1.0	go	0.765	Go_O	1.0
177.218	0.4	stopfail	0.465	Go_X	0.0
179.743	1.0	go	0.574	Go_X	1.0
182.267	1.0	go	0.918	Go_O	1.0
184.791	1.0	go	0.493	Go_X	1.0
187.315	0.35	stopsuccess	0.0	Go_O	1.0
189.839	1.0	go	0.603	Go_X	1.0
192.364	1.0	go	0.591	Go_O	1.0
194.88799999999998	1.0	go	0.87	Go_O	1.0
197.41199999999998	1.0	go	0.478	Go_X	1.0
199.93599999999998	1.0	go	0.576	Go_X	1.0
202.45999999999998	1.0	go	0.467	Go_O	1.0
204.98499999999999	0.4	stopfail	0.306	Go_X	0.0
207.509	1.0	go	0.383	Go_O	0.0
210.033	1.0	go	0.464	Go_X	1.0
212.557	0.35	stopfail	0.456	Go_O	0.0
215.081	1.0	go	0.347	Go_O	1.0
217.60599999999997	1.0	go	0.41	Go_X	1.0
220.12999999999997	0.3	stopsuccess	0.0	Go_X	1.0
222.65399999999997	1.0	go	0.412	Go_O	1.0
225.17799999999997	0.35	stopfail	0.397	Go_O	0.0
227.70199999999997	1.0	go	0.518	Go_X	1.0
230.227	1.0	go	0.426	Go_O	1.0
232.751	1.0	go	0.27	Go_X	1.0
235.275	1.0	go	0.32	Go_O	1.0
237.799	1.0	go	0.245	Go_X	1.0
240.323	0.3	stopfail	0.346	Go_X	0.0
242.847	0.25	stopfail	0.338	Go_O	0.0
245.37199999999999	1.0	go	0.403	Go_O	1.0
247.896	1.0	go	0.339	Go_X	1.0
250.42	0.2	stopfail	0.336	Go_X	0.0
252.944	1.0	go	0.602	Go_O	1.0
255.468	1.0	go	0.279	Go_X	1.0
257.993	1.0	go	0.4	Go_X	1.0
260.517	1.0	go	0.532	Go_O	1.0
263.041	1.0	go	0.296	Go_X	1.0
265.565	1.0	go	0.609	Go_O	1.0
268.089	0.15	stopsuccess	0.0	Go_O	1.0
270.61400000000003	1.0	go	0.573	Go_O	1.0
273.13800000000003	1.0	go	0.512	Go_X	1.0
275.66200000000003	1.0	go	0.357	Go_X	1.0
278.18600000000004	1.0	go	0.343	Go_O	1.0
280.71000000000004	1.0	go	0.424	Go_O	1.0
283.235	0.2	stopsuccess	0.0	Go_X	1.0
285.759	1.0	go	0.448	Go_X	1.0
288.283	1.0	go	0.345	Go_X	1.0
290.807	1.0	go	0.648	Go_O	1.0
293.331	1.0	go	0.398	Go_X	1.0
295.856	0.25	stopsuccess	0.0	Go_O	1.0
298.38	1.0	go	0.724	Go_O	1.0
300.904	1.0	go	0.716	Go_O	1.0
303.428	0.3	stopsuccess	0.0	Go_X	1.0
305.952	1.0	go	0.892	Go_X	1.0
308.476	0.35	stopfail	0.333	Go_O	0.0
311.00100000000003	1.0	go	0.342	Go_X	1.0
313.52500000000003	1.0	go	0.548	Go_O	1.0
316.04900000000004	1.0	go	0.458	Go_X	1.0
318.57300000000004	1.0	go	0.733	Go_O	1.0
321.09700000000004	1.0	go	0.336	Go_X	1.0
323.622	1.0	go	0.55	Go_O	1.0
326.146	1.0	go	0.467	Go_O	1.0
328.67	0.3	stopsuccess	0.0	Go_X	1.0
331.194	1.0	go	0.416	Go_X	1.0
333.718	1.0	go	0.643	Go_O	1.0
336.243	1.0	go	0.37	Go_X	1.0
338.767	0.35	stopfail	0.431	Go_O	0.0
341.291	1.0	go	0.386	Go_X	1.0
343.815	1.0	go	0.601	Go_O	1.0
346.339	1.0	go	0.741	Go_O	1.0
348.86400000000003	1.0	go	0.441	Go_X	1.0
351.38800000000003	0.3	stopfail	0.462	Go_X	0.0
353.91200000000003	1.0	go	0.493	Go_X	1.0
356.43600000000004	1.0	go	0.672	Go_O	1.0
358.96000000000004	0.25	stopfail	0.44	Go_O	0.0
361.485	1.0	go	0.62	Go_O	1.0
364.009	1.0	go	0.451	Go_X	1.0
366.533	0.2	stopsuccess	0.0	Go_X	1.0
369.057	1.0	go	0.372	Go_X	1.0
371.581	1.0	go	0.359	Go_O	1.0
374.105	0.25	stopsuccess	0.0	Go_O	1.0
376.63	1.0	go	0.363	Go_O	1.0
379.154	1.0	go	0.471	Go_X	1.0
381.678	1.0	go	0.372	Go_X	1.0
384.202	1.0	go	0.365	Go_O	1.0
386.726	1.0	go	0.366	Go_X	1.0
389.25100000000003	1.0	go	0.083	Go_O	0.0
391.77500000000003	0.3	stopfail	0.279	Go_X	0.0
394.29900000000004	1.0	go	0.589	Go_X	1.0
396.82300000000004	0.25	stopfail	0.432	Go_O	0.0
399.34700000000004	1.0	go	0.477	Go_O	1.0
401.872	1.0	go	0.584	Go_O	1.0
404.396	1.0	go	0.0	Go_X	0.0
406.92	1.0	go	0.415	Go_O	1.0
409.444	1.0	go	0.303	Go_X	1.0
411.968	0.2	stopfail	0.324	Go_X	0.0
414.493	1.0	go	0.58	Go_O	1.0
417.017	1.0	go	0.272	Go_X	1.0
419.541	1.0	go	0.454	Go_O	1.0
422.065	0.15	stopsuccess	0.0	Go_O	1.0
424.589	0.2	stopsuccess	0.0	Go_X	1.0
427.11400000000003	0.25	stopfail	0.47	Go_O	0.0
429.63800000000003	1.0	go	0.404	Go_X	1.0
432.16200000000003	0.2	stopfail	0.397	Go_X	0.0
434.68600000000004	1.0	go	0.427	Go_X	1.0
437.21000000000004	1.0	go	0.41	Go_O	1.0
439.73400000000004	1.0	go	0.46	Go_O	1.0
442.259	1.0	go	0.395	Go_X	1.0
444.783	1.0	go	0.386	Go_X	1.0
447.307	1.0	go	0.505	Go_O	1.0
449.831	1.0	go	0.434	Go_O	1.0
452.355	1.0	go	0.393	Go_X	1.0
454.88	0.15	stopsuccess	0.0	Go_O	1.0
457.404	1.0	go	0.541	Go_O	1.0
459.928	1.0	go	0.796	Go_X	1.0
462.452	0.2	stopsuccess	0.0	Go_X	1.0
464.976	1.0	go	0.439	Go_O	1.0
467.50100000000003	1.0	go	0.397	Go_X	1.0
470.02500000000003	1.0	go	0.343	Go_X	1.0
472.54900000000004	1.0	go	0.599	Go_O	1.0
475.07300000000004	1.0	go	0.357	Go_X	1.0
477.59700000000004	0.25	stopsuccess	0.0	Go_O	1.0
480.122	1.0	go	0.375	Go_O	0.0
482.646	1.0	go	0.483	Go_O	1.0
485.17	1.0	go	0.385	Go_X	1.0
487.694	0.3	stopsuccess	0.0	Go_X	1.0
490.218	1.0	go	0.856	Go_X	1.0
492.743	0.35	stopfail	0.391	Go_O	0.0
495.267	1.0	go	0.507	Go_O	1.0
497.791	1.0	go	0.497	Go_O	1.0
500.315	1.0	go	0.5	Go_X	1.0
502.839	1.0	go	0.908	Go_O	1.0
505.364	1.0	go	0.415	Go_X	1.0
507.888	1.0	go	0.418	Go_X	0.0
510.412	1.0	go	0.422	Go_O	1.0
512.9359999999999	0.3	stopfail	0.382	Go_X	0.0
515.4599999999999	1.0	go	0.311	Go_X	1.0
517.9839999999999	1.0	go	0.521	Go_O	1.0
520.509	1.0	go	0.268	Go_X	1.0
523.033	1.0	go	0.416	Go_O	1.0
525.557	0.25	stopsuccess	0.0	Go_O	1.0
528.081	1.0	go	0.461	Go_X	1.0
530.605	0.3	stopsuccess	0.0	Go_X	1.0
533.13	1.0	go	0.981	Go_O	1.0
535.654	1.0	go	0.287	Go_O	0.0
538.178	0.35	stopfail	0.386	Go_O	0.0
540.702	1.0	go	0.436	Go_X	1.0
543.226	1.0	go	0.582	Go_O	1.0
545.751	1.0	go	0.643	Go_X	1.0
548.275	1.0	go	0.446	Go_X	1.0
550.799	1.0	go	0.371	Go_O	1.0
553.323	1.0	go	0.509	Go_O	1.0
555.847	1.0	go	0.816	Go_X	1.0
558.372	1.0	go	0.566	Go_O	1.0
560.896	1.0	go	0.495	Go_X	1.0
563.42	1.0	go	0.576	Go_O	1.0
565.944	0.3	stopfail	0.472	Go_X	0.0
568.468	1.0	go	0.455	Go_X	1.0
570.992	1.0	go	0.479	Go_O	1.0
573.5169999999999	0.25	stopfail	0.399	Go_O	0.0
576.0409999999999	1.0	go	0.378	Go_X	1.0
578.5649999999999	0.2	stopfail	0.348	Go_X	0.0
581.0889999999999	1.0	go	0.454	Go_O	1.0
583.6129999999999	1.0	go	0.406	Go_X	0.0
586.1379999999999	0.15	stopsuccess	0.0	Go_O	1.0
588.6619999999999	1.0	go	0.441	Go_O	1.0
591.1859999999999	0.2	stopsuccess	0.0	Go_X	1.0
593.7099999999999	1.0	go	0.457	Go_X	1.0
596.2339999999999	1.0	go	0.837	Go_O	1.0
598.759	1.0	go	0.461	Go_X	1.0
601.283	0.25	stopsuccess	0.0	Go_O	1.0
603.807	1.0	go	0.391	Go_X	1.0
606.331	1.0	go	0.468	Go_O	1.0
608.855	1.0	go	0.488	Go_O	1.0
611.38	1.0	go	0.586	Go_X	1.0
613.904	0.3	stopsuccess	0.0	Go_X	1.0
616.428	1.0	go	0.409	Go_O	1.0
618.952	1.0	go	0.592	Go_X	1.0
621.476	0.35	stopsuccess	0.0	Go_O	1.0
624.001	1.0	go	0.35	Go_X	1.0
626.525	1.0	go	0.654	Go_O	1.0
629.049	1.0	go	0.588	Go_X	1.0
631.573	1.0	go	0.559	Go_O	1.0
634.097	0.4	stopfail	0.454	Go_X	0.0
636.621	1.0	go	0.426	Go_O	1.0
639.146	0.35	stopfail	0.434	Go_O	0.0
641.67	1.0	go	0.9	Go_X	1.0
644.194	1.0	go	0.265	Go_X	1.0
646.718	0.3	stopfail	0.373	Go_X	0.0
649.242	1.0	go	0.388	Go_O	1.0
651.7669999999999	1.0	go	0.401	Go_O	1.0
654.2909999999999	1.0	go	0.481	Go_X	1.0
656.8149999999999	1.0	go	0.461	Go_X	1.0
659.3389999999999	0.25	stopsuccess	0.0	Go_O	1.0
661.8629999999999	1.0	go	0.367	Go_O	1.0
664.3879999999999	0.3	stopfail	0.444	Go_X	0.0
666.9119999999999	1.0	go	0.32	Go_X	1.0
669.4359999999999	1.0	go	0.425	Go_O	1.0
671.9599999999999	1.0	go	0.339	Go_O	1.0
674.4839999999999	1.0	go	0.476	Go_X	1.0
677.009	1.0	go	0.731	Go_O	1.0
679.533	1.0	go	0.45	Go_X	1.0
682.057	0.25	stopsuccess	0.0	Go_O	1.0
684.581	1.0	go	0.412	Go_X	1.0
687.105	1.0	go	0.612	Go_O	1.0
689.63	0.3	stopfail	0.436	Go_X	0.0
692.154	1.0	go	0.398	Go_X	1.0
694.678	1.0	go	0.51	Go_O	1.0
697.202	0.25	stopsuccess	0.0	Go_O	1.0
699.726	1.0	go	0.61	Go_X	1.0
702.25	1.0	go	0.539	Go_O	1.0
704.775	1.0	go	0.589	Go_O	1.0
707.299	1.0	go	0.482	Go_X	1.0
709.823	0.3	stopfail	0.373	Go_X	0.0
712.347	1.0	go	0.551	Go_O	1.0
714.871	0.25	stopsuccess	0.0	Go_O	1.0
717.396	1.0	go	0.356	Go_X	1.0
719.92	1.0	go	0.553	Go_O	1.0
722.444	1.0	go	0.331	Go_X	1.0
724.968	1.0	go	0.528	Go_O	1.0
727.492	1.0	go	0.0	Go_X	0.0
730.0169999999999	0.3	stopfail	0.424	Go_X	0.0
732.5409999999999	1.0	go	0.448	Go_O	1.0
735.0649999999999	1.0	go	0.467	Go_X	1.0
737.5889999999999	0.25	stopsuccess	0.0	Go_O	1.0
740.1129999999999	0.3	stopfail	0.454	Go_X	0.0
742.6379999999999	1.0	go	0.556	Go_O	1.0
745.1619999999999	1.0	go	0.56	Go_X	1.0
747.6859999999999	1.0	go	0.48	Go_X	1.0
750.2099999999999	1.0	go	0.636	Go_O	1.0
752.7339999999999	0.25	stopsuccess	0.0	Go_O	1.0
755.259	1.0	go	0.678	Go_O	1.0
