onset	duration	trial_type	response_time	stim_file	accuracy
68.189	1.0	go	0.485	Go_O	0.0
70.722	1.0	go	0.251	Go_X	0.0
73.255	1.0	go	0.204	Go_X	1.0
75.789	1.0	go	0.258	Go_O	0.0
78.322	1.0	go	0.252	Go_X	0.0
80.855	1.0	go	0.259	Go_O	0.0
83.389	0.25	stop	0.35	Go_O	0.0
85.938	1.0	go	0.442	Go_O	0.0
88.472	0.2	stop	0.217	Go_X	0.0
91.005	1.0	go	0.268	Go_X	1.0
93.538	1.0	go	0.232	Go_O	0.0
96.072	1.0	go	0.335	Go_X	0.0
98.621	0.15	stop	0.291	Go_O	0.0
101.155	1.0	go	0.448	Go_O	0.0
103.688	1.0	go	0.265	Go_X	0.0
106.221	0.1	stop	0.0	Go_X	1.0
108.754	0.15	stop	0.354	Go_O	0.0
111.288	1.0	go	0.478	Go_O	0.0
113.821	1.0	go	0.54	Go_X	0.0
116.354	0.1	stop	0.0	Go_X	1.0
118.888	1.0	go	0.429	Go_X	0.0
121.437	1.0	go	0.333	Go_O	0.0
123.971	0.15	stop	0.307	Go_O	0.0
126.504	1.0	go	0.458	Go_X	0.0
129.037	1.0	go	0.328	Go_O	0.0
131.571	0.1	stop	0.266	Go_X	0.0
134.12	1.0	go	0.415	Go_X	0.0
136.654	1.0	go	0.281	Go_O	0.0
139.187	0.05	stop	0.0	Go_O	1.0
141.72	1.0	go	0.366	Go_X	0.0
144.254	1.0	go	0.42	Go_O	0.0
146.803	1.0	go	0.452	Go_O	0.0
149.337	1.0	go	0.484	Go_X	0.0
151.87	1.0	go	0.338	Go_O	0.0
154.403	0.1	stop	0.0	Go_X	1.0
156.936	1.0	go	0.491	Go_X	0.0
159.47	1.0	go	0.363	Go_O	0.0
162.003	1.0	go	0.539	Go_X	0.0
164.536	1.0	go	0.368	Go_O	0.0
167.07	1.0	go	0.31	Go_X	0.0
169.619	0.15	stop	0.284	Go_O	0.0
172.153	1.0	go	0.429	Go_X	0.0
174.686	1.0	go	0.342	Go_O	0.0
177.219	1.0	go	0.309	Go_X	0.0
179.753	1.0	go	0.498	Go_O	0.0
182.302	1.0	go	0.492	Go_O	0.0
184.836	1.0	go	0.34	Go_X	1.0
187.369	0.1	stop	0.0	Go_X	1.0
189.902	1.0	go	0.415	Go_X	0.0
192.436	1.0	go	0.416	Go_O	0.0
194.985	0.15	stop	0.435	Go_O	0.0
197.519	1.0	go	0.461	Go_X	0.0
200.052	0.1	stop	0.0	Go_X	1.0
202.585	0.15	stop	0.369	Go_O	0.0
205.119	1.0	go	0.506	Go_O	0.0
207.668	1.0	go	0.413	Go_X	0.0
210.202	1.0	go	0.378	Go_O	0.0
212.735	1.0	go	0.312	Go_X	0.0
215.268	0.1	stop	0.0	Go_X	1.0
217.801	1.0	go	0.261	Go_O	0.0
220.335	0.15	stop	0.0	Go_O	1.0
222.868	1.0	go	0.413	Go_O	0.0
225.401	1.0	go	0.362	Go_X	0.0
227.935	1.0	go	0.396	Go_O	0.0
230.484	1.0	go	0.294	Go_X	0.0
233.018	1.0	go	0.271	Go_O	0.0
235.551	1.0	go	0.322	Go_X	0.0
238.084	1.0	go	0.564	Go_X	0.0
240.618	1.0	go	0.479	Go_O	0.0
243.167	1.0	go	0.315	Go_O	0.0
245.701	0.2	stop	0.417	Go_X	0.0
248.234	1.0	go	0.521	Go_X	0.0
250.767	1.0	go	0.475	Go_O	0.0
253.301	1.0	go	0.355	Go_X	0.0
255.85	0.15	stop	0.265	Go_O	0.0
258.384	1.0	go	0.301	Go_X	0.0
260.917	1.0	go	0.306	Go_O	0.0
263.45	1.0	go	0.188	Go_X	0.0
265.983	1.0	go	0.404	Go_O	0.0
268.517	1.0	go	0.429	Go_O	0.0
271.05	1.0	go	0.365	Go_X	0.0
273.583	0.1	stop	0.0	Go_X	1.0
276.117	1.0	go	0.417	Go_X	0.0
278.666	1.0	go	0.393	Go_O	0.0
281.2	0.15	stop	0.0	Go_O	1.0
283.733	1.0	go	0.491	Go_O	0.0
286.266	1.0	go	0.531	Go_X	0.0
288.8	0.2	stop	0.481	Go_X	0.0
291.349	1.0	go	0.485	Go_X	0.0
293.883	0.15	stop	0.0	Go_O	1.0
296.416	1.0	go	0.502	Go_O	0.0
298.949	1.0	go	0.509	Go_X	0.0
301.483	1.0	go	0.696	Go_O	0.0
304.032	1.0	go	0.609	Go_O	0.0
306.566	1.0	go	0.43	Go_X	0.0
309.099	0.2	stop	0.0	Go_X	1.0
311.632	0.25	stop	0.0	Go_O	1.0
314.165	1.0	go	0.572	Go_O	0.0
316.699	1.0	go	0.439	Go_X	0.0
319.232	0.3	stop	0.0	Go_X	1.0
321.765	1.0	go	0.476	Go_X	0.0
324.299	1.0	go	0.55	Go_O	0.0
326.848	1.0	go	0.493	Go_O	0.0
329.382	1.0	go	0.525	Go_X	0.0
331.915	1.0	go	0.472	Go_O	0.0
334.448	1.0	go	0.399	Go_X	0.0
336.982	0.35	stop	0.462	Go_O	0.0
339.531	1.0	go	0.537	Go_X	0.0
342.065	1.0	go	0.548	Go_O	0.0
344.598	1.0	go	0.552	Go_X	0.0
347.131	1.0	go	0.558	Go_O	0.0
349.665	1.0	go	0.54	Go_O	0.0
352.214	0.3	stop	0.0	Go_X	1.0
354.748	1.0	go	0.548	Go_X	0.0
357.281	1.0	go	0.649	Go_O	0.0
359.814	1.0	go	0.466	Go_X	0.0
362.348	1.0	go	0.514	Go_O	0.0
364.897	0.35	stop	0.517	Go_O	0.0
367.431	1.0	go	0.372	Go_X	0.0
369.964	1.0	go	0.542	Go_X	0.0
372.497	0.3	stop	0.0	Go_X	1.0
375.03	1.0	go	0.393	Go_O	0.0
377.564	0.35	stop	0.496	Go_O	0.0
380.097	1.0	go	0.421	Go_O	0.0
382.63	1.0	go	0.495	Go_X	0.0
385.164	1.0	go	0.408	Go_O	0.0
387.713	1.0	go	0.338	Go_X	0.0
390.247	1.0	go	0.55	Go_X	0.0
392.78	1.0	go	0.388	Go_O	0.0
395.313	1.0	go	0.261	Go_X	0.0
397.847	0.3	stop	0.436	Go_X	0.0
400.396	1.0	go	0.385	Go_O	0.0
402.93	1.0	go	0.299	Go_X	0.0
405.463	1.0	go	0.419	Go_O	0.0
407.996	0.25	stop	0.0	Go_O	1.0
410.53	1.0	go	0.478	Go_O	0.0
413.079	1.0	go	0.391	Go_X	0.0
415.613	1.0	go	0.449	Go_O	0.0
418.146	1.0	go	0.302	Go_X	0.0
420.679	0.3	stop	0.339	Go_X	0.0
423.212	1.0	go	0.444	Go_X	0.0
425.746	1.0	go	0.405	Go_O	0.0
428.279	0.25	stop	0.0	Go_O	1.0
430.812	1.0	go	0.416	Go_X	0.0
433.346	1.0	go	0.581	Go_O	0.0
435.895	0.3	stop	0.0	Go_X	1.0
438.429	1.0	go	0.443	Go_X	0.0
440.962	1.0	go	0.742	Go_O	0.0
443.495	0.35	stop	0.347	Go_O	0.0
446.029	1.0	go	0.511	Go_X	0.0
448.578	1.0	go	0.357	Go_O	0.0
451.112	1.0	go	0.406	Go_X	0.0
453.645	1.0	go	0.396	Go_O	0.0
456.178	1.0	go	0.393	Go_X	0.0
458.712	1.0	go	0.524	Go_O	0.0
461.261	0.3	stop	0.42	Go_X	0.0
463.795	1.0	go	0.433	Go_X	0.0
466.328	0.25	stop	0.0	Go_O	1.0
468.861	1.0	go	0.469	Go_O	0.0
471.395	1.0	go	0.452	Go_X	0.0
473.944	1.0	go	0.429	Go_O	0.0
476.478	1.0	go	0.642	Go_X	0.0
479.011	1.0	go	0.493	Go_O	0.0
481.544	0.3	stop	0.397	Go_X	0.0
484.077	1.0	go	0.45	Go_X	0.0
486.611	1.0	go	0.567	Go_O	0.0
489.144	1.0	go	0.545	Go_X	0.0
491.677	0.25	stop	0.0	Go_O	1.0
494.211	0.3	stop	0.546	Go_X	0.0
496.76	0.25	stop	0.0	Go_O	1.0
499.294	1.0	go	0.57	Go_O	0.0
501.827	0.3	stop	0.0	Go_X	1.0
504.36	1.0	go	0.463	Go_X	0.0
506.894	1.0	go	0.446	Go_O	0.0
509.443	1.0	go	0.455	Go_X	0.0
511.977	1.0	go	0.616	Go_O	0.0
514.51	1.0	go	0.589	Go_O	0.0
517.043	1.0	go	0.485	Go_X	0.0
519.576	1.0	go	0.665	Go_O	0.0
522.11	1.0	go	0.421	Go_X	0.0
524.643	0.35	stop	0.436	Go_O	0.0
527.176	1.0	go	0.3	Go_X	0.0
529.71	1.0	go	0.46	Go_O	0.0
532.259	0.3	stop	0.462	Go_X	0.0
534.793	1.0	go	0.51	Go_X	0.0
537.326	1.0	go	0.444	Go_O	0.0
539.859	1.0	go	0.325	Go_X	0.0
542.393	1.0	go	0.326	Go_O	0.0
544.942	1.0	go	0.275	Go_O	1.0
547.476	0.25	stop	0.448	Go_O	0.0
550.009	1.0	go	0.361	Go_X	0.0
552.542	1.0	go	0.254	Go_O	0.0
555.076	1.0	go	0.941	Go_X	0.0
557.625	0.2	stop	0.0	Go_X	1.0
560.159	1.0	go	0.451	Go_O	0.0
562.692	0.25	stop	0.0	Go_O	1.0
565.225	1.0	go	0.44	Go_X	0.0
567.759	1.0	go	0.469	Go_O	0.0
570.308	1.0	go	0.788	Go_X	0.0
572.842	1.0	go	0.32	Go_X	1.0
575.375	1.0	go	0.361	Go_O	0.0
577.908	1.0	go	0.443	Go_O	0.0
580.441	1.0	go	0.626	Go_X	0.0
582.975	0.3	stop	0.463	Go_X	0.0
585.508	1.0	go	0.421	Go_O	0.0
588.041	1.0	go	0.381	Go_X	0.0
590.575	1.0	go	0.525	Go_O	0.0
593.124	1.0	go	0.507	Go_X	0.0
595.658	0.25	stop	0.502	Go_O	0.0
598.191	1.0	go	0.506	Go_O	0.0
600.724	0.2	stop	0.0	Go_X	1.0
603.258	1.0	go	0.569	Go_X	0.0
605.807	1.0	go	0.316	Go_O	0.0
608.341	0.25	stop	0.34	Go_O	0.0
610.874	1.0	go	0.444	Go_X	0.0
613.407	1.0	go	0.368	Go_O	0.0
615.941	1.0	go	0.315	Go_X	0.0
618.49	1.0	go	0.393	Go_X	0.0
621.024	1.0	go	0.614	Go_O	0.0
623.557	1.0	go	0.544	Go_O	0.0
626.09	1.0	go	0.339	Go_X	0.0
628.623	1.0	go	0.331	Go_O	0.0
631.157	1.0	go	0.556	Go_X	0.0
633.69	1.0	go	0.48	Go_X	0.0
636.223	0.2	stop	0.48	Go_X	0.0
638.757	1.0	go	0.282	Go_O	0.0
641.306	1.0	go	0.533	Go_X	0.0
643.84	0.15	stop	0.344	Go_O	0.0
646.373	1.0	go	0.497	Go_O	0.0
648.906	0.1	stop	0.0	Go_X	1.0
651.44	1.0	go	0.389	Go_X	0.0
653.989	1.0	go	0.625	Go_O	0.0
656.523	0.15	stop	0.0	Go_O	1.0
659.056	1.0	go	0.444	Go_O	0.0
661.589	0.2	stop	0.0	Go_X	1.0
664.123	1.0	go	0.97	Go_X	0.0
666.672	1.0	go	0.558	Go_O	0.0
669.206	1.0	go	0.335	Go_X	0.0
671.739	0.25	stop	0.296	Go_O	0.0
674.272	1.0	go	0.484	Go_O	0.0
676.806	1.0	go	0.414	Go_X	0.0
679.355	1.0	go	0.429	Go_X	0.0
681.889	1.0	go	0.638	Go_O	0.0
684.422	0.2	stop	0.353	Go_X	0.0
686.955	1.0	go	0.452	Go_X	0.0
689.488	1.0	go	0.563	Go_O	0.0
692.022	0.15	stop	0.275	Go_O	0.0
694.555	1.0	go	0.592	Go_X	0.0
697.088	1.0	go	0.562	Go_O	0.0
699.622	1.0	go	0.536	Go_O	0.0
702.171	1.0	go	0.503	Go_X	0.0
704.705	0.1	stop	0.0	Go_X	1.0
707.238	1.0	go	0.481	Go_O	0.0
709.771	0.15	stop	0.0	Go_O	1.0
712.305	1.0	go	0.4	Go_X	0.0
714.854	1.0	go	0.466	Go_X	0.0
717.388	0.2	stop	0.0	Go_X	1.0
719.921	1.0	go	0.385	Go_O	0.0
722.454	1.0	go	0.504	Go_O	0.0
724.987	1.0	go	0.457	Go_X	0.0
727.521	1.0	go	0.411	Go_X	0.0
730.054	0.25	stop	0.461	Go_O	0.0
732.587	1.0	go	0.45	Go_O	0.0
735.121	0.2	stop	0.339	Go_X	0.0
737.67	1.0	go	0.364	Go_X	0.0
740.204	1.0	go	0.229	Go_O	0.0
742.737	1.0	go	0.215	Go_X	0.0
745.27	1.0	go	0.441	Go_O	0.0
747.804	1.0	go	0.455	Go_O	0.0
750.353	1.0	go	0.351	Go_X	0.0
752.887	0.15	stop	0.069	Go_O	0.0
755.42	1.0	go	0.269	Go_X	1.0
757.953	1.0	go	0.522	Go_O	0.0
760.487	0.1	stop	0.383	Go_X	0.0
763.036	1.0	go	0.337	Go_X	0.0
765.57	1.0	go	0.581	Go_O	0.0
768.103	0.05	stop	0.0	Go_O	1.0
770.636	1.0	go	0.0	Go_X	0.0
773.17	1.0	go	0.411	Go_O	0.0
775.719	1.0	go	0.236	Go_X	0.0
778.253	1.0	go	0.272	Go_O	0.0
780.786	0.1	stop	0.251	Go_X	0.0
783.319	1.0	go	0.425	Go_O	0.0
785.853	0.05	stop	0.305	Go_O	0.0
788.402	1.0	go	0.289	Go_X	0.0
790.936	1.0	go	0.294	Go_O	0.0
793.469	1.0	go	0.558	Go_X	0.0
796.002	1.0	go	0.518	Go_X	0.0
798.535	1.0	go	0.559	Go_O	0.0
801.069	0.0	stop	0.434	Go_X	0.0
803.619	1.0	go	0.504	Go_X	0.0
806.152	1.0	go	0.35	Go_O	0.0
808.685	0.0	stop	0.0	Go_O	1.0
811.235	0.05	stop	0.0	Go_X	1.0
813.768	1.0	go	0.416	Go_X	0.0
816.302	1.0	go	0.319	Go_O	0.0
818.835	1.0	go	0.356	Go_X	0.0
821.368	1.0	go	0.513	Go_O	0.0
823.901	0.1	stop	0.0	Go_O	1.0
826.435	1.0	go	0.496	Go_X	0.0
