onset	duration	trial_type	response_time	stim_file	accuracy
74.947	1.0	go	0.742	Go_O	1.0
77.531	1.0	go	0.453	Go_X	1.0
80.08	1.0	go	0.497	Go_O	1.0
82.614	1.0	go	0.423	Go_X	1.0
85.147	1.0	go	0.684	Go_X	1.0
87.68	1.0	go	0.478	Go_O	1.0
90.214	0.25	stop	0.0	Go_O	1.0
92.747	1.0	go	0.748	Go_X	1.0
95.28	0.3	stop	0.0	Go_X	1.0
97.813	1.0	go	0.522	Go_O	1.0
100.347	1.0	go	0.519	Go_O	1.0
102.88	1.0	go	0.621	Go_X	1.0
105.413	0.35	stop	0.515	Go_O	0.0
107.947	1.0	go	0.436	Go_X	1.0
110.48	1.0	go	0.429	Go_O	1.0
113.013	0.3	stop	0.405	Go_X	0.0
115.546	0.25	stop	0.0	Go_O	1.0
118.08	1.0	go	0.52	Go_X	1.0
120.613	1.0	go	0.545	Go_O	1.0
123.146	0.3	stop	0.452	Go_X	0.0
125.68	1.0	go	0.716	Go_X	1.0
128.213	1.0	go	0.797	Go_O	1.0
130.746	0.25	stop	0.0	Go_O	1.0
133.279	1.0	go	0.71	Go_O	1.0
135.813	1.0	go	0.0	Go_X	0.0
138.346	0.3	stop	0.0	Go_X	1.0
140.879	1.0	go	0.523	Go_O	1.0
143.413	1.0	go	0.509	Go_X	1.0
145.946	0.35	stop	0.48	Go_O	0.0
148.479	1.0	go	0.639	Go_X	1.0
151.012	1.0	go	0.598	Go_O	1.0
153.546	1.0	go	0.649	Go_O	1.0
156.079	1.0	go	0.697	Go_X	1.0
158.612	1.0	go	0.703	Go_X	1.0
161.146	0.3	stop	0.0	Go_X	1.0
163.679	1.0	go	0.761	Go_O	1.0
166.212	1.0	go	0.598	Go_X	1.0
168.745	1.0	go	0.606	Go_O	1.0
171.279	1.0	go	0.649	Go_X	1.0
173.812	1.0	go	0.954	Go_O	0.0
176.345	0.35	stop	0.0	Go_O	1.0
178.879	1.0	go	0.667	Go_X	1.0
181.412	1.0	go	0.0	Go_O	0.0
183.945	1.0	go	0.56	Go_X	1.0
186.478	1.0	go	0.46	Go_O	1.0
189.012	1.0	go	0.443	Go_X	1.0
191.545	1.0	go	0.658	Go_O	1.0
194.078	0.4	stop	0.0	Go_X	1.0
196.612	1.0	go	0.729	Go_X	1.0
199.145	1.0	go	0.577	Go_O	1.0
201.678	0.45	stop	0.474	Go_O	0.0
204.211	1.0	go	0.707	Go_X	1.0
206.745	0.4	stop	0.677	Go_X	0.0
209.278	0.35	stop	0.0	Go_O	1.0
211.811	1.0	go	0.769	Go_O	1.0
214.345	1.0	go	0.695	Go_X	1.0
216.878	1.0	go	0.551	Go_O	1.0
219.411	1.0	go	0.519	Go_O	1.0
221.944	0.4	stop	0.0	Go_X	1.0
224.478	1.0	go	0.907	Go_X	1.0
227.011	0.45	stop	0.0	Go_O	1.0
229.544	1.0	go	0.0	Go_X	0.0
232.078	1.0	go	0.565	Go_O	1.0
234.611	1.0	go	0.958	Go_X	1.0
237.144	1.0	go	0.578	Go_O	1.0
239.677	1.0	go	0.647	Go_X	1.0
242.211	1.0	go	0.525	Go_O	1.0
244.744	1.0	go	0.529	Go_X	1.0
247.277	1.0	go	0.441	Go_O	1.0
249.811	1.0	go	0.503	Go_X	1.0
252.344	0.5	stop	0.592	Go_X	0.0
254.877	1.0	go	0.671	Go_O	1.0
257.41	1.0	go	0.605	Go_O	1.0
259.944	1.0	go	0.708	Go_X	1.0
262.477	0.45	stop	0.653	Go_O	0.0
265.01	1.0	go	0.829	Go_X	1.0
267.544	1.0	go	0.924	Go_O	1.0
270.077	1.0	go	0.516	Go_X	1.0
272.61	1.0	go	0.645	Go_O	1.0
275.143	1.0	go	0.582	Go_O	1.0
277.677	1.0	go	0.529	Go_X	1.0
280.21	0.4	stop	0.0	Go_X	1.0
282.743	1.0	go	0.686	Go_O	1.0
285.277	1.0	go	0.749	Go_X	1.0
287.81	0.45	stop	0.569	Go_O	0.0
290.343	1.0	go	0.554	Go_O	1.0
292.876	1.0	go	0.513	Go_X	1.0
295.41	0.4	stop	0.0	Go_X	1.0
297.943	1.0	go	0.762	Go_O	1.0
300.476	0.45	stop	0.0	Go_O	1.0
303.01	1.0	go	0.648	Go_X	1.0
305.543	1.0	go	0.969	Go_X	1.0
308.076	1.0	go	0.612	Go_O	1.0
310.609	1.0	go	0.62	Go_X	1.0
313.143	1.0	go	0.637	Go_O	1.0
315.676	0.5	stop	0.639	Go_X	0.0
318.209	0.45	stop	0.0	Go_O	1.0
320.743	1.0	go	0.961	Go_O	0.0
323.276	1.0	go	0.844	Go_X	1.0
325.809	0.5	stop	0.903	Go_X	0.0
328.342	1.0	go	0.616	Go_O	1.0
330.876	1.0	go	0.708	Go_X	1.0
333.409	1.0	go	0.0	Go_X	0.0
335.942	1.0	go	0.679	Go_O	1.0
338.476	1.0	go	0.596	Go_O	1.0
341.009	1.0	go	0.59	Go_X	1.0
343.542	0.45	stop	0.572	Go_O	0.0
346.075	1.0	go	0.0	Go_X	0.0
348.609	1.0	go	0.587	Go_O	1.0
351.142	1.0	go	0.796	Go_O	1.0
353.675	1.0	go	0.605	Go_X	1.0
356.209	1.0	go	0.657	Go_O	1.0
358.742	0.4	stop	0.597	Go_X	0.0
361.275	1.0	go	0.982	Go_X	1.0
363.808	1.0	go	0.593	Go_O	1.0
366.342	1.0	go	0.603	Go_X	1.0
368.875	1.0	go	0.676	Go_O	1.0
371.408	0.35	stop	0.0	Go_O	1.0
373.942	1.0	go	0.601	Go_X	1.0
376.475	1.0	go	0.621	Go_X	1.0
379.008	0.4	stop	0.835	Go_X	0.0
381.541	1.0	go	0.681	Go_O	1.0
384.075	0.35	stop	0.0	Go_O	1.0
386.608	1.0	go	0.0	Go_X	0.0
389.141	1.0	go	0.657	Go_O	1.0
391.675	1.0	go	0.615	Go_X	1.0
394.208	1.0	go	0.685	Go_O	1.0
396.741	1.0	go	0.668	Go_O	1.0
399.274	1.0	go	0.599	Go_X	1.0
401.808	1.0	go	0.643	Go_O	1.0
404.341	0.4	stop	0.0	Go_X	1.0
406.874	1.0	go	0.0	Go_X	0.0
409.408	1.0	go	0.615	Go_O	1.0
411.941	1.0	go	0.737	Go_X	1.0
414.474	0.45	stop	0.0	Go_O	1.0
417.007	1.0	go	0.507	Go_X	1.0
419.541	1.0	go	0.748	Go_O	1.0
422.074	1.0	go	0.639	Go_O	1.0
424.607	1.0	go	0.655	Go_X	1.0
427.141	0.5	stop	0.714	Go_X	0.0
429.69	1.0	go	0.473	Go_O	1.0
432.224	1.0	go	0.527	Go_X	1.0
434.757	0.45	stop	0.624	Go_O	0.0
437.29	1.0	go	0.728	Go_X	1.0
439.824	1.0	go	0.0	Go_O	0.0
442.357	0.4	stop	0.503	Go_X	0.0
444.89	1.0	go	0.695	Go_X	1.0
447.423	1.0	go	0.797	Go_O	1.0
449.957	0.35	stop	0.71	Go_O	0.0
452.49	1.0	go	0.753	Go_O	1.0
455.023	1.0	go	0.0	Go_X	0.0
457.557	1.0	go	0.426	Go_O	1.0
460.09	1.0	go	0.742	Go_X	1.0
462.623	1.0	go	0.628	Go_O	1.0
465.156	1.0	go	0.847	Go_X	1.0
467.69	0.3	stop	0.0	Go_X	1.0
470.223	1.0	go	0.722	Go_X	1.0
472.756	0.35	stop	0.736	Go_O	0.0
475.29	1.0	go	0.705	Go_O	1.0
477.823	1.0	go	0.585	Go_O	1.0
480.356	1.0	go	0.918	Go_X	1.0
482.889	1.0	go	0.669	Go_O	1.0
485.423	1.0	go	0.497	Go_X	1.0
487.956	0.3	stop	0.0	Go_X	1.0
490.489	1.0	go	0.863	Go_X	1.0
493.023	1.0	go	0.655	Go_O	1.0
495.556	1.0	go	0.623	Go_X	1.0
498.089	0.35	stop	0.646	Go_O	0.0
500.622	0.3	stop	0.0	Go_X	1.0
503.156	0.35	stop	0.0	Go_O	1.0
505.689	1.0	go	0.622	Go_O	1.0
508.222	0.4	stop	0.0	Go_X	1.0
510.756	1.0	go	0.598	Go_X	1.0
513.289	1.0	go	0.637	Go_O	1.0
515.822	1.0	go	0.785	Go_X	1.0
518.355	1.0	go	0.523	Go_O	1.0
520.889	1.0	go	0.684	Go_O	1.0
523.422	1.0	go	0.629	Go_X	1.0
525.955	1.0	go	0.522	Go_O	1.0
528.489	1.0	go	0.661	Go_X	1.0
531.022	0.45	stop	0.607	Go_O	0.0
533.555	1.0	go	0.491	Go_X	1.0
536.088	1.0	go	0.683	Go_O	1.0
538.622	0.4	stop	0.783	Go_X	0.0
541.155	1.0	go	0.712	Go_X	1.0
543.688	1.0	go	0.581	Go_O	1.0
546.222	1.0	go	0.634	Go_O	1.0
548.755	1.0	go	0.652	Go_X	1.0
551.288	1.0	go	0.729	Go_X	1.0
553.821	0.35	stop	0.0	Go_O	1.0
556.355	1.0	go	0.629	Go_O	1.0
558.888	1.0	go	0.787	Go_X	1.0
561.421	1.0	go	0.631	Go_O	1.0
563.955	0.4	stop	0.548	Go_X	0.0
566.488	1.0	go	0.908	Go_X	1.0
569.021	0.35	stop	0.528	Go_O	0.0
571.554	1.0	go	0.801	Go_O	1.0
574.088	1.0	go	0.846	Go_O	1.0
576.621	1.0	go	0.753	Go_X	1.0
579.154	1.0	go	0.737	Go_X	1.0
581.688	1.0	go	0.916	Go_O	1.0
584.221	1.0	go	0.789	Go_X	1.0
586.754	1.0	go	0.637	Go_O	1.0
589.287	0.3	stop	0.0	Go_X	1.0
591.821	1.0	go	0.965	Go_O	1.0
594.354	1.0	go	0.957	Go_X	1.0
596.887	1.0	go	0.852	Go_O	1.0
599.421	1.0	go	0.785	Go_X	1.0
601.954	0.35	stop	0.0	Go_O	1.0
604.487	1.0	go	0.708	Go_O	1.0
607.02	0.4	stop	0.0	Go_X	1.0
609.554	1.0	go	0.896	Go_X	1.0
612.087	1.0	go	0.833	Go_X	1.0
614.62	0.45	stop	0.0	Go_O	1.0
617.154	1.0	go	0.0	Go_O	0.0
619.687	1.0	go	0.921	Go_O	1.0
622.22	1.0	go	0.708	Go_X	1.0
624.753	1.0	go	0.654	Go_X	1.0
627.287	1.0	go	0.415	Go_O	1.0
629.82	1.0	go	0.0	Go_O	0.0
632.353	1.0	go	0.0	Go_X	0.0
634.887	1.0	go	0.426	Go_O	1.0
637.42	1.0	go	0.47	Go_X	1.0
639.953	1.0	go	0.687	Go_X	1.0
642.486	0.5	stop	0.588	Go_X	0.0
645.02	1.0	go	0.0	Go_O	0.0
647.553	1.0	go	0.619	Go_X	1.0
650.086	0.45	stop	0.0	Go_O	1.0
652.62	1.0	go	0.0	Go_O	0.0
655.153	0.5	stop	0.0	Go_X	1.0
657.686	1.0	go	0.792	Go_O	1.0
660.219	1.0	go	0.0	Go_X	0.0
662.753	0.55	stop	0.552	Go_O	0.0
665.286	1.0	go	0.749	Go_X	1.0
667.819	0.5	stop	0.0	Go_X	1.0
670.353	1.0	go	0.73	Go_O	1.0
672.886	1.0	go	0.594	Go_O	1.0
675.419	1.0	go	0.728	Go_X	1.0
677.952	0.55	stop	0.63	Go_O	0.0
680.486	1.0	go	0.712	Go_X	1.0
683.019	1.0	go	0.818	Go_O	1.0
685.552	1.0	go	0.7	Go_X	1.0
688.086	1.0	go	0.689	Go_O	1.0
690.619	0.5	stop	0.594	Go_X	0.0
693.152	1.0	go	0.958	Go_X	1.0
695.685	1.0	go	0.54	Go_O	1.0
698.219	0.45	stop	0.438	Go_O	0.0
700.752	1.0	go	0.617	Go_X	1.0
703.285	1.0	go	0.71	Go_O	1.0
705.819	1.0	go	0.683	Go_X	1.0
708.352	1.0	go	0.816	Go_O	1.0
710.885	0.4	stop	0.656	Go_X	0.0
713.418	1.0	go	0.726	Go_X	1.0
715.952	0.35	stop	0.0	Go_O	1.0
718.485	1.0	go	0.807	Go_O	1.0
721.018	1.0	go	0.735	Go_X	1.0
723.552	0.4	stop	0.0	Go_X	1.0
726.085	1.0	go	0.556	Go_O	1.0
728.618	1.0	go	0.838	Go_X	1.0
731.151	1.0	go	0.676	Go_O	1.0
733.685	1.0	go	0.877	Go_O	1.0
736.218	0.45	stop	0.0	Go_O	1.0
738.751	1.0	go	0.703	Go_X	1.0
741.285	0.5	stop	0.0	Go_X	1.0
743.818	1.0	go	0.629	Go_X	1.0
746.351	1.0	go	0.464	Go_O	1.0
748.884	1.0	go	0.525	Go_X	1.0
751.418	1.0	go	0.597	Go_O	1.0
753.951	1.0	go	0.646	Go_O	1.0
756.484	1.0	go	0.705	Go_X	1.0
759.018	0.55	stop	0.685	Go_O	0.0
761.551	1.0	go	0.466	Go_O	1.0
764.084	1.0	go	0.569	Go_X	1.0
766.617	0.5	stop	0.623	Go_X	0.0
769.151	1.0	go	0.0	Go_O	0.0
771.684	1.0	go	0.367	Go_X	1.0
774.217	0.45	stop	0.491	Go_O	0.0
776.751	1.0	go	0.695	Go_O	1.0
779.284	1.0	go	0.553	Go_X	1.0
781.817	1.0	go	0.755	Go_O	1.0
784.35	1.0	go	0.868	Go_X	1.0
786.884	0.4	stop	0.633	Go_X	0.0
789.417	1.0	go	0.718	Go_O	1.0
791.95	0.35	stop	0.0	Go_O	1.0
794.484	1.0	go	0.864	Go_X	1.0
797.017	1.0	go	0.868	Go_O	1.0
799.55	1.0	go	0.0	Go_X	0.0
802.083	1.0	go	0.774	Go_O	1.0
804.617	1.0	go	0.0	Go_X	0.0
807.15	0.4	stop	0.0	Go_X	1.0
809.683	1.0	go	0.74	Go_O	1.0
812.217	1.0	go	0.704	Go_X	1.0
814.75	0.45	stop	0.0	Go_O	1.0
817.283	0.5	stop	0.0	Go_X	1.0
819.816	1.0	go	0.685	Go_X	1.0
822.35	1.0	go	0.548	Go_O	1.0
824.883	1.0	go	0.617	Go_X	1.0
827.416	1.0	go	0.0	Go_O	0.0
829.95	0.55	stop	0.792	Go_O	0.0
832.483	1.0	go	0.593	Go_X	1.0
