onset	duration	trial_type	response_time	stim_file	accuracy
88.033	1.0	go	0.0	Go_X	0.0
90.566	1.0	go	0.0	Go_O	0.0
93.099	1.0	go	0.882	Go_O	0.0
95.632	1.0	go	0.695	Go_X	1.0
98.166	1.0	go	0.328	Go_X	1.0
100.699	1.0	go	0.255	Go_O	0.0
103.232	0.25	stop	0.388	Go_O	0.0
105.766	1.0	go	0.537	Go_O	1.0
108.315	0.2	stop	0.0	Go_X	1.0
110.849	1.0	go	0.519	Go_X	1.0
113.382	1.0	go	0.476	Go_X	1.0
115.915	1.0	go	0.386	Go_O	1.0
118.449	0.25	stop	0.0	Go_O	1.0
120.982	1.0	go	0.397	Go_O	0.0
123.515	1.0	go	0.496	Go_X	1.0
126.048	0.3	stop	0.0	Go_X	1.0
128.582	0.35	stop	0.0	Go_O	1.0
131.115	1.0	go	0.494	Go_X	1.0
133.648	1.0	go	0.317	Go_O	1.0
136.181	0.4	stop	0.468	Go_X	0.0
138.715	1.0	go	0.416	Go_X	1.0
141.248	1.0	go	0.329	Go_O	1.0
143.781	0.35	stop	0.484	Go_O	0.0
146.315	1.0	go	0.674	Go_O	1.0
148.848	1.0	go	0.391	Go_X	1.0
151.381	0.3	stop	0.428	Go_X	0.0
153.914	1.0	go	0.608	Go_X	1.0
156.448	1.0	go	0.601	Go_O	1.0
158.981	0.25	stop	0.0	Go_O	1.0
161.514	1.0	go	0.396	Go_O	1.0
164.047	1.0	go	0.393	Go_X	1.0
166.581	1.0	go	0.595	Go_O	1.0
169.114	1.0	go	0.645	Go_X	1.0
171.647	1.0	go	0.748	Go_X	1.0
174.181	0.3	stop	0.0	Go_X	1.0
176.714	1.0	go	0.507	Go_O	1.0
179.247	1.0	go	0.642	Go_O	1.0
181.78	1.0	go	0.539	Go_X	1.0
184.314	1.0	go	0.741	Go_O	1.0
186.847	1.0	go	0.734	Go_X	1.0
189.38	0.35	stop	0.0	Go_O	1.0
191.913	1.0	go	0.435	Go_X	1.0
194.447	1.0	go	0.363	Go_O	1.0
196.98	1.0	go	0.541	Go_O	1.0
199.513	1.0	go	0.473	Go_X	1.0
202.047	1.0	go	0.457	Go_O	1.0
204.58	1.0	go	0.546	Go_X	1.0
207.113	0.4	stop	0.387	Go_X	0.0
209.646	1.0	go	0.377	Go_X	1.0
212.18	1.0	go	0.409	Go_O	1.0
214.713	0.35	stop	0.0	Go_O	1.0
217.246	1.0	go	0.625	Go_O	1.0
219.78	0.4	stop	0.555	Go_X	0.0
222.329	0.35	stop	0.543	Go_O	0.0
224.863	1.0	go	0.634	Go_X	1.0
227.396	1.0	go	0.524	Go_O	1.0
229.929	1.0	go	0.649	Go_X	1.0
232.463	1.0	go	0.412	Go_X	1.0
234.996	0.3	stop	0.251	Go_X	0.0
237.529	1.0	go	0.394	Go_O	1.0
240.062	0.25	stop	0.0	Go_O	1.0
242.596	1.0	go	0.407	Go_O	0.0
245.129	1.0	go	0.366	Go_X	1.0
247.662	1.0	go	0.425	Go_X	1.0
250.195	1.0	go	0.487	Go_O	1.0
252.729	1.0	go	0.492	Go_X	1.0
255.262	1.0	go	0.348	Go_O	1.0
257.795	1.0	go	0.493	Go_O	1.0
260.329	1.0	go	0.521	Go_X	1.0
262.862	1.0	go	0.496	Go_X	1.0
265.395	0.3	stop	0.497	Go_X	0.0
267.928	1.0	go	0.44	Go_O	1.0
270.462	1.0	go	0.633	Go_X	1.0
272.995	1.0	go	0.426	Go_O	1.0
275.528	0.25	stop	0.0	Go_O	1.0
278.062	1.0	go	0.18	Go_X	1.0
280.611	1.0	go	0.619	Go_O	1.0
283.145	1.0	go	0.358	Go_X	1.0
285.678	1.0	go	0.376	Go_O	1.0
288.211	1.0	go	0.267	Go_X	1.0
290.745	1.0	go	0.22	Go_O	1.0
293.294	0.3	stop	0.247	Go_X	0.0
295.828	1.0	go	0.52	Go_X	1.0
298.361	1.0	go	0.389	Go_O	1.0
300.894	0.25	stop	0.0	Go_O	1.0
303.428	1.0	go	0.386	Go_X	1.0
305.961	1.0	go	0.456	Go_O	1.0
308.494	0.3	stop	0.489	Go_X	0.0
311.027	1.0	go	0.418	Go_O	0.0
313.561	0.25	stop	0.0	Go_O	1.0
316.094	1.0	go	0.435	Go_X	1.0
318.627	1.0	go	0.395	Go_O	1.0
321.16	1.0	go	0.696	Go_X	1.0
323.694	1.0	go	0.661	Go_X	1.0
326.227	1.0	go	0.62	Go_O	1.0
328.76	0.3	stop	0.0	Go_X	1.0
331.294	0.35	stop	0.502	Go_O	0.0
333.827	1.0	go	0.61	Go_X	1.0
336.36	1.0	go	0.699	Go_O	1.0
338.893	0.3	stop	0.0	Go_X	1.0
341.427	1.0	go	0.454	Go_O	1.0
343.96	1.0	go	0.531	Go_X	1.0
346.493	1.0	go	0.516	Go_X	1.0
349.027	1.0	go	0.518	Go_O	1.0
351.576	1.0	go	0.624	Go_O	1.0
354.11	1.0	go	0.415	Go_X	1.0
356.643	0.35	stop	0.0	Go_O	1.0
359.176	1.0	go	0.697	Go_O	0.0
361.71	1.0	go	0.421	Go_X	1.0
364.243	1.0	go	0.461	Go_O	1.0
366.776	1.0	go	0.562	Go_X	1.0
369.309	1.0	go	0.773	Go_X	1.0
371.843	0.4	stop	0.397	Go_X	0.0
374.376	1.0	go	0.531	Go_O	1.0
376.909	1.0	go	0.433	Go_X	1.0
379.442	1.0	go	0.516	Go_O	1.0
381.976	1.0	go	0.444	Go_X	1.0
384.509	0.35	stop	0.312	Go_O	0.0
387.042	1.0	go	0.305	Go_O	0.0
389.576	1.0	go	0.304	Go_X	1.0
392.109	0.3	stop	0.0	Go_X	1.0
394.642	1.0	go	0.368	Go_O	1.0
397.175	0.35	stop	0.198	Go_O	0.0
399.709	1.0	go	0.301	Go_O	1.0
402.242	1.0	go	0.2	Go_X	1.0
404.775	1.0	go	0.542	Go_O	1.0
407.308	1.0	go	0.367	Go_X	1.0
409.842	1.0	go	0.415	Go_X	1.0
412.375	1.0	go	0.45	Go_O	1.0
414.908	1.0	go	0.436	Go_O	1.0
417.442	0.3	stop	0.236	Go_X	0.0
419.975	1.0	go	0.528	Go_X	0.0
422.508	1.0	go	0.669	Go_X	1.0
425.041	1.0	go	0.432	Go_O	1.0
427.575	0.25	stop	0.0	Go_O	1.0
430.108	1.0	go	0.571	Go_O	1.0
432.641	1.0	go	0.544	Go_X	1.0
435.175	1.0	go	0.479	Go_X	1.0
437.724	1.0	go	0.695	Go_O	1.0
440.258	0.3	stop	0.0	Go_X	1.0
442.791	1.0	go	0.395	Go_O	1.0
445.324	1.0	go	0.436	Go_X	1.0
447.858	0.35	stop	0.526	Go_O	0.0
450.391	1.0	go	0.832	Go_O	1.0
452.924	1.0	go	0.604	Go_X	1.0
455.457	0.3	stop	0.422	Go_X	0.0
457.991	1.0	go	0.564	Go_X	1.0
460.524	1.0	go	0.548	Go_O	1.0
463.057	0.25	stop	0.0	Go_O	1.0
465.59	1.0	go	0.492	Go_X	1.0
468.124	1.0	go	0.485	Go_O	1.0
470.657	1.0	go	0.317	Go_X	1.0
473.19	1.0	go	0.629	Go_O	1.0
475.724	1.0	go	0.456	Go_X	1.0
478.257	1.0	go	0.637	Go_O	1.0
480.79	0.3	stop	0.533	Go_X	0.0
483.323	1.0	go	0.413	Go_O	1.0
485.857	0.25	stop	0.0	Go_O	1.0
488.39	1.0	go	0.65	Go_X	1.0
490.923	1.0	go	0.615	Go_X	0.0
493.456	1.0	go	0.478	Go_O	1.0
495.99	1.0	go	0.661	Go_O	1.0
498.523	1.0	go	0.497	Go_X	1.0
501.056	0.3	stop	0.6	Go_X	0.0
503.59	1.0	go	0.497	Go_X	1.0
506.123	1.0	go	0.559	Go_O	1.0
508.656	1.0	go	0.65	Go_O	1.0
511.189	0.25	stop	0.0	Go_O	1.0
513.723	0.3	stop	0.48	Go_X	0.0
516.256	0.25	stop	0.0	Go_O	1.0
518.789	1.0	go	0.389	Go_X	1.0
521.323	0.3	stop	0.414	Go_X	0.0
523.872	1.0	go	0.531	Go_O	1.0
526.406	1.0	go	0.63	Go_X	1.0
528.939	1.0	go	0.536	Go_X	1.0
531.472	1.0	go	0.586	Go_O	1.0
534.006	1.0	go	0.82	Go_O	1.0
536.539	1.0	go	0.69	Go_X	1.0
539.072	1.0	go	0.571	Go_O	1.0
541.605	1.0	go	0.486	Go_X	1.0
544.139	0.25	stop	0.426	Go_O	0.0
546.672	1.0	go	0.58	Go_X	0.0
549.205	1.0	go	0.521	Go_O	1.0
551.738	0.2	stop	0.0	Go_X	1.0
554.272	1.0	go	0.478	Go_X	1.0
556.805	1.0	go	0.799	Go_O	1.0
559.338	1.0	go	0.513	Go_X	1.0
561.872	1.0	go	0.544	Go_O	0.0
564.405	1.0	go	0.488	Go_O	1.0
566.938	0.25	stop	0.0	Go_O	1.0
569.471	1.0	go	0.517	Go_X	1.0
572.005	1.0	go	0.447	Go_O	1.0
574.538	1.0	go	0.461	Go_X	1.0
577.071	0.3	stop	0.421	Go_X	0.0
579.604	1.0	go	0.495	Go_X	1.0
582.138	0.25	stop	0.454	Go_O	0.0
584.671	1.0	go	0.533	Go_O	1.0
587.204	1.0	go	0.315	Go_O	1.0
589.738	1.0	go	0.164	Go_X	0.0
592.271	1.0	go	0.45	Go_O	1.0
594.804	1.0	go	0.189	Go_X	1.0
597.337	1.0	go	0.23	Go_O	1.0
599.871	1.0	go	0.437	Go_X	1.0
602.404	0.2	stop	0.0	Go_X	1.0
604.937	1.0	go	0.482	Go_X	1.0
607.47	1.0	go	0.258	Go_O	0.0
610.004	1.0	go	0.503	Go_O	1.0
612.537	1.0	go	0.496	Go_X	0.0
615.07	0.25	stop	0.389	Go_O	0.0
617.604	1.0	go	0.561	Go_X	1.0
620.137	0.2	stop	0.0	Go_X	1.0
622.67	1.0	go	0.488	Go_O	1.0
625.203	1.0	go	0.641	Go_X	1.0
627.737	0.25	stop	0.0	Go_O	1.0
630.27	1.0	go	0.465	Go_O	1.0
632.803	1.0	go	0.43	Go_O	1.0
635.337	1.0	go	0.447	Go_X	1.0
637.886	1.0	go	0.558	Go_X	1.0
640.42	1.0	go	0.587	Go_O	1.0
642.953	1.0	go	0.454	Go_X	1.0
645.486	1.0	go	0.444	Go_O	1.0
648.02	1.0	go	0.371	Go_X	1.0
650.553	1.0	go	0.439	Go_O	1.0
653.086	1.0	go	0.452	Go_O	1.0
655.619	0.3	stop	0.328	Go_X	0.0
658.153	1.0	go	0.425	Go_X	1.0
660.686	1.0	go	0.306	Go_X	1.0
663.219	0.25	stop	0.572	Go_O	0.0
665.752	1.0	go	0.687	Go_O	1.0
668.286	0.2	stop	0.0	Go_X	1.0
670.819	1.0	go	0.637	Go_X	1.0
673.352	1.0	go	0.352	Go_O	1.0
675.886	0.25	stop	0.0	Go_O	1.0
678.419	1.0	go	0.559	Go_X	1.0
680.952	0.3	stop	0.422	Go_X	0.0
683.485	1.0	go	0.255	Go_O	0.0
686.019	1.0	go	0.413	Go_X	1.0
688.552	1.0	go	0.283	Go_O	1.0
691.085	0.25	stop	0.399	Go_O	0.0
693.619	1.0	go	0.448	Go_X	1.0
696.168	1.0	go	0.46	Go_O	1.0
698.702	1.0	go	0.559	Go_X	1.0
701.235	1.0	go	0.635	Go_O	1.0
703.768	0.2	stop	0.782	Go_X	0.0
706.302	1.0	go	0.518	Go_O	1.0
708.835	1.0	go	0.57	Go_X	1.0
711.368	0.15	stop	0.0	Go_O	1.0
713.901	1.0	go	0.423	Go_O	1.0
716.435	1.0	go	0.377	Go_X	1.0
718.968	1.0	go	0.492	Go_O	1.0
721.501	1.0	go	0.538	Go_X	0.0
724.034	0.2	stop	0.666	Go_X	0.0
726.568	1.0	go	0.527	Go_O	1.0
729.101	0.15	stop	0.0	Go_O	1.0
731.634	1.0	go	0.594	Go_X	1.0
734.168	1.0	go	0.51	Go_O	1.0
736.701	0.2	stop	0.0	Go_X	1.0
739.234	1.0	go	0.573	Go_X	1.0
741.767	1.0	go	0.514	Go_X	0.0
744.301	1.0	go	0.476	Go_O	1.0
746.834	1.0	go	0.56	Go_X	1.0
749.367	0.25	stop	0.0	Go_O	1.0
751.9	1.0	go	0.56	Go_O	1.0
754.434	0.3	stop	0.338	Go_X	0.0
756.967	1.0	go	0.628	Go_O	1.0
759.5	1.0	go	0.476	Go_X	1.0
762.034	1.0	go	0.55	Go_O	1.0
764.567	1.0	go	0.493	Go_X	1.0
767.1	1.0	go	0.64	Go_X	1.0
769.633	1.0	go	0.394	Go_O	1.0
772.167	0.25	stop	0.0	Go_O	1.0
774.7	1.0	go	0.98	Go_O	1.0
777.233	1.0	go	0.351	Go_X	1.0
779.766	0.3	stop	0.0	Go_X	1.0
782.3	1.0	go	0.446	Go_X	1.0
784.833	1.0	go	0.536	Go_O	1.0
787.366	0.35	stop	0.495	Go_O	0.0
789.9	1.0	go	0.451	Go_O	1.0
792.433	1.0	go	0.657	Go_X	1.0
794.966	1.0	go	0.426	Go_X	1.0
797.499	1.0	go	0.516	Go_O	1.0
800.033	0.3	stop	0.495	Go_X	0.0
802.566	1.0	go	0.615	Go_O	1.0
805.099	0.25	stop	0.0	Go_O	1.0
807.633	1.0	go	0.461	Go_X	1.0
810.182	1.0	go	0.506	Go_O	1.0
812.716	1.0	go	0.533	Go_X	1.0
815.249	1.0	go	0.379	Go_X	1.0
817.782	1.0	go	0.38	Go_O	1.0
820.316	0.3	stop	0.0	Go_X	1.0
822.849	1.0	go	0.511	Go_X	1.0
825.382	1.0	go	0.537	Go_O	0.0
827.915	0.35	stop	0.408	Go_O	0.0
830.449	0.3	stop	0.0	Go_X	1.0
832.982	1.0	go	0.417	Go_X	1.0
835.515	1.0	go	0.483	Go_O	1.0
838.048	1.0	go	0.346	Go_O	0.0
840.582	1.0	go	0.523	Go_X	1.0
843.115	0.35	stop	0.379	Go_O	0.0
845.648	1.0	go	0.629	Go_X	1.0
