frame	onset	duration	trial_type	event_type	response_type	response_time	stim_file	accuracy
0	70.51		control-reward	ImageDisplay1		0.0		
0	72.743	0.75	control-reward	StartDisplay				
0	73.493		control-reward	ImageDisplay2		0.0		
0	76.493	1.6	control-reward	ChoiceDisplay	1	0.562	1	1
0	77.077	1.038	control-reward	ChosenDisplay		0.0		
0	78.093	0.25	control-reward	TurnDisplay				
0	78.343	0.75	control-reward	OutcomeDisplay				
1	79.093		win-reward	ImageDisplay1		0.0		
1	81.343	0.75	win-reward	StartDisplay				
1	82.093		win-reward	ImageDisplay2		0.0		
1	85.093	1.6	win-reward	ChoiceDisplay	1	0.81	1	1
1	85.926	0.79	win-reward	ChosenDisplay		0.0		
1	86.693	0.25	win-reward	TurnDisplay				
1	86.943	0.75	win-reward	OutcomeDisplay				
2	87.693		loss-noreward	ImageDisplay1		0.0		
2	89.693	0.75	loss-noreward	StartDisplay				
2	90.443		loss-noreward	ImageDisplay2		0.0		
2	93.693	1.6	loss-noreward	ChoiceDisplay	1	0.759	1	1
2	94.476	0.841	loss-noreward	ChosenDisplay		0.0		
2	95.293	0.25	loss-noreward	TurnDisplay				
2	95.543	0.75	loss-noreward	OutcomeDisplay				
3	96.293		win-reward	ImageDisplay1		0.0		
3	98.543	0.75	win-reward	StartDisplay				
3	99.293		win-reward	ImageDisplay2		0.0		
3	102.293	1.6	win-reward	ChoiceDisplay	1	0.628	1	1
3	102.943	0.972	win-reward	ChosenDisplay		0.0		
3	103.893	0.25	win-reward	TurnDisplay				
3	104.143	0.75	win-reward	OutcomeDisplay				
4	104.893		loss-noreward	ImageDisplay1		0.0		
4	106.893	0.75	loss-noreward	StartDisplay				
4	107.643		loss-noreward	ImageDisplay2		0.0		
4	110.893	1.6	loss-noreward	ChoiceDisplay	1	0.706	1	1
4	111.626	0.894	loss-noreward	ChosenDisplay		0.0		
4	112.493	0.25	loss-noreward	TurnDisplay				
4	112.743	0.75	loss-noreward	OutcomeDisplay				
5	113.493		loss-reward	ImageDisplay1		0.0		
5	115.742	0.75	loss-reward	StartDisplay				
5	116.492		loss-reward	ImageDisplay2		0.0		
5	119.492	1.6	loss-reward	ChoiceDisplay	1	0.57	1	1
5	120.076	1.03	loss-reward	ChosenDisplay		0.0		
5	121.092	0.25	loss-reward	TurnDisplay				
5	121.342	0.75	loss-reward	OutcomeDisplay				
6	122.092		control-reward	ImageDisplay1		0.0		
6	124.092	0.75	control-reward	StartDisplay				
6	124.842		control-reward	ImageDisplay2		0.0		
6	128.092	1.6	control-reward	ChoiceDisplay	1	0.872	1	1
6	128.975	0.728	control-reward	ChosenDisplay		0.0		
6	129.692	0.25	control-reward	TurnDisplay				
6	129.942	0.75	control-reward	OutcomeDisplay				
7	130.692		control-noreward	ImageDisplay1		0.0		
7	132.942	0.75	control-noreward	StartDisplay				
7	133.692		control-noreward	ImageDisplay2		0.0		
7	136.692	1.6	control-noreward	ChoiceDisplay	1	0.804	1	1
7	137.509	0.796	control-noreward	ChosenDisplay		0.0		
7	138.292	0.25	control-noreward	TurnDisplay				
7	138.542	0.75	control-noreward	OutcomeDisplay				
8	139.292		loss-reward	ImageDisplay1		0.0		
8	141.542	0.75	loss-reward	StartDisplay				
8	142.292		loss-reward	ImageDisplay2		0.0		
8	145.292	1.6	loss-reward	ChoiceDisplay	1	0.912	1	1
8	146.225	0.688	loss-reward	ChosenDisplay		0.0		
8	146.892	0.25	loss-reward	TurnDisplay				
8	147.142	0.75	loss-reward	OutcomeDisplay				
9	147.892		control-noreward	ImageDisplay1		0.0		
9	149.892	0.75	control-noreward	StartDisplay				
9	150.642		control-noreward	ImageDisplay2		0.0		
9	153.892	1.6	control-noreward	ChoiceDisplay	1	0.907	1	1
9	154.825	0.693	control-noreward	ChosenDisplay		0.0		
9	155.492	0.25	control-noreward	TurnDisplay				
9	155.742	0.75	control-noreward	OutcomeDisplay				
10	156.492		win-reward	ImageDisplay1		0.0		
10	158.741	0.75	win-reward	StartDisplay				
10	159.491		win-reward	ImageDisplay2		0.0		
10	162.491	1.6	win-reward	ChoiceDisplay	1	0.744	1	1
10	163.258	0.856	win-reward	ChosenDisplay		0.0		
10	164.091	0.25	win-reward	TurnDisplay				
10	164.341	0.75	win-reward	OutcomeDisplay				
11	165.091		control-reward	ImageDisplay1		0.0		
11	167.341	0.75	control-reward	StartDisplay				
11	168.091		control-reward	ImageDisplay2		0.0		
11	171.091	1.6	control-reward	ChoiceDisplay	1	0.763	1	1
11	171.874	0.837	control-reward	ChosenDisplay		0.0		
11	172.691	0.25	control-reward	TurnDisplay				
11	172.941	0.75	control-reward	OutcomeDisplay				
12	173.691		loss-reward	ImageDisplay1		0.0		
12	175.691	0.75	loss-reward	StartDisplay				
12	176.441		loss-reward	ImageDisplay2		0.0		
12	179.691	1.6	loss-reward	ChoiceDisplay	1	0.777	1	1
12	180.491	0.823	loss-reward	ChosenDisplay		0.0		
12	181.291	0.25	loss-reward	TurnDisplay				
12	181.541	0.75	loss-reward	OutcomeDisplay				
13	182.291		control-reward	ImageDisplay1		0.0		
13	184.541	0.75	control-reward	StartDisplay				
13	185.291		control-reward	ImageDisplay2		0.0		
13	188.291	1.6	control-reward	ChoiceDisplay	1	0.89	1	1
13	189.207	0.71	control-reward	ChosenDisplay		0.0		
13	189.891	0.25	control-reward	TurnDisplay				
13	190.141	0.75	control-reward	OutcomeDisplay				
14	190.891		loss-noreward	ImageDisplay1		0.0		
14	193.141	0.75	loss-noreward	StartDisplay				
14	193.891		loss-noreward	ImageDisplay2		0.0		
14	196.891	1.6	loss-noreward	ChoiceDisplay	1	0.998	1	1
14	197.907	0.602	loss-noreward	ChosenDisplay		0.0		
14	198.491	0.25	loss-noreward	TurnDisplay				
14	198.741	0.75	loss-noreward	OutcomeDisplay				
15	199.491		win-reward	ImageDisplay1		0.0		
15	201.49	0.75	win-reward	StartDisplay				
15	202.24		win-reward	ImageDisplay2		0.0		
15	205.49	1.6	win-reward	ChoiceDisplay	1	0.883	1	1
15	206.39	0.717	win-reward	ChosenDisplay		0.0		
15	207.09	0.25	win-reward	TurnDisplay				
15	207.34	0.75	win-reward	OutcomeDisplay				
16	208.09		win-noreward	ImageDisplay1		0.0		
16	210.34	0.75	win-noreward	StartDisplay				
16	211.09		win-noreward	ImageDisplay2		0.0		
16	214.09	1.6	win-noreward	ChoiceDisplay	1	0.516	1	1
16	214.623	1.084	win-noreward	ChosenDisplay		0.0		
16	215.69	0.25	win-noreward	TurnDisplay				
16	215.94	0.75	win-noreward	OutcomeDisplay				
17	216.69		control-noreward	ImageDisplay1		0.0		
17	218.69	0.75	control-noreward	StartDisplay				
17	219.44		control-noreward	ImageDisplay2		0.0		
17	222.69	1.6	control-noreward	ChoiceDisplay	1	0.748	1	1
17	223.457	0.852	control-noreward	ChosenDisplay		0.0		
17	224.29	0.25	control-noreward	TurnDisplay				
17	224.54	0.75	control-noreward	OutcomeDisplay				
18	225.29		win-reward	ImageDisplay1		0.0		
18	227.29	0.75	win-reward	StartDisplay				
18	228.04		win-reward	ImageDisplay2		0.0		
18	231.29	1.6	win-reward	ChoiceDisplay	1	0.764	1	1
18	232.073	0.836	win-reward	ChosenDisplay		0.0		
18	232.89	0.25	win-reward	TurnDisplay				
18	233.14	0.75	win-reward	OutcomeDisplay				
19	233.89		control-noreward	ImageDisplay1		0.0		
19	236.14	0.75	control-noreward	StartDisplay				
19	236.89		control-noreward	ImageDisplay2		0.0		
19	239.89	1.6	control-noreward	ChoiceDisplay	1	0.692	1	1
19	240.606	0.908	control-noreward	ChosenDisplay		0.0		
19	241.49	0.25	control-noreward	TurnDisplay				
19	241.74	0.75	control-noreward	OutcomeDisplay				
20	242.489		control-noreward	ImageDisplay1		0.0		
20	244.489	0.75	control-noreward	StartDisplay				
20	245.239		control-noreward	ImageDisplay2		0.0		
20	248.489	1.6	control-noreward	ChoiceDisplay	1	0.602	1	1
20	249.106	0.998	control-noreward	ChosenDisplay		0.0		
20	250.089	0.25	control-noreward	TurnDisplay				
20	250.339	0.75	control-noreward	OutcomeDisplay				
21	251.089		loss-noreward	ImageDisplay1		0.0		
21	253.089	0.75	loss-noreward	StartDisplay				
21	253.839		loss-noreward	ImageDisplay2		0.0		
21	257.089	1.6	loss-noreward	ChoiceDisplay	1	0.752	1	1
21	257.856	0.848	loss-noreward	ChosenDisplay		0.0		
21	258.689	0.25	loss-noreward	TurnDisplay				
21	258.939	0.75	loss-noreward	OutcomeDisplay				
22	259.689		control-noreward	ImageDisplay1		0.0		
22	261.689	0.75	control-noreward	StartDisplay				
22	262.439		control-noreward	ImageDisplay2		0.0		
22	265.689	1.6	control-noreward	ChoiceDisplay	1	0.68	1	1
22	266.389	0.92	control-noreward	ChosenDisplay		0.0		
22	267.289	0.25	control-noreward	TurnDisplay				
22	267.539	0.75	control-noreward	OutcomeDisplay				
23	268.289		loss-reward	ImageDisplay1		0.0		
23	270.289	0.75	loss-reward	StartDisplay				
23	271.039		loss-reward	ImageDisplay2		0.0		
23	274.289	1.6	loss-reward	ChoiceDisplay	1	0.656	1	1
23	274.972	0.944	loss-reward	ChosenDisplay		0.0		
23	275.889	0.25	loss-reward	TurnDisplay				
23	276.139	0.75	loss-reward	OutcomeDisplay				
24	276.889		control-noreward	ImageDisplay1		0.0		
24	278.889	0.75	control-noreward	StartDisplay				
24	279.639		control-noreward	ImageDisplay2		0.0		
24	282.889	1.6	control-noreward	ChoiceDisplay	1	0.766	1	1
24	283.672	0.834	control-noreward	ChosenDisplay		0.0		
24	284.489	0.25	control-noreward	TurnDisplay				
24	284.739	0.75	control-noreward	OutcomeDisplay				
25	285.489		win-noreward	ImageDisplay1		0.0		
25	287.488	0.75	win-noreward	StartDisplay				
25	288.238		win-noreward	ImageDisplay2		0.0		
25	291.488	1.6	win-noreward	ChoiceDisplay	1	0.686	1	1
25	292.188	0.914	win-noreward	ChosenDisplay		0.0		
25	293.088	0.25	win-noreward	TurnDisplay				
25	293.338	0.75	win-noreward	OutcomeDisplay				
26	294.088		loss-noreward	ImageDisplay1		0.0		
26	296.338	0.75	loss-noreward	StartDisplay				
26	297.088		loss-noreward	ImageDisplay2		0.0		
26	300.088	1.6	loss-noreward	ChoiceDisplay	1	0.688	1	1
26	300.788	0.912	loss-noreward	ChosenDisplay		0.0		
26	301.688	0.25	loss-noreward	TurnDisplay				
26	301.938	0.75	loss-noreward	OutcomeDisplay				
27	302.688		win-reward	ImageDisplay1		0.0		
27	304.688	0.75	win-reward	StartDisplay				
27	305.438		win-reward	ImageDisplay2		0.0		
27	308.688	1.6	win-reward	ChoiceDisplay	1	0.667	1	1
27	309.371	0.933	win-reward	ChosenDisplay		0.0		
27	310.288	0.25	win-reward	TurnDisplay				
27	310.538	0.75	win-reward	OutcomeDisplay				
28	311.288		win-reward	ImageDisplay1		0.0		
28	313.538	0.75	win-reward	StartDisplay				
28	314.288		win-reward	ImageDisplay2		0.0		
28	317.288	1.6	win-reward	ChoiceDisplay	1	0.593	1	1
28	317.904	1.007	win-reward	ChosenDisplay		0.0		
28	318.888	0.25	win-reward	TurnDisplay				
28	319.138	0.75	win-reward	OutcomeDisplay				
29	319.888		control-reward	ImageDisplay1		0.0		
29	321.888	0.75	control-reward	StartDisplay				
29	322.638		control-reward	ImageDisplay2		0.0		
29	325.888	1.6	control-reward	ChoiceDisplay	1	0.655	1	1
29	326.571	0.945	control-reward	ChosenDisplay		0.0		
29	327.488	0.25	control-reward	TurnDisplay				
29	327.738	0.75	control-reward	OutcomeDisplay				
30	328.487		win-noreward	ImageDisplay1		0.0		
30	330.487	0.75	win-noreward	StartDisplay				
30	331.237		win-noreward	ImageDisplay2		0.0		
30	334.487	1.6	win-noreward	ChoiceDisplay	1	0.775	1	1
30	335.287	0.825	win-noreward	ChosenDisplay		0.0		
30	336.087	0.25	win-noreward	TurnDisplay				
30	336.337	0.75	win-noreward	OutcomeDisplay				
31	337.087		control-reward	ImageDisplay1		0.0		
31	339.337	0.75	control-reward	StartDisplay				
31	340.087		control-reward	ImageDisplay2		0.0		
31	343.087	1.6	control-reward	ChoiceDisplay	1	0.561	1	1
31	343.67	1.039	control-reward	ChosenDisplay		0.0		
31	344.687	0.25	control-reward	TurnDisplay				
31	344.937	0.75	control-reward	OutcomeDisplay				
32	345.687		control-noreward	ImageDisplay1		0.0		
32	347.937	0.75	control-noreward	StartDisplay				
32	348.687		control-noreward	ImageDisplay2		0.0		
32	351.687	1.6	control-noreward	ChoiceDisplay	1	0.964	1	1
32	352.67	0.636	control-noreward	ChosenDisplay		0.0		
32	353.287	0.25	control-noreward	TurnDisplay				
32	353.537	0.75	control-noreward	OutcomeDisplay				
33	354.287		win-reward	ImageDisplay1		0.0		
33	356.537	0.75	win-reward	StartDisplay				
33	357.287		win-reward	ImageDisplay2		0.0		
33	360.287	1.6	win-reward	ChoiceDisplay	1	0.634	1	1
33	360.937	0.966	win-reward	ChosenDisplay		0.0		
33	361.887	0.25	win-reward	TurnDisplay				
33	362.137	0.75	win-reward	OutcomeDisplay				
34	362.887		loss-reward	ImageDisplay1		0.0		
34	364.887	0.75	loss-reward	StartDisplay				
34	365.637		loss-reward	ImageDisplay2		0.0		
34	368.887	1.6	loss-reward	ChoiceDisplay	1	0.584	1	1
34	369.487	1.016	loss-reward	ChosenDisplay		0.0		
34	370.487	0.25	loss-reward	TurnDisplay				
34	370.737	0.75	loss-reward	OutcomeDisplay				
35	371.487		win-noreward	ImageDisplay1		0.0		
35	373.736	0.75	win-noreward	StartDisplay				
35	374.486		win-noreward	ImageDisplay2		0.0		
35	377.486	1.6	win-noreward	ChoiceDisplay	1	0.572	1	1
35	378.07	1.028	win-noreward	ChosenDisplay		0.0		
35	379.086	0.25	win-noreward	TurnDisplay				
35	379.336	0.75	win-noreward	OutcomeDisplay				
36	380.086		win-reward	ImageDisplay1		0.0		
36	382.086	0.75	win-reward	StartDisplay				
36	382.836		win-reward	ImageDisplay2		0.0		
36	386.086	1.6	win-reward	ChoiceDisplay	1	0.747	1	1
36	386.853	0.853	win-reward	ChosenDisplay		0.0		
36	387.686	0.25	win-reward	TurnDisplay				
36	387.936	0.75	win-reward	OutcomeDisplay				
37	388.686		loss-reward	ImageDisplay1		0.0		
37	390.936	0.75	loss-reward	StartDisplay				
37	391.686		loss-reward	ImageDisplay2		0.0		
37	394.686	1.6	loss-reward	ChoiceDisplay	1	0.89	1	1
37	395.603	0.71	loss-reward	ChosenDisplay		0.0		
37	396.286	0.25	loss-reward	TurnDisplay				
37	396.536	0.75	loss-reward	OutcomeDisplay				
38	397.286		control-reward	ImageDisplay1		0.0		
38	399.536	0.75	control-reward	StartDisplay				
38	400.286		control-reward	ImageDisplay2		0.0		
38	403.286	1.6	control-reward	ChoiceDisplay	1	0.922	1	1
38	404.236	0.678	control-reward	ChosenDisplay		0.0		
38	404.886	0.25	control-reward	TurnDisplay				
38	405.136	0.75	control-reward	OutcomeDisplay				
39	405.886		loss-reward	ImageDisplay1		0.0		
39	407.886	0.75	loss-reward	StartDisplay				
39	408.636		loss-reward	ImageDisplay2		0.0		
39	411.886	1.6	loss-reward	ChoiceDisplay	1	0.453	1	1
39	412.352	1.147	loss-reward	ChosenDisplay		0.0		
39	413.486	0.25	loss-reward	TurnDisplay				
39	413.735	0.75	loss-reward	OutcomeDisplay				
40	414.486		win-reward	ImageDisplay1		0.0		
40	416.485	0.75	win-reward	StartDisplay				
40	417.235		win-reward	ImageDisplay2		0.0		
40	420.485	1.6	win-reward	ChoiceDisplay	1	0.767	1	1
40	421.269	0.833	win-reward	ChosenDisplay		0.0		
40	422.085	0.25	win-reward	TurnDisplay				
40	422.335	0.75	win-reward	OutcomeDisplay				
41	423.085		win-noreward	ImageDisplay1		0.0		
41	425.335	0.75	win-noreward	StartDisplay				
41	426.085		win-noreward	ImageDisplay2		0.0		
41	429.085	1.6	win-noreward	ChoiceDisplay	1	0.794	1	1
41	429.902	0.806	win-noreward	ChosenDisplay		0.0		
41	430.685	0.25	win-noreward	TurnDisplay				
41	430.935	0.75	win-noreward	OutcomeDisplay				
42	431.685		control-reward	ImageDisplay1		0.0		
42	433.685	0.75	control-reward	StartDisplay				
42	434.435		control-reward	ImageDisplay2		0.0		
42	437.685	1.6	control-reward	ChoiceDisplay	1	0.719	1	1
42	438.418	0.881	control-reward	ChosenDisplay		0.0		
42	439.285	0.25	control-reward	TurnDisplay				
42	439.535	0.75	control-reward	OutcomeDisplay				
43	440.285		loss-noreward	ImageDisplay1		0.0		
43	442.285	0.75	loss-noreward	StartDisplay				
43	443.035		loss-noreward	ImageDisplay2		0.0		
43	446.285	1.6	loss-noreward	ChoiceDisplay	1	0.625	1	1
43	446.935	0.975	loss-noreward	ChosenDisplay		0.0		
43	447.885	0.25	loss-noreward	TurnDisplay				
43	448.135	0.75	loss-noreward	OutcomeDisplay				
44	448.885		win-reward	ImageDisplay1		0.0		
44	451.135	0.75	win-reward	StartDisplay				
44	451.885		win-reward	ImageDisplay2		0.0		
44	454.885	1.6	win-reward	ChoiceDisplay	1	0.785	1	1
44	455.685	0.815	win-reward	ChosenDisplay		0.0		
44	456.485	0.25	win-reward	TurnDisplay				
44	456.735	0.75	win-reward	OutcomeDisplay				
45	457.484		control-reward	ImageDisplay1		0.0		
45	459.734	0.75	control-reward	StartDisplay				
45	460.484		control-reward	ImageDisplay2		0.0		
45	463.484	1.6	control-reward	ChoiceDisplay	1	0.753	1	1
45	464.251	0.847	control-reward	ChosenDisplay		0.0		
45	465.084	0.25	control-reward	TurnDisplay				
45	465.334	0.75	control-reward	OutcomeDisplay				
46	466.084		loss-reward	ImageDisplay1		0.0		
46	468.334	0.75	loss-reward	StartDisplay				
46	469.084		loss-reward	ImageDisplay2		0.0		
46	472.084	1.6	loss-reward	ChoiceDisplay	1	0.906	1	1
46	473.001	0.694	loss-reward	ChosenDisplay		0.0		
46	473.684	0.25	loss-reward	TurnDisplay				
46	473.934	0.75	loss-reward	OutcomeDisplay				
47	474.684		control-noreward	ImageDisplay1		0.0		
47	476.934	0.75	control-noreward	StartDisplay				
47	477.684		control-noreward	ImageDisplay2		0.0		
47	480.684	1.6	control-noreward	ChoiceDisplay	1	0.571	1	1
47	481.267	1.029	control-noreward	ChosenDisplay		0.0		
47	482.284	0.25	control-noreward	TurnDisplay				
47	482.534	0.75	control-noreward	OutcomeDisplay				
48	483.284		loss-reward	ImageDisplay1		0.0		
48	485.284	0.75	loss-reward	StartDisplay				
48	486.034		loss-reward	ImageDisplay2		0.0		
48	489.284	1.6	loss-reward	ChoiceDisplay	1	0.833	1	1
48	490.134	0.767	loss-reward	ChosenDisplay		0.0		
48	490.884	0.25	loss-reward	TurnDisplay				
48	491.134	0.75	loss-reward	OutcomeDisplay				
49	491.884		loss-reward	ImageDisplay1		0.0		
49	493.884	0.75	loss-reward	StartDisplay				
49	494.634		loss-reward	ImageDisplay2		0.0		
49	497.884	1.6	loss-reward	ChoiceDisplay	1	0.722	1	1
49	498.634	0.878	loss-reward	ChosenDisplay		0.0		
49	499.484	0.25	loss-reward	TurnDisplay				
49	499.734	0.75	loss-reward	OutcomeDisplay				
50	500.483		loss-noreward	ImageDisplay1		0.0		
50	502.733	0.75	loss-noreward	StartDisplay				
50	503.483		loss-noreward	ImageDisplay2		0.0		
50	506.483	1.6	loss-noreward	ChoiceDisplay	1	0.601	1	1
50	507.1	0.999	loss-noreward	ChosenDisplay		0.0		
50	508.083	0.25	loss-noreward	TurnDisplay				
50	508.333	0.75	loss-noreward	OutcomeDisplay				
51	509.083		control-reward	ImageDisplay1		0.0		
51	511.083	0.75	control-reward	StartDisplay				
51	511.833		control-reward	ImageDisplay2		0.0		
51	515.083	1.6	control-reward	ChoiceDisplay	1	0.67	1	1
51	515.766	0.93	control-reward	ChosenDisplay		0.0		
51	516.683	0.25	control-reward	TurnDisplay				
51	516.933	0.75	control-reward	OutcomeDisplay				
52	517.683		win-reward	ImageDisplay1		0.0		
52	519.683	0.75	win-reward	StartDisplay				
52	520.433		win-reward	ImageDisplay2		0.0		
52	523.683	1.6	win-reward	ChoiceDisplay	1	0.547	1	1
52	524.25	1.053	win-reward	ChosenDisplay		0.0		
52	525.283	0.25	win-reward	TurnDisplay				
52	525.533	0.75	win-reward	OutcomeDisplay				
53	526.283		loss-noreward	ImageDisplay1		0.0		
53	528.533	0.75	loss-noreward	StartDisplay				
53	529.283		loss-noreward	ImageDisplay2		0.0		
53	532.283	1.6	loss-noreward	ChoiceDisplay	1	0.561	1	1
53	532.866	1.039	loss-noreward	ChosenDisplay		0.0		
53	533.883	0.25	loss-noreward	TurnDisplay				
53	534.133	0.75	loss-noreward	OutcomeDisplay				
54	534.883		loss-noreward	ImageDisplay1		0.0		
54	537.133	0.75	loss-noreward	StartDisplay				
54	537.883		loss-noreward	ImageDisplay2		0.0		
54	540.883	1.6	loss-noreward	ChoiceDisplay	1	0.585	1	1
54	541.483	1.015	loss-noreward	ChosenDisplay		0.0		
54	542.483	0.25	loss-noreward	TurnDisplay				
54	542.733	0.75	loss-noreward	OutcomeDisplay				
55	543.482		loss-noreward	ImageDisplay1		0.0		
55	545.732	0.75	loss-noreward	StartDisplay				
55	546.482		loss-noreward	ImageDisplay2		0.0		
55	549.482	1.6	loss-noreward	ChoiceDisplay	1	0.756	1	1
55	550.266	0.844	loss-noreward	ChosenDisplay		0.0		
55	551.082	0.25	loss-noreward	TurnDisplay				
55	551.332	0.75	loss-noreward	OutcomeDisplay				
56	552.082		win-noreward	ImageDisplay1		0.0		
56	554.082	0.75	win-noreward	StartDisplay				
56	554.832		win-noreward	ImageDisplay2		0.0		
56	558.082	1.6	win-noreward	ChoiceDisplay	1	0.875	1	1
56	558.982	0.725	win-noreward	ChosenDisplay		0.0		
56	559.682	0.25	win-noreward	TurnDisplay				
56	559.932	0.75	win-noreward	OutcomeDisplay				
57	560.682		control-noreward	ImageDisplay1		0.0		
57	562.932	0.75	control-noreward	StartDisplay				
57	563.682		control-noreward	ImageDisplay2		0.0		
57	566.682	1.6	control-noreward	ChoiceDisplay	1	0.497	1	1
57	567.199	1.103	control-noreward	ChosenDisplay		0.0		
57	568.282	0.25	control-noreward	TurnDisplay				
57	568.532	0.75	control-noreward	OutcomeDisplay				
58	569.282		control-noreward	ImageDisplay1		0.0		
58	571.282	0.75	control-noreward	StartDisplay				
58	572.032		control-noreward	ImageDisplay2		0.0		
58	575.282	1.6	control-noreward	ChoiceDisplay	1	0.948	1	1
58	576.248	0.652	control-noreward	ChosenDisplay		0.0		
58	576.882	0.25	control-noreward	TurnDisplay				
58	577.132	0.75	control-noreward	OutcomeDisplay				
59	577.882		win-noreward	ImageDisplay1		0.0		
59	580.132	0.75	win-noreward	StartDisplay				
59	580.882		win-noreward	ImageDisplay2		0.0		
59	583.882	1.6	win-noreward	ChoiceDisplay	1	0.56	1	1
59	584.465	1.04	win-noreward	ChosenDisplay		0.0		
59	585.482	0.25	win-noreward	TurnDisplay				
59	585.732	0.75	win-noreward	OutcomeDisplay				
60	586.481		loss-reward	ImageDisplay1		0.0		
60	588.731	0.75	loss-reward	StartDisplay				
60	589.481		loss-reward	ImageDisplay2		0.0		
60	592.481	1.6	loss-reward	ChoiceDisplay	1	0.786	1	1
60	593.281	0.814	loss-reward	ChosenDisplay		0.0		
60	594.081	0.25	loss-reward	TurnDisplay				
60	594.331	0.75	loss-reward	OutcomeDisplay				
61	595.081		win-noreward	ImageDisplay1		0.0		
61	597.331	0.75	win-noreward	StartDisplay				
61	598.081		win-noreward	ImageDisplay2		0.0		
61	601.081	1.6	win-noreward	ChoiceDisplay	1	0.714	1	1
61	601.814	0.886	win-noreward	ChosenDisplay		0.0		
61	602.681	0.25	win-noreward	TurnDisplay				
61	602.931	0.75	win-noreward	OutcomeDisplay				
62	603.681		win-noreward	ImageDisplay1		0.0		
62	605.681	0.75	win-noreward	StartDisplay				
62	606.431		win-noreward	ImageDisplay2		0.0		
62	609.681	1.6	win-noreward	ChoiceDisplay	1	0.501	1	1
62	610.198	1.099	win-noreward	ChosenDisplay		0.0		
62	611.281	0.25	win-noreward	TurnDisplay				
62	611.531	0.75	win-noreward	OutcomeDisplay				
63	612.281		control-reward	ImageDisplay1		0.0		
63	614.281	0.75	control-reward	StartDisplay				
63	615.031		control-reward	ImageDisplay2		0.0		
63	618.281	1.6	control-reward	ChoiceDisplay	1	0.9	1	1
63	619.197	0.7	control-reward	ChosenDisplay		0.0		
63	619.881	0.25	control-reward	TurnDisplay				
63	620.131	0.75	control-reward	OutcomeDisplay				
64	620.881		win-reward	ImageDisplay1		0.0		
64	622.881	0.75	win-reward	StartDisplay				
64	623.631		win-reward	ImageDisplay2		0.0		
64	626.881	1.6	win-reward	ChoiceDisplay	1	0.782	1	1
64	627.681	0.818	win-reward	ChosenDisplay		0.0		
64	628.481	0.25	win-reward	TurnDisplay				
64	628.731	0.75	win-reward	OutcomeDisplay				
65	629.48		loss-noreward	ImageDisplay1		0.0		
65	631.48	0.75	loss-noreward	StartDisplay				
65	632.23		loss-noreward	ImageDisplay2		0.0		
65	635.48	1.6	loss-noreward	ChoiceDisplay	1	0.685	1	1
65	636.18	0.915	loss-noreward	ChosenDisplay		0.0		
65	637.08	0.25	loss-noreward	TurnDisplay				
65	637.33	0.75	loss-noreward	OutcomeDisplay				
66	638.08		loss-noreward	ImageDisplay1		0.0		
66	640.33	0.75	loss-noreward	StartDisplay				
66	641.08		loss-noreward	ImageDisplay2		0.0		
66	644.08	1.6	loss-noreward	ChoiceDisplay	1	0.873	1	1
66	644.98	0.727	loss-noreward	ChosenDisplay		0.0		
66	645.68	0.25	loss-noreward	TurnDisplay				
66	645.93	0.75	loss-noreward	OutcomeDisplay				
67	646.68		loss-reward	ImageDisplay1		0.0		
67	648.68	0.75	loss-reward	StartDisplay				
67	649.43		loss-reward	ImageDisplay2		0.0		
67	652.68	1.6	loss-reward	ChoiceDisplay	1	0.819	1	1
67	653.513	0.781	loss-reward	ChosenDisplay		0.0		
67	654.28	0.25	loss-reward	TurnDisplay				
67	654.53	0.75	loss-reward	OutcomeDisplay				
68	655.28		control-reward	ImageDisplay1		0.0		
68	657.53	0.75	control-reward	StartDisplay				
68	658.28		control-reward	ImageDisplay2		0.0		
68	661.28	1.6	control-reward	ChoiceDisplay	1	0.983	1	1
68	662.28	0.617	control-reward	ChosenDisplay		0.0		
68	662.88	0.25	control-reward	TurnDisplay				
68	663.13	0.75	control-reward	OutcomeDisplay				
69	663.88		win-noreward	ImageDisplay1		0.0		
69	665.88	0.75	win-noreward	StartDisplay				
69	666.63		win-noreward	ImageDisplay2		0.0		
69	669.88	1.6	win-noreward	ChoiceDisplay	1	1.009	1	1
69	670.913	0.591	win-noreward	ChosenDisplay		0.0		
69	671.48	0.25	win-noreward	TurnDisplay				
69	671.73	0.75	win-noreward	OutcomeDisplay				
70	672.479		win-noreward	ImageDisplay1		0.0		
70	674.729	0.75	win-noreward	StartDisplay				
70	675.479		win-noreward	ImageDisplay2		0.0		
70	678.479	1.6	win-noreward	ChoiceDisplay	1	1.175	1	1
70	679.679	0.425	win-noreward	ChosenDisplay		0.0		
70	680.079	0.25	win-noreward	TurnDisplay				
70	680.329	0.75	win-noreward	OutcomeDisplay				
71	681.079		control-reward	ImageDisplay1		0.0		
71	683.079	0.75	control-reward	StartDisplay				
71	683.829		control-reward	ImageDisplay2		0.0		
71	687.079	1.6	control-reward	ChoiceDisplay	1	0.742	1	1
71	687.846	0.858	control-reward	ChosenDisplay		0.0		
71	688.679	0.25	control-reward	TurnDisplay				
71	688.929	0.75	control-reward	OutcomeDisplay				
72	689.679		control-reward	ImageDisplay1		0.0		
72	691.929	0.75	control-reward	StartDisplay				
72	692.679		control-reward	ImageDisplay2		0.0		
72	695.679	1.6	control-reward	ChoiceDisplay	1	1.137	1	1
72	696.829	0.463	control-reward	ChosenDisplay		0.0		
72	697.279	0.25	control-reward	TurnDisplay				
72	697.529	0.75	control-reward	OutcomeDisplay				
73	698.279		control-reward	ImageDisplay1		0.0		
73	700.279	0.75	control-reward	StartDisplay				
73	701.029		control-reward	ImageDisplay2		0.0		
73	704.279	1.6	control-reward	ChoiceDisplay	1	0.428	1	1
73	704.729	1.172	control-reward	ChosenDisplay		0.0		
73	705.879	0.25	control-reward	TurnDisplay				
73	706.129	0.75	control-reward	OutcomeDisplay				
74	706.879		control-reward	ImageDisplay1		0.0		
74	708.879	0.75	control-reward	StartDisplay				
74	709.629		control-reward	ImageDisplay2		0.0		
74	712.879	1.6	control-reward	ChoiceDisplay	1	0.83	1	1
74	713.729	0.77	control-reward	ChosenDisplay		0.0		
74	714.479	0.25	control-reward	TurnDisplay				
74	714.728	0.75	control-reward	OutcomeDisplay				
75	715.478		loss-reward	ImageDisplay1		0.0		
75	717.728	0.75	loss-reward	StartDisplay				
75	718.478		loss-reward	ImageDisplay2		0.0		
75	721.478	1.6	loss-reward	ChoiceDisplay	1	0.805	1	1
75	722.295	0.795	loss-reward	ChosenDisplay		0.0		
75	723.078	0.25	loss-reward	TurnDisplay				
75	723.328	0.75	loss-reward	OutcomeDisplay				
76	724.078		control-noreward	ImageDisplay1		0.0		
76	726.078	0.75	control-noreward	StartDisplay				
76	726.828		control-noreward	ImageDisplay2		0.0		
76	730.078	1.6	control-noreward	ChoiceDisplay	1	0.588	1	1
76	730.678	1.012	control-noreward	ChosenDisplay		0.0		
76	731.678	0.25	control-noreward	TurnDisplay				
76	731.928	0.75	control-noreward	OutcomeDisplay				
77	732.678		win-reward	ImageDisplay1		0.0		
77	734.928	0.75	win-reward	StartDisplay				
77	735.678		win-reward	ImageDisplay2		0.0		
77	738.678	1.6	win-reward	ChoiceDisplay	1	0.632	1	1
77	739.328	0.968	win-reward	ChosenDisplay		0.0		
77	740.278	0.25	win-reward	TurnDisplay				
77	740.528	0.75	win-reward	OutcomeDisplay				
78	741.278		win-reward	ImageDisplay1		0.0		
78	743.528	0.75	win-reward	StartDisplay				
78	744.278		win-reward	ImageDisplay2		0.0		
78	747.278	1.6	win-reward	ChoiceDisplay	1	0.773	1	1
78	748.078	0.827	win-reward	ChosenDisplay		0.0		
78	748.878	0.25	win-reward	TurnDisplay				
78	749.128	0.75	win-reward	OutcomeDisplay				
79	749.878		loss-reward	ImageDisplay1		0.0		
79	751.878	0.75	loss-reward	StartDisplay				
79	752.628		loss-reward	ImageDisplay2		0.0		
79	755.878	1.6	loss-reward	ChoiceDisplay	1	1.132	1	1
79	757.028	0.468	loss-reward	ChosenDisplay		0.0		
79	757.478	0.25	loss-reward	TurnDisplay				
79	757.727	0.75	loss-reward	OutcomeDisplay				
80	758.477		loss-reward	ImageDisplay1		0.0		
80	760.477	0.75	loss-reward	StartDisplay				
80	761.227		loss-reward	ImageDisplay2		0.0		
80	764.477	1.6	loss-reward	ChoiceDisplay	1	0.933	1	1
80	765.427	0.667	loss-reward	ChosenDisplay		0.0		
80	766.077	0.25	loss-reward	TurnDisplay				
80	766.327	0.75	loss-reward	OutcomeDisplay				
81	767.077		win-reward	ImageDisplay1		0.0		
81	769.327	0.75	win-reward	StartDisplay				
81	770.077		win-reward	ImageDisplay2		0.0		
81	773.077	1.6	win-reward	ChoiceDisplay	1	0.808	1	1
81	773.91	0.792	win-reward	ChosenDisplay		0.0		
81	774.677	0.25	win-reward	TurnDisplay				
81	774.927	0.75	win-reward	OutcomeDisplay				
82	775.677		control-noreward	ImageDisplay1		0.0		
82	777.927	0.75	control-noreward	StartDisplay				
82	778.677		control-noreward	ImageDisplay2		0.0		
82	781.677	1.6	control-noreward	ChoiceDisplay	1	1.153	1	1
82	782.844	0.447	control-noreward	ChosenDisplay		0.0		
82	783.277	0.25	control-noreward	TurnDisplay				
82	783.527	0.75	control-noreward	OutcomeDisplay				
83	784.277		loss-noreward	ImageDisplay1		0.0		
83	786.277	0.75	loss-noreward	StartDisplay				
83	787.027		loss-noreward	ImageDisplay2		0.0		
83	790.277	1.6	loss-noreward	ChoiceDisplay	1	0.951	1	1
83	791.243	0.649	loss-noreward	ChosenDisplay		0.0		
83	791.877	0.25	loss-noreward	TurnDisplay				
83	792.127	0.75	loss-noreward	OutcomeDisplay				
84	792.877		loss-noreward	ImageDisplay1		0.0		
84	794.877	0.75	loss-noreward	StartDisplay				
84	795.627		loss-noreward	ImageDisplay2		0.0		
84	798.877	1.6	loss-noreward	ChoiceDisplay	1	0.886	1	1
84	799.777	0.714	loss-noreward	ChosenDisplay		0.0		
84	800.477	0.25	loss-noreward	TurnDisplay				
84	800.727	0.75	loss-noreward	OutcomeDisplay				
85	801.476		loss-reward	ImageDisplay1		0.0		
85	803.726	0.75	loss-reward	StartDisplay				
85	804.476		loss-reward	ImageDisplay2		0.0		
85	807.476	1.6	loss-reward	ChoiceDisplay	1	0.945	1	1
85	808.443	0.655	loss-reward	ChosenDisplay		0.0		
85	809.076	0.25	loss-reward	TurnDisplay				
85	809.326	0.75	loss-reward	OutcomeDisplay				
86	810.076		win-reward	ImageDisplay1		0.0		
86	812.076	0.75	win-reward	StartDisplay				
86	812.826		win-reward	ImageDisplay2		0.0		
86	816.076	1.6	win-reward	ChoiceDisplay	1	1.316	1	1
86	817.409	0.284	win-reward	ChosenDisplay		0.0		
86	817.676	0.25	win-reward	TurnDisplay				
86	817.926	0.75	win-reward	OutcomeDisplay				
87	818.676		control-noreward	ImageDisplay1		0.0		
87	820.926	0.75	control-noreward	StartDisplay				
87	821.676		control-noreward	ImageDisplay2		0.0		
87	824.676	1.6	control-noreward	ChoiceDisplay	1	0.973	1	1
87	825.676	0.627	control-noreward	ChosenDisplay		0.0		
87	826.276	0.25	control-noreward	TurnDisplay				
87	826.526	0.75	control-noreward	OutcomeDisplay				
88	827.276		win-noreward	ImageDisplay1		0.0		
88	829.276	0.75	win-noreward	StartDisplay				
88	830.026		win-noreward	ImageDisplay2		0.0		
88	833.276	1.6	win-noreward	ChoiceDisplay	1	0.893	1	1
88	834.192	0.707	win-noreward	ChosenDisplay		0.0		
88	834.876	0.25	win-noreward	TurnDisplay				
88	835.126	0.75	win-noreward	OutcomeDisplay				
89	835.876		control-noreward	ImageDisplay1		0.0		
89	837.876	0.75	control-noreward	StartDisplay				
89	838.626		control-noreward	ImageDisplay2		0.0		
89	841.876	1.6	control-noreward	ChoiceDisplay	1	1.455	1	1
89	843.359	0.145	control-noreward	ChosenDisplay		0.0		
89	843.476	0.25	control-noreward	TurnDisplay				
89	843.725	0.75	control-noreward	OutcomeDisplay				
90	844.475		win-noreward	ImageDisplay1		0.0		
90	846.475	0.75	win-noreward	StartDisplay				
90	847.225		win-noreward	ImageDisplay2		0.0		
90	850.475	1.6	win-noreward	ChoiceDisplay	1	0.989	1	1
90	851.492	0.611	win-noreward	ChosenDisplay		0.0		
90	852.075	0.25	win-noreward	TurnDisplay				
90	852.325	0.75	win-noreward	OutcomeDisplay				
91	853.075		loss-reward	ImageDisplay1		0.0		
91	855.325	0.75	loss-reward	StartDisplay				
91	856.075		loss-reward	ImageDisplay2		0.0		
91	859.075	1.6	loss-reward	ChoiceDisplay	1	0.689	1	1
91	859.775	0.911	loss-reward	ChosenDisplay		0.0		
91	860.675	0.25	loss-reward	TurnDisplay				
91	860.925	0.75	loss-reward	OutcomeDisplay				
92	861.675		control-noreward	ImageDisplay1		0.0		
92	863.925	0.75	control-noreward	StartDisplay				
92	864.675		control-noreward	ImageDisplay2		0.0		
92	867.675	1.6	control-noreward	ChoiceDisplay		0.0		
92	869.275	0.0	control-noreward	ChosenDisplay		0.0		
92	869.292	0.25	control-noreward	TurnDisplay				
92	869.525	0.75	control-noreward	OutcomeDisplay				
93	870.275		win-noreward	ImageDisplay1		0.0		
93	872.525	0.75	win-noreward	StartDisplay				
93	873.275		win-noreward	ImageDisplay2		0.0		
93	876.275	1.6	win-noreward	ChoiceDisplay	1	0.632	1	1
93	876.925	0.968	win-noreward	ChosenDisplay		0.0		
93	877.875	0.25	win-noreward	TurnDisplay				
93	878.125	0.75	win-noreward	OutcomeDisplay				
94	878.875		win-reward	ImageDisplay1		0.0		
94	880.875	0.75	win-reward	StartDisplay				
94	881.625		win-reward	ImageDisplay2		0.0		
94	884.875	1.6	win-reward	ChoiceDisplay	1	0.903	1	1
94	885.791	0.697	win-reward	ChosenDisplay		0.0		
94	886.475	0.25	win-reward	TurnDisplay				
94	886.724	0.75	win-reward	OutcomeDisplay				
95	887.475		loss-reward	ImageDisplay1		0.0		
95	889.724	0.75	loss-reward	StartDisplay				
95	890.474		loss-reward	ImageDisplay2		0.0		
95	893.474	1.6	loss-reward	ChoiceDisplay	1	0.941	1	1
95	894.441	0.659	loss-reward	ChosenDisplay		0.0		
95	895.074	0.25	loss-reward	TurnDisplay				
95	895.324	0.75	loss-reward	OutcomeDisplay				
