onset	duration	trial_type	response_time	stim_file	accuracy
49.587	1.0	go	0.657	Go_X	1.0
52.178	1.0	go	0.428	Go_O	1.0
54.702	1.0	go	0.444	Go_O	1.0
57.226	1.0	go	0.374	Go_X	0.0
59.751	1.0	go	0.567	Go_X	1.0
62.275	1.0	go	0.333	Go_O	1.0
64.799	0.25	stopfail	0.38	Go_O	0.0
67.323	1.0	go	0.528	Go_X	1.0
69.847	0.2	stopsuccess	0.0	Go_X	1.0
72.372	1.0	go	0.357	Go_O	1.0
74.896	1.0	go	0.425	Go_X	1.0
77.42	1.0	go	0.482	Go_O	1.0
79.944	0.25	stopfail	0.401	Go_O	0.0
82.468	1.0	go	0.414	Go_X	1.0
84.993	1.0	go	0.605	Go_O	1.0
87.517	0.2	stopsuccess	0.0	Go_X	1.0
90.041	0.25	stopfail	0.32	Go_O	0.0
92.565	1.0	go	0.566	Go_X	1.0
95.089	1.0	go	0.395	Go_O	1.0
97.613	0.2	stopsuccess	0.0	Go_X	1.0
100.138	1.0	go	0.469	Go_X	1.0
102.662	1.0	go	0.545	Go_O	1.0
105.186	0.25	stopsuccess	0.0	Go_O	1.0
107.71	1.0	go	0.432	Go_X	1.0
110.234	1.0	go	0.51	Go_O	1.0
112.759	0.3	stopsuccess	0.0	Go_X	1.0
115.283	1.0	go	0.484	Go_O	1.0
117.807	1.0	go	0.567	Go_X	1.0
120.331	0.35	stopsuccess	0.0	Go_O	1.0
122.855	1.0	go	0.682	Go_O	1.0
125.38	1.0	go	0.591	Go_X	1.0
127.904	1.0	go	0.704	Go_O	1.0
130.428	1.0	go	0.513	Go_X	1.0
132.952	1.0	go	0.689	Go_O	1.0
135.476	0.4	stopfail	0.473	Go_X	0.0
138.001	1.0	go	0.649	Go_X	1.0
140.525	1.0	go	0.541	Go_O	1.0
143.049	1.0	go	0.477	Go_X	1.0
145.573	1.0	go	0.465	Go_O	1.0
148.097	1.0	go	0.514	Go_X	1.0
150.622	0.35	stopsuccess	0.0	Go_O	1.0
153.146	1.0	go	0.671	Go_O	1.0
155.67	1.0	go	0.602	Go_X	1.0
158.194	1.0	go	0.431	Go_X	1.0
160.718	1.0	go	0.426	Go_O	1.0
163.242	1.0	go	0.415	Go_X	1.0
165.767	1.0	go	0.388	Go_O	1.0
168.291	0.4	stopsuccess	0.0	Go_X	1.0
170.815	1.0	go	0.603	Go_X	1.0
173.339	1.0	go	0.39	Go_O	1.0
175.863	0.45	stopfail	0.478	Go_O	0.0
178.388	1.0	go	0.372	Go_O	1.0
180.912	0.4	stopfail	0.385	Go_X	0.0
183.436	0.35	stopfail	0.44	Go_O	0.0
185.96	1.0	go	0.775	Go_X	1.0
188.484	1.0	go	0.488	Go_X	1.0
191.009	1.0	go	0.711	Go_O	1.0
193.533	1.0	go	0.683	Go_O	1.0
196.057	0.3	stopsuccess	0.0	Go_X	1.0
198.581	1.0	go	0.569	Go_X	1.0
201.105	0.35	stopsuccess	0.0	Go_O	1.0
203.63	1.0	go	0.642	Go_O	1.0
206.154	1.0	go	0.532	Go_X	1.0
208.678	1.0	go	0.935	Go_X	1.0
211.202	1.0	go	0.461	Go_O	1.0
213.726	1.0	go	0.659	Go_O	1.0
216.251	1.0	go	0.635	Go_X	1.0
218.775	1.0	go	0.595	Go_X	1.0
221.299	1.0	go	0.508	Go_O	1.0
223.823	1.0	go	0.704	Go_O	1.0
226.347	0.4	stopfail	0.567	Go_X	0.0
228.871	1.0	go	0.626	Go_X	1.0
231.396	1.0	go	0.669	Go_X	1.0
233.92	1.0	go	0.688	Go_O	1.0
236.444	0.35	stopfail	0.545	Go_O	0.0
238.968	1.0	go	0.529	Go_X	1.0
241.492	1.0	go	0.701	Go_O	1.0
244.017	1.0	go	0.753	Go_O	1.0
246.541	1.0	go	0.707	Go_X	1.0
249.065	1.0	go	0.765	Go_X	1.0
251.589	1.0	go	0.765	Go_O	1.0
254.113	0.3	stopsuccess	0.0	Go_X	1.0
256.638	1.0	go	0.511	Go_O	1.0
259.162	1.0	go	0.694	Go_X	1.0
261.686	0.35	stopsuccess	0.0	Go_O	1.0
264.21	1.0	go	0.758	Go_X	1.0
266.734	1.0	go	0.799	Go_O	1.0
269.259	0.4	stopsuccess	0.0	Go_X	1.0
271.783	1.0	go	0.534	Go_X	0.0
274.307	0.45	stopfail	0.627	Go_O	0.0
276.831	1.0	go	0.574	Go_O	1.0
279.355	1.0	go	0.617	Go_X	1.0
281.88	1.0	go	0.0	Go_O	0.0
284.404	1.0	go	0.558	Go_X	0.0
286.928	1.0	go	0.482	Go_O	1.0
289.452	0.4	stopsuccess	0.0	Go_X	1.0
291.976	0.45	stopfail	0.491	Go_O	0.0
294.5	1.0	go	0.653	Go_X	1.0
297.025	1.0	go	0.598	Go_O	1.0
299.549	0.4	stopsuccess	0.0	Go_X	1.0
302.073	1.0	go	0.727	Go_O	1.0
304.597	1.0	go	0.596	Go_X	1.0
307.121	1.0	go	0.685	Go_O	1.0
309.646	1.0	go	0.516	Go_X	1.0
312.17	1.0	go	0.839	Go_X	1.0
314.694	1.0	go	0.661	Go_O	1.0
317.218	0.45	stopsuccess	0.0	Go_O	1.0
319.742	1.0	go	0.459	Go_O	1.0
322.267	1.0	go	0.468	Go_X	1.0
324.791	1.0	go	0.5	Go_X	1.0
327.315	1.0	go	0.0	Go_O	0.0
329.839	1.0	go	0.0	Go_X	0.0
332.363	0.5	stopfail	0.692	Go_X	0.0
334.888	1.0	go	0.42	Go_O	1.0
337.412	1.0	go	0.401	Go_O	1.0
339.936	1.0	go	0.592	Go_X	1.0
342.46	1.0	go	0.0	Go_O	0.0
344.984	0.45	stopsuccess	0.0	Go_O	1.0
347.509	1.0	go	0.801	Go_X	1.0
350.033	1.0	go	0.991	Go_X	1.0
352.557	0.5	stopfail	0.43	Go_X	0.0
355.081	1.0	go	0.412	Go_O	1.0
357.605	0.45	stopfail	0.574	Go_O	0.0
360.129	1.0	go	0.432	Go_O	1.0
362.654	1.0	go	0.591	Go_X	1.0
365.178	1.0	go	0.721	Go_X	1.0
367.702	1.0	go	0.39	Go_O	1.0
370.226	1.0	go	0.605	Go_X	1.0
372.75	1.0	go	0.497	Go_O	1.0
375.275	1.0	go	0.569	Go_X	1.0
377.799	0.4	stopsuccess	0.0	Go_X	1.0
380.323	1.0	go	0.558	Go_O	1.0
382.847	1.0	go	0.789	Go_O	1.0
385.371	1.0	go	0.568	Go_X	1.0
387.896	0.45	stopfail	0.5	Go_O	0.0
390.42	1.0	go	0.637	Go_O	1.0
392.944	1.0	go	0.45	Go_X	1.0
395.468	1.0	go	0.536	Go_O	1.0
397.992	1.0	go	0.575	Go_X	1.0
400.517	0.4	stopfail	0.502	Go_X	0.0
403.041	1.0	go	0.552	Go_X	1.0
405.565	1.0	go	0.658	Go_O	0.0
408.089	0.35	stopsuccess	0.0	Go_O	1.0
410.613	1.0	go	0.673	Go_X	1.0
413.138	1.0	go	0.0	Go_O	0.0
415.662	0.4	stopsuccess	0.0	Go_X	1.0
418.186	1.0	go	0.0	Go_O	0.0
420.71	1.0	go	0.0	Go_X	0.0
423.234	0.45	stopfail	0.406	Go_O	0.0
425.758	1.0	go	0.0	Go_X	0.0
428.283	1.0	go	0.575	Go_O	1.0
430.807	1.0	go	0.436	Go_X	1.0
433.331	1.0	go	0.708	Go_O	1.0
435.855	1.0	go	0.0	Go_O	0.0
438.379	1.0	go	0.491	Go_X	1.0
440.904	0.4	stopsuccess	0.0	Go_X	1.0
443.428	1.0	go	0.0	Go_O	0.0
445.952	0.45	stopfail	0.39	Go_O	0.0
448.476	1.0	go	0.427	Go_X	1.0
451.0	1.0	go	0.532	Go_O	1.0
453.525	1.0	go	0.44	Go_X	1.0
456.049	1.0	go	0.483	Go_X	1.0
458.573	1.0	go	0.653	Go_O	1.0
461.097	0.4	stopsuccess	0.0	Go_X	1.0
463.621	1.0	go	0.0	Go_X	0.0
466.146	1.0	go	0.393	Go_O	1.0
468.67	1.0	go	0.0	Go_X	0.0
471.194	0.45	stopfail	0.444	Go_O	0.0
473.718	0.4	stopfail	0.538	Go_X	0.0
476.242	0.35	stopfail	0.494	Go_O	0.0
478.767	1.0	go	0.61	Go_O	1.0
481.291	0.3	stopsuccess	0.0	Go_X	1.0
483.815	1.0	go	0.572	Go_O	1.0
486.339	1.0	go	0.0	Go_X	0.0
488.863	1.0	go	0.0	Go_X	0.0
491.387	1.0	go	0.0	Go_O	0.0
493.912	1.0	go	0.0	Go_X	0.0
496.436	1.0	go	0.0	Go_O	0.0
498.96	1.0	go	0.438	Go_O	1.0
501.484	1.0	go	0.494	Go_X	1.0
504.008	0.35	stopsuccess	0.0	Go_O	1.0
506.533	1.0	go	0.544	Go_O	1.0
509.057	1.0	go	0.55	Go_X	1.0
511.581	0.4	stopsuccess	0.0	Go_X	1.0
514.105	1.0	go	0.543	Go_O	1.0
516.629	1.0	go	0.0	Go_X	0.0
519.154	1.0	go	0.0	Go_O	0.0
521.678	1.0	go	0.0	Go_X	0.0
524.202	1.0	go	0.0	Go_X	0.0
526.726	0.45	stopfail	0.358	Go_O	0.0
529.25	1.0	go	0.409	Go_O	1.0
531.775	1.0	go	0.689	Go_O	1.0
534.299	1.0	go	0.553	Go_X	1.0
536.823	0.4	stopfail	0.457	Go_X	0.0
539.347	1.0	go	0.669	Go_X	1.0
541.871	0.35	stopsuccess	0.0	Go_O	1.0
544.396	1.0	go	0.676	Go_O	1.0
546.92	1.0	go	0.0	Go_X	0.0
549.444	1.0	go	0.0	Go_O	0.0
551.968	1.0	go	0.0	Go_O	0.0
554.492	1.0	go	0.545	Go_X	1.0
557.016	1.0	go	0.598	Go_O	1.0
559.541	1.0	go	0.642	Go_X	1.0
562.065	0.4	stopsuccess	0.0	Go_X	1.0
564.589	1.0	go	0.518	Go_O	1.0
567.113	1.0	go	0.0	Go_X	0.0
569.637	1.0	go	0.0	Go_X	0.0
572.162	1.0	go	0.547	Go_O	1.0
574.686	0.45	stopsuccess	0.0	Go_O	1.0
577.21	1.0	go	0.792	Go_O	1.0
579.734	0.5	stopsuccess	0.0	Go_X	1.0
582.258	1.0	go	0.0	Go_X	0.0
584.783	1.0	go	0.0	Go_O	0.0
587.307	0.55	stopsuccess	0.0	Go_O	1.0
589.831	1.0	go	0.0	Go_X	0.0
592.355	1.0	go	0.0	Go_X	0.0
594.879	1.0	go	0.418	Go_O	1.0
597.404	1.0	go	0.786	Go_O	1.0
599.928	1.0	go	0.593	Go_X	1.0
602.452	1.0	go	0.525	Go_O	1.0
604.976	1.0	go	0.506	Go_X	1.0
607.5	1.0	go	0.545	Go_O	1.0
610.025	1.0	go	0.588	Go_X	1.0
612.549	1.0	go	0.0	Go_O	0.0
615.073	0.6	stopsuccess	0.0	Go_X	1.0
617.597	1.0	go	0.442	Go_X	1.0
620.121	1.0	go	0.575	Go_X	1.0
622.645	0.65	stopfail	0.593	Go_O	0.0
625.17	1.0	go	0.888	Go_O	1.0
627.694	0.6	stopfail	0.528	Go_X	0.0
630.218	1.0	go	0.422	Go_O	1.0
632.742	1.0	go	0.523	Go_X	1.0
635.266	0.55	stopfail	0.37	Go_O	0.0
637.791	1.0	go	0.814	Go_O	1.0
640.315	0.5	stopsuccess	0.0	Go_X	1.0
642.839	1.0	go	0.0	Go_X	0.0
645.363	1.0	go	0.832	Go_O	1.0
647.887	1.0	go	0.58	Go_X	1.0
650.412	0.55	stopsuccess	0.0	Go_O	1.0
652.936	1.0	go	0.0	Go_X	0.0
655.46	1.0	go	0.0	Go_O	0.0
657.984	1.0	go	0.0	Go_X	0.0
660.508	1.0	go	0.447	Go_O	1.0
663.033	0.6	stopsuccess	0.0	Go_X	1.0
665.557	1.0	go	0.601	Go_X	1.0
668.081	1.0	go	0.0	Go_O	0.0
670.605	0.65	stopsuccess	0.0	Go_O	1.0
673.129	1.0	go	0.0	Go_X	0.0
675.654	1.0	go	0.0	Go_O	0.0
678.178	1.0	go	0.0	Go_X	0.0
680.702	1.0	go	0.0	Go_O	0.0
683.226	0.7	stopsuccess	0.0	Go_X	1.0
685.75	1.0	go	0.0	Go_X	0.0
688.274	0.75	stopsuccess	0.0	Go_O	1.0
690.799	1.0	go	0.406	Go_O	1.0
693.323	1.0	go	0.414	Go_O	1.0
695.847	0.8	stopfail	0.794	Go_X	0.0
698.371	1.0	go	0.0	Go_X	0.0
700.895	1.0	go	0.0	Go_O	0.0
703.42	1.0	go	0.0	Go_X	0.0
705.944	1.0	go	0.0	Go_X	0.0
708.468	0.75	stopsuccess	0.0	Go_O	1.0
710.992	1.0	go	0.534	Go_O	1.0
713.516	0.8	stopsuccess	0.0	Go_X	1.0
716.041	1.0	go	0.717	Go_X	1.0
718.565	1.0	go	0.72	Go_O	1.0
721.089	1.0	go	0.0	Go_X	0.0
723.613	1.0	go	0.0	Go_O	0.0
726.137	1.0	go	0.0	Go_X	0.0
728.662	1.0	go	0.0	Go_O	0.0
731.186	0.85	stopsuccess	0.0	Go_O	1.0
733.71	1.0	go	0.0	Go_X	0.0
736.234	1.0	go	0.0	Go_O	0.0
738.758	0.9	stopfail	0.74	Go_X	0.0
741.283	1.0	go	0.75	Go_X	1.0
743.807	1.0	go	0.461	Go_O	1.0
746.331	0.85	stopfail	0.714	Go_O	0.0
748.855	1.0	go	0.478	Go_X	1.0
751.379	1.0	go	0.518	Go_O	1.0
753.903	1.0	go	0.686	Go_X	1.0
756.428	1.0	go	0.0	Go_O	0.0
758.952	0.8	stopsuccess	0.0	Go_X	1.0
761.476	1.0	go	0.0	Go_X	0.0
764.0	0.85	stopsuccess	0.0	Go_O	1.0
766.524	1.0	go	0.0	Go_O	0.0
769.049	1.0	go	0.629	Go_O	1.0
771.573	1.0	go	0.684	Go_X	1.0
774.097	1.0	go	0.676	Go_O	1.0
776.621	1.0	go	0.789	Go_X	1.0
779.145	0.9	stopsuccess	0.0	Go_X	1.0
781.67	1.0	go	0.0	Go_X	0.0
784.194	1.0	go	0.0	Go_O	0.0
786.718	0.95	stopsuccess	0.0	Go_O	1.0
789.242	1.0	stopsuccess	0.0	Go_X	1.0
791.783	1.0	go	0.0	Go_O	0.0
794.307	1.0	go	0.624	Go_X	1.0
796.831	1.0	go	0.655	Go_O	1.0
799.356	1.0	go	0.648	Go_X	1.0
801.88	1.05	stopfail	0.574	Go_O	0.0
804.471	1.0	go	0.925	Go_O	1.0
