onset	duration	trial_type	response_time	stim_file	accuracy
427.792	1.0	go	0.0	Go_O	0.0
430.366	1.0	go	0.369	Go_X	1.0
432.89	1.0	go	0.26	Go_O	1.0
435.414	1.0	go	0.289	Go_X	1.0
437.938	1.0	go	0.37	Go_O	1.0
440.463	1.0	go	0.405	Go_X	1.0
442.987	0.25	stop	0.381	Go_O	0.0
445.511	1.0	go	0.276	Go_X	1.0
448.035	0.2	stop	0.47	Go_X	0.0
450.559	1.0	go	0.384	Go_O	1.0
453.083	1.0	go	0.406	Go_O	1.0
455.608	1.0	go	0.467	Go_X	1.0
458.132	0.15	stop	0.441	Go_O	0.0
460.656	1.0	go	0.578	Go_X	1.0
463.18	1.0	go	0.745	Go_O	1.0
465.704	0.1	stop	0.0	Go_X	1.0
468.228	0.15	stop	0.0	Go_O	1.0
470.753	1.0	go	0.607	Go_X	1.0
473.277	1.0	go	0.604	Go_O	1.0
475.801	0.2	stop	0.0	Go_X	1.0
478.325	1.0	go	0.619	Go_O	1.0
480.849	1.0	go	0.603	Go_X	1.0
483.373	0.25	stop	0.0	Go_O	1.0
485.898	1.0	go	0.631	Go_O	1.0
488.422	1.0	go	0.862	Go_X	1.0
490.946	0.3	stop	0.0	Go_X	1.0
493.47	1.0	go	0.52	Go_O	1.0
495.994	1.0	go	0.659	Go_X	1.0
498.518	0.35	stop	0.432	Go_O	0.0
501.043	1.0	go	0.516	Go_X	1.0
503.567	1.0	go	0.741	Go_O	1.0
506.091	1.0	go	0.729	Go_X	1.0
508.615	1.0	go	0.599	Go_O	1.0
511.139	1.0	go	0.433	Go_X	1.0
513.664	0.3	stop	0.444	Go_X	0.0
516.188	1.0	go	0.735	Go_O	1.0
518.712	1.0	go	0.665	Go_O	1.0
521.236	1.0	go	0.496	Go_X	1.0
523.76	1.0	go	0.602	Go_O	1.0
526.284	1.0	go	0.482	Go_X	1.0
528.809	0.25	stop	0.388	Go_O	0.0
531.333	1.0	go	0.673	Go_O	1.0
533.857	1.0	go	0.499	Go_X	1.0
536.381	1.0	go	0.388	Go_O	1.0
538.905	1.0	go	0.573	Go_X	1.0
541.429	1.0	go	0.501	Go_O	1.0
543.954	1.0	go	0.415	Go_X	1.0
546.478	0.2	stop	0.0	Go_X	1.0
549.002	1.0	go	0.505	Go_X	1.0
551.526	1.0	go	0.0	Go_O	0.0
554.05	0.25	stop	0.513	Go_O	0.0
556.574	1.0	go	0.403	Go_X	1.0
559.099	0.2	stop	0.0	Go_X	1.0
561.623	0.25	stop	0.0	Go_O	1.0
564.147	1.0	go	0.625	Go_O	1.0
566.671	1.0	go	0.34	Go_X	1.0
569.195	1.0	go	0.684	Go_O	1.0
571.719	1.0	go	0.821	Go_O	1.0
574.244	0.3	stop	0.0	Go_X	1.0
576.768	1.0	go	0.634	Go_X	1.0
579.292	0.35	stop	0.0	Go_O	1.0
581.816	1.0	go	0.622	Go_X	0.0
584.34	1.0	go	0.89	Go_O	1.0
586.864	1.0	go	0.511	Go_X	1.0
589.389	1.0	go	0.331	Go_O	1.0
591.913	1.0	go	0.0	Go_X	0.0
594.437	1.0	go	0.423	Go_O	1.0
596.961	1.0	go	0.618	Go_X	1.0
599.485	1.0	go	0.435	Go_O	1.0
602.01	1.0	go	0.456	Go_O	1.0
604.534	0.4	stop	0.458	Go_X	0.0
607.058	1.0	go	0.26	Go_X	0.0
609.582	1.0	go	0.609	Go_O	1.0
612.106	1.0	go	0.536	Go_X	1.0
614.63	0.35	stop	0.521	Go_O	0.0
617.155	1.0	go	0.673	Go_X	1.0
619.679	1.0	go	0.583	Go_O	1.0
622.203	1.0	go	0.808	Go_X	1.0
624.727	1.0	go	0.683	Go_O	1.0
627.251	1.0	go	0.738	Go_O	1.0
629.775	1.0	go	0.815	Go_X	1.0
632.3	0.3	stop	0.0	Go_X	1.0
634.824	1.0	go	0.493	Go_X	1.0
637.348	1.0	go	0.507	Go_O	1.0
639.872	0.35	stop	0.0	Go_O	1.0
642.396	1.0	go	0.632	Go_O	1.0
644.92	1.0	go	0.662	Go_X	1.0
647.445	0.4	stop	0.0	Go_X	1.0
649.969	1.0	go	0.511	Go_O	1.0
652.493	0.45	stop	0.0	Go_O	1.0
655.017	1.0	go	0.563	Go_X	1.0
657.541	1.0	go	0.626	Go_X	0.0
660.065	1.0	go	0.492	Go_O	1.0
662.59	1.0	go	0.545	Go_X	1.0
665.114	1.0	go	0.698	Go_O	1.0
667.638	0.5	stop	0.0	Go_X	1.0
670.162	0.55	stop	0.0	Go_O	1.0
672.686	1.0	go	0.585	Go_O	1.0
675.211	1.0	go	0.569	Go_X	1.0
677.735	0.6	stop	0.9	Go_X	0.0
680.259	1.0	go	0.679	Go_X	1.0
682.783	1.0	go	0.519	Go_O	1.0
685.307	1.0	go	0.644	Go_O	1.0
687.831	1.0	go	0.625	Go_X	1.0
690.356	1.0	go	0.7	Go_O	1.0
692.88	1.0	go	0.609	Go_X	1.0
695.404	0.55	stop	0.575	Go_O	0.0
697.928	1.0	go	0.61	Go_O	1.0
700.452	1.0	go	0.593	Go_X	1.0
702.976	1.0	go	0.831	Go_O	1.0
705.501	1.0	go	0.526	Go_X	1.0
708.025	1.0	go	0.492	Go_O	1.0
710.549	0.5	stop	0.365	Go_X	0.0
713.073	1.0	go	0.609	Go_X	0.0
715.597	1.0	go	0.705	Go_X	1.0
718.121	1.0	go	0.42	Go_O	1.0
720.646	1.0	go	0.564	Go_O	1.0
723.17	0.45	stop	0.464	Go_O	0.0
725.694	1.0	go	0.562	Go_X	1.0
728.218	1.0	go	0.698	Go_X	1.0
730.742	0.4	stop	0.689	Go_X	0.0
733.266	1.0	go	0.339	Go_O	1.0
735.791	0.35	stop	0.653	Go_O	0.0
738.315	1.0	go	0.884	Go_O	1.0
740.839	1.0	go	0.728	Go_X	1.0
743.363	1.0	go	0.0	Go_O	0.0
745.887	1.0	go	0.523	Go_X	1.0
748.411	1.0	go	0.869	Go_O	1.0
750.936	1.0	go	0.0	Go_X	0.0
753.46	1.0	go	0.0	Go_X	0.0
755.984	0.3	stop	0.0	Go_X	1.0
758.508	1.0	go	0.458	Go_O	1.0
761.032	1.0	go	0.456	Go_O	1.0
763.557	1.0	go	0.0	Go_X	0.0
766.081	0.35	stop	0.0	Go_O	1.0
768.605	1.0	go	0.729	Go_X	1.0
771.129	1.0	go	0.558	Go_O	1.0
773.653	1.0	go	0.585	Go_X	1.0
776.177	1.0	go	0.0	Go_O	0.0
778.702	0.4	stop	0.0	Go_X	1.0
781.226	1.0	go	0.0	Go_X	0.0
783.75	1.0	go	0.0	Go_O	0.0
786.274	0.45	stop	0.355	Go_O	0.0
788.798	1.0	go	0.393	Go_O	1.0
791.322	1.0	go	0.449	Go_X	1.0
793.847	0.4	stop	0.0	Go_X	1.0
796.371	1.0	go	0.402	Go_O	1.0
798.895	1.0	go	0.378	Go_X	1.0
801.419	0.45	stop	0.654	Go_O	0.0
803.943	1.0	go	0.624	Go_X	1.0
806.467	1.0	go	0.361	Go_O	1.0
808.992	1.0	go	0.547	Go_O	1.0
811.516	1.0	go	0.546	Go_X	1.0
814.04	1.0	go	0.613	Go_O	1.0
816.564	1.0	go	0.573	Go_X	1.0
819.088	0.4	stop	0.683	Go_X	0.0
821.612	1.0	go	0.0	Go_X	0.0
824.137	0.35	stop	0.502	Go_O	0.0
826.661	1.0	go	0.503	Go_O	1.0
829.185	1.0	go	0.0	Go_O	0.0
831.709	1.0	go	0.0	Go_X	0.0
834.233	1.0	go	0.0	Go_X	0.0
836.757	1.0	go	0.572	Go_O	1.0
839.282	0.3	stop	0.0	Go_X	1.0
841.806	1.0	go	0.426	Go_O	1.0
844.33	1.0	go	0.414	Go_X	1.0
846.854	1.0	go	0.0	Go_X	0.0
849.378	0.35	stop	0.0	Go_O	1.0
851.903	0.4	stop	0.594	Go_X	0.0
854.427	0.35	stop	0.543	Go_O	0.0
856.951	1.0	go	0.941	Go_O	1.0
859.475	0.3	stop	0.0	Go_X	1.0
861.999	1.0	go	0.907	Go_X	1.0
864.523	1.0	go	0.745	Go_O	1.0
867.048	1.0	go	0.426	Go_X	1.0
869.572	1.0	go	0.357	Go_O	1.0
872.096	1.0	go	0.584	Go_X	1.0
874.62	1.0	go	0.577	Go_O	1.0
877.144	1.0	go	0.427	Go_O	1.0
879.668	1.0	go	0.595	Go_X	1.0
882.193	0.35	stop	0.7	Go_O	0.0
884.717	1.0	go	0.814	Go_X	1.0
887.241	1.0	go	0.0	Go_O	0.0
889.765	0.3	stop	0.0	Go_X	1.0
892.289	1.0	go	0.984	Go_X	1.0
894.813	1.0	go	0.346	Go_O	1.0
897.338	1.0	go	0.405	Go_X	0.0
899.862	1.0	go	0.411	Go_O	1.0
902.386	1.0	go	0.516	Go_X	1.0
904.91	0.35	stop	0.78	Go_O	0.0
907.434	1.0	go	0.977	Go_O	1.0
909.958	1.0	go	0.625	Go_X	1.0
912.483	1.0	go	0.0	Go_O	0.0
915.007	0.3	stop	0.326	Go_X	0.0
917.531	1.0	go	0.292	Go_O	1.0
920.055	0.25	stop	0.0	Go_O	1.0
922.579	1.0	go	0.577	Go_X	1.0
925.103	1.0	go	0.379	Go_O	1.0
927.628	1.0	go	0.563	Go_X	1.0
930.152	1.0	go	0.518	Go_X	1.0
932.676	1.0	go	0.485	Go_O	1.0
935.2	1.0	go	0.887	Go_X	1.0
937.724	1.0	go	0.0	Go_O	0.0
940.249	0.3	stop	0.0	Go_X	1.0
942.773	1.0	go	0.708	Go_O	1.0
945.297	1.0	go	0.0	Go_X	0.0
947.821	1.0	go	0.0	Go_O	0.0
950.345	1.0	go	0.872	Go_X	1.0
952.869	0.35	stop	0.0	Go_O	1.0
955.394	1.0	go	0.0	Go_X	0.0
957.918	0.4	stop	0.0	Go_X	1.0
960.442	1.0	go	0.59	Go_O	1.0
962.966	1.0	go	0.993	Go_O	1.0
965.49	0.45	stop	0.0	Go_O	1.0
968.014	1.0	go	0.756	Go_X	1.0
970.539	1.0	go	0.0	Go_X	0.0
973.063	1.0	go	0.64	Go_O	1.0
975.587	1.0	go	0.837	Go_X	1.0
978.111	1.0	go	0.414	Go_O	1.0
980.635	1.0	go	0.0	Go_X	0.0
983.159	1.0	go	0.529	Go_O	1.0
985.684	1.0	go	0.628	Go_X	1.0
988.208	1.0	go	0.702	Go_O	1.0
990.732	1.0	go	0.768	Go_O	1.0
993.256	0.5	stop	0.596	Go_X	0.0
995.78	1.0	go	0.432	Go_X	1.0
998.304	1.0	go	0.497	Go_O	1.0
1000.829	0.45	stop	0.429	Go_O	0.0
1003.353	1.0	go	0.694	Go_X	1.0
1005.877	0.4	stop	0.0	Go_X	1.0
1008.401	1.0	go	0.666	Go_X	1.0
1010.925	1.0	go	0.86	Go_O	1.0
1013.45	0.45	stop	0.618	Go_O	0.0
1015.974	1.0	go	0.387	Go_O	1.0
1018.498	0.4	stop	0.737	Go_X	0.0
1021.022	1.0	go	0.512	Go_X	1.0
1023.546	1.0	go	0.0	Go_X	0.0
1026.07	1.0	go	0.296	Go_O	1.0
1028.595	0.35	stop	0.0	Go_O	1.0
1031.119	1.0	go	0.469	Go_O	1.0
1033.643	1.0	go	0.815	Go_X	1.0
1036.167	1.0	go	0.743	Go_O	1.0
1038.691	1.0	go	0.57	Go_X	1.0
1041.215	0.4	stop	0.557	Go_X	0.0
1043.74	1.0	go	0.923	Go_X	1.0
1046.264	1.0	go	0.516	Go_O	0.0
1048.788	0.35	stop	0.501	Go_O	0.0
1051.312	1.0	go	0.636	Go_X	1.0
1053.836	1.0	go	0.0	Go_O	0.0
1056.36	1.0	go	0.0	Go_X	0.0
1058.885	1.0	go	0.797	Go_O	1.0
1061.409	0.3	stop	0.0	Go_X	1.0
1063.933	1.0	go	0.625	Go_O	1.0
1066.457	0.35	stop	0.0	Go_O	1.0
1068.981	1.0	go	0.474	Go_X	1.0
1071.505	1.0	go	0.467	Go_O	1.0
1074.03	0.4	stop	0.0	Go_X	1.0
1076.554	1.0	go	0.481	Go_X	0.0
1079.078	1.0	go	0.837	Go_X	0.0
1081.602	1.0	go	0.597	Go_O	1.0
1084.126	1.0	go	0.515	Go_O	1.0
1086.65	0.45	stop	0.458	Go_O	0.0
1089.175	1.0	go	0.614	Go_X	1.0
1091.699	0.4	stop	0.498	Go_X	0.0
1094.223	1.0	go	0.493	Go_X	1.0
1096.747	1.0	go	0.462	Go_O	1.0
1099.271	1.0	go	0.513	Go_X	1.0
1101.796	1.0	go	0.368	Go_O	1.0
1104.32	1.0	go	0.457	Go_O	1.0
1106.844	1.0	go	0.381	Go_X	1.0
1109.368	0.35	stop	0.444	Go_O	0.0
1111.892	1.0	go	0.459	Go_O	1.0
1114.416	1.0	go	0.444	Go_X	1.0
1116.941	0.3	stop	0.444	Go_X	0.0
1119.465	1.0	go	0.366	Go_O	1.0
1121.989	1.0	go	0.627	Go_X	1.0
1124.513	0.25	stop	0.0	Go_O	1.0
1127.037	1.0	go	0.846	Go_O	1.0
1129.561	1.0	go	0.313	Go_X	1.0
1132.086	1.0	go	0.17	Go_O	1.0
1134.61	1.0	go	0.0	Go_X	0.0
1137.134	0.3	stop	0.0	Go_X	1.0
1139.658	1.0	go	0.0	Go_X	0.0
1142.182	0.35	stop	0.0	Go_O	1.0
1144.706	1.0	go	0.0	Go_O	0.0
1147.231	1.0	go	0.799	Go_O	0.0
1149.755	1.0	go	0.0	Go_X	0.0
1152.279	1.0	go	0.735	Go_X	0.0
1154.803	1.0	go	0.0	Go_O	0.0
1157.327	0.4	stop	0.0	Go_X	1.0
1159.851	1.0	go	0.927	Go_X	1.0
1162.376	1.0	go	0.743	Go_O	1.0
1164.9	0.45	stop	0.596	Go_O	0.0
1167.424	0.4	stop	0.655	Go_X	0.0
1169.948	1.0	go	0.891	Go_X	1.0
1172.472	1.0	go	0.386	Go_O	1.0
1174.997	1.0	go	0.397	Go_O	1.0
1177.521	1.0	go	0.343	Go_X	1.0
1180.045	0.35	stop	0.604	Go_O	0.0
1182.569	1.0	go	0.53	Go_O	1.0
