onset	duration	trial_type	response_time	stim_file	accuracy
55.027	1.0	go	0.565	Go_X	0.0
57.551	1.0	go	0.409	Go_O	1.0
60.075	1.0	go	0.334	Go_X	1.0
62.599	1.0	go	0.563	Go_O	1.0
65.124	1.0	go	0.354	Go_O	1.0
67.648	1.0	go	0.259	Go_X	1.0
70.172	0.25	stopsuccess	0.0	Go_O	1.0
72.696	1.0	go	0.323	Go_X	1.0
75.221	0.3	stopfail	0.354	Go_X	0.0
77.745	1.0	go	0.414	Go_O	1.0
80.269	1.0	go	0.318	Go_X	1.0
82.793	1.0	go	0.488	Go_O	1.0
85.317	0.25	stopfail	0.312	Go_O	0.0
87.842	1.0	go	0.515	Go_O	1.0
90.366	1.0	go	0.219	Go_X	1.0
92.89	0.2	stopfail	0.288	Go_X	0.0
95.414	0.15	stopsuccess	0.0	Go_O	1.0
97.939	1.0	go	0.46	Go_X	1.0
100.463	1.0	go	0.422	Go_O	1.0
102.987	0.2	stopsuccess	0.0	Go_X	1.0
105.511	1.0	go	0.364	Go_X	1.0
108.036	1.0	go	0.406	Go_O	1.0
110.56	0.25	stopsuccess	0.0	Go_O	1.0
113.084	1.0	go	0.278	Go_X	1.0
115.608	1.0	go	0.419	Go_O	1.0
118.132	0.3	stopfail	0.394	Go_X	0.0
120.657	1.0	go	0.38	Go_O	1.0
123.181	1.0	go	0.248	Go_X	1.0
125.705	0.25	stopfail	0.23	Go_O	0.0
128.229	1.0	go	0.389	Go_O	1.0
130.754	1.0	go	0.334	Go_X	1.0
133.278	1.0	go	0.341	Go_O	1.0
135.802	1.0	go	0.278	Go_X	1.0
138.326	1.0	go	0.74	Go_X	1.0
140.85	0.2	stopsuccess	0.0	Go_X	1.0
143.375	1.0	go	0.379	Go_O	1.0
145.899	1.0	go	0.296	Go_X	1.0
148.423	1.0	go	0.365	Go_O	1.0
150.947	1.0	go	0.347	Go_X	1.0
153.472	1.0	go	0.401	Go_O	1.0
155.996	0.25	stopfail	0.302	Go_O	0.0
158.52	1.0	go	0.248	Go_X	1.0
161.044	1.0	go	0.34	Go_O	1.0
163.568	1.0	go	0.322	Go_O	0.0
166.093	1.0	go	0.31	Go_X	1.0
168.617	1.0	go	0.4	Go_X	1.0
171.141	1.0	go	0.546	Go_O	1.0
173.665	0.2	stopfail	0.286	Go_X	0.0
176.19	1.0	go	0.385	Go_X	1.0
178.714	1.0	go	0.385	Go_O	1.0
181.238	0.15	stopsuccess	0.0	Go_O	1.0
183.762	1.0	go	0.583	Go_X	1.0
186.286	0.2	stopsuccess	0.0	Go_X	1.0
188.811	0.25	stopfail	0.37	Go_O	0.0
191.335	1.0	go	0.473	Go_O	1.0
193.859	1.0	go	0.458	Go_O	1.0
196.383	1.0	go	0.276	Go_X	1.0
198.908	1.0	go	0.298	Go_O	1.0
201.432	0.2	stopfail	0.238	Go_X	0.0
203.956	1.0	go	0.348	Go_X	1.0
206.48	0.15	stopsuccess	0.0	Go_O	1.0
209.004	1.0	go	0.357	Go_O	1.0
211.529	1.0	go	0.307	Go_X	1.0
214.053	1.0	go	0.42	Go_O	1.0
216.577	1.0	go	0.277	Go_X	1.0
219.101	1.0	go	0.689	Go_X	1.0
221.626	1.0	go	0.382	Go_O	1.0
224.15	1.0	go	0.378	Go_O	1.0
226.674	1.0	go	0.301	Go_X	1.0
229.198	1.0	go	0.245	Go_X	1.0
231.723	0.2	stopsuccess	0.0	Go_X	1.0
234.247	1.0	go	0.205	Go_O	1.0
236.771	1.0	go	0.226	Go_X	1.0
239.295	1.0	go	0.343	Go_O	1.0
241.819	0.25	stopsuccess	0.0	Go_O	1.0
244.344	1.0	go	0.225	Go_O	0.0
246.868	1.0	go	0.265	Go_X	1.0
249.392	1.0	go	0.357	Go_O	1.0
251.916	1.0	go	0.277	Go_X	1.0
254.441	1.0	go	0.291	Go_X	1.0
256.965	1.0	go	0.299	Go_O	1.0
259.489	0.3	stopfail	0.25	Go_X	0.0
262.013	1.0	go	0.357	Go_O	1.0
264.537	1.0	go	0.252	Go_X	1.0
267.062	0.25	stopfail	0.324	Go_O	0.0
269.586	1.0	go	0.414	Go_O	1.0
272.11	1.0	go	0.303	Go_X	1.0
274.634	0.2	stopsuccess	0.0	Go_X	1.0
277.159	1.0	go	0.34	Go_O	1.0
279.683	0.25	stopsuccess	0.0	Go_O	1.0
282.207	1.0	go	0.262	Go_X	1.0
284.731	1.0	go	0.345	Go_O	1.0
287.255	1.0	go	0.351	Go_X	1.0
289.78	1.0	go	0.406	Go_X	1.0
292.304	1.0	go	0.327	Go_O	1.0
294.828	0.3	stopfail	0.381	Go_X	0.0
297.352	0.25	stopsuccess	0.0	Go_O	1.0
299.877	1.0	go	0.49	Go_O	1.0
302.401	1.0	go	0.243	Go_X	1.0
304.925	0.3	stopfail	0.287	Go_X	0.0
307.449	1.0	go	0.391	Go_X	1.0
309.973	1.0	go	0.469	Go_O	1.0
312.498	1.0	go	0.5	Go_O	1.0
315.022	1.0	go	0.427	Go_X	1.0
317.546	1.0	go	0.575	Go_X	1.0
320.07	1.0	go	0.36	Go_O	1.0
322.595	0.25	stopsuccess	0.0	Go_O	1.0
325.119	1.0	go	0.556	Go_X	1.0
327.643	1.0	go	0.439	Go_O	1.0
330.167	1.0	go	0.424	Go_X	1.0
332.692	1.0	go	0.408	Go_O	1.0
335.216	1.0	go	0.395	Go_O	1.0
337.74	0.3	stopfail	0.321	Go_X	0.0
340.264	1.0	go	0.321	Go_X	1.0
342.788	1.0	go	0.38	Go_X	1.0
345.313	1.0	go	0.425	Go_O	1.0
347.837	1.0	go	0.527	Go_O	1.0
350.361	0.25	stopsuccess	0.0	Go_O	1.0
352.885	1.0	go	0.347	Go_X	1.0
355.41	1.0	go	0.413	Go_X	1.0
357.934	0.3	stopfail	0.412	Go_X	0.0
360.458	1.0	go	0.275	Go_O	1.0
362.982	0.25	stopsuccess	0.0	Go_O	1.0
365.506	1.0	go	0.286	Go_X	1.0
368.031	1.0	go	0.444	Go_O	1.0
370.555	1.0	go	0.325	Go_X	1.0
373.079	1.0	go	0.431	Go_O	1.0
375.603	1.0	go	0.579	Go_X	1.0
378.128	1.0	go	0.403	Go_O	1.0
380.652	1.0	go	0.414	Go_O	1.0
383.176	0.3	stopfail	0.309	Go_X	0.0
385.7	1.0	go	0.364	Go_X	1.0
388.224	1.0	go	0.421	Go_X	1.0
390.749	1.0	go	0.373	Go_O	1.0
393.273	0.25	stopfail	0.271	Go_O	0.0
395.797	1.0	go	0.314	Go_X	1.0
398.321	1.0	go	0.359	Go_O	1.0
400.846	1.0	go	0.36	Go_O	1.0
403.37	1.0	go	0.396	Go_X	1.0
405.894	0.2	stopfail	0.335	Go_X	0.0
408.418	1.0	go	0.335	Go_X	1.0
410.942	1.0	go	0.643	Go_O	1.0
413.467	0.15	stopsuccess	0.0	Go_O	1.0
415.991	1.0	go	0.38	Go_X	1.0
418.515	1.0	go	0.458	Go_O	1.0
421.039	0.2	stopfail	0.412	Go_X	0.0
423.564	1.0	go	0.421	Go_X	1.0
426.088	1.0	go	0.34	Go_O	1.0
428.612	0.15	stopsuccess	0.0	Go_O	1.0
431.136	1.0	go	0.442	Go_O	1.0
433.66	1.0	go	0.186	Go_X	1.0
436.185	1.0	go	0.401	Go_X	1.0
438.709	1.0	go	0.363	Go_O	1.0
441.233	1.0	go	0.234	Go_O	1.0
443.757	1.0	go	0.215	Go_X	1.0
446.282	0.2	stopsuccess	0.0	Go_X	1.0
448.823	1.0	go	0.213	Go_X	1.0
451.347	0.25	stopfail	0.421	Go_O	0.0
453.871	1.0	go	0.562	Go_O	1.0
456.395	1.0	go	0.379	Go_O	1.0
458.919	1.0	go	0.306	Go_X	1.0
461.444	1.0	go	0.708	Go_X	1.0
463.968	1.0	go	0.369	Go_O	1.0
466.492	0.2	stopfail	0.341	Go_X	0.0
469.016	1.0	go	0.21	Go_O	1.0
471.541	1.0	go	0.425	Go_X	1.0
474.065	1.0	go	0.211	Go_X	1.0
476.589	0.15	stopfail	0.351	Go_O	0.0
479.113	0.1	stopsuccess	0.0	Go_X	1.0
481.637	0.15	stopfail	0.287	Go_O	0.0
484.162	1.0	go	0.562	Go_O	1.0
486.686	0.1	stopfail	0.254	Go_X	0.0
489.21	1.0	go	0.597	Go_O	1.0
491.734	1.0	go	0.549	Go_X	1.0
494.259	1.0	go	0.49	Go_O	1.0
496.783	1.0	go	0.289	Go_X	1.0
499.307	1.0	go	0.351	Go_X	1.0
501.831	1.0	go	0.512	Go_O	1.0
504.355	1.0	go	0.362	Go_X	1.0
506.88	1.0	go	0.47	Go_O	1.0
509.404	0.05	stopsuccess	0.0	Go_O	1.0
511.928	1.0	go	0.248	Go_X	1.0
514.452	1.0	go	0.711	Go_O	1.0
516.977	0.1	stopsuccess	0.0	Go_X	1.0
519.518	1.0	go	0.384	Go_O	1.0
522.042	1.0	go	0.375	Go_X	1.0
524.566	1.0	go	0.377	Go_X	1.0
527.09	1.0	go	0.484	Go_O	1.0
529.614	1.0	go	0.356	Go_X	1.0
532.139	0.15	stopsuccess	0.0	Go_O	1.0
534.663	1.0	go	0.417	Go_O	1.0
537.187	1.0	go	0.412	Go_O	1.0
539.711	1.0	go	0.392	Go_X	1.0
542.236	0.2	stopfail	0.365	Go_X	0.0
544.76	1.0	go	0.532	Go_X	1.0
547.284	0.15	stopsuccess	0.0	Go_O	1.0
549.808	1.0	go	0.415	Go_O	1.0
552.332	1.0	go	0.325	Go_X	1.0
554.857	1.0	go	0.403	Go_O	1.0
557.381	1.0	go	0.328	Go_X	1.0
559.905	1.0	go	0.465	Go_O	1.0
562.429	1.0	go	0.659	Go_O	1.0
564.954	1.0	go	0.436	Go_X	1.0
567.478	0.2	stopfail	0.272	Go_X	0.0
570.002	1.0	go	0.428	Go_X	1.0
572.526	1.0	go	0.404	Go_O	1.0
575.05	1.0	go	0.512	Go_X	1.0
577.575	1.0	go	0.448	Go_O	1.0
580.099	0.15	stopsuccess	0.0	Go_O	1.0
582.623	1.0	go	0.325	Go_O	1.0
585.147	0.2	stopfail	0.394	Go_X	0.0
587.672	1.0	go	0.783	Go_X	1.0
590.196	1.0	go	0.532	Go_X	1.0
592.72	0.15	stopfail	0.539	Go_O	0.0
595.244	1.0	go	0.351	Go_O	1.0
597.769	1.0	go	0.464	Go_O	1.0
600.293	1.0	go	0.281	Go_X	1.0
602.817	1.0	go	0.338	Go_X	1.0
605.341	1.0	go	0.321	Go_O	1.0
607.865	1.0	go	0.568	Go_O	1.0
610.39	1.0	go	0.356	Go_X	1.0
612.914	1.0	go	0.463	Go_O	1.0
615.438	1.0	go	0.796	Go_X	0.0
617.962	1.0	go	0.247	Go_O	1.0
620.487	0.1	stopsuccess	0.0	Go_X	1.0
623.011	1.0	go	0.239	Go_X	1.0
625.535	1.0	go	0.413	Go_X	1.0
628.059	0.15	stopsuccess	0.0	Go_O	1.0
630.583	1.0	go	0.272	Go_O	1.0
633.108	0.2	stopfail	0.362	Go_X	0.0
635.632	1.0	go	0.492	Go_X	1.0
638.156	1.0	go	0.508	Go_O	1.0
640.68	0.15	stopsuccess	0.0	Go_O	1.0
643.205	1.0	go	0.82	Go_O	1.0
645.729	0.2	stopsuccess	0.0	Go_X	1.0
648.253	1.0	go	0.237	Go_X	1.0
650.777	1.0	go	0.504	Go_O	1.0
653.301	1.0	go	0.444	Go_X	1.0
655.826	0.25	stopsuccess	0.0	Go_O	1.0
658.35	1.0	go	0.442	Go_X	1.0
660.874	1.0	go	0.37	Go_O	1.0
663.398	1.0	go	0.467	Go_O	1.0
665.923	1.0	go	0.641	Go_X	1.0
668.447	0.3	stopfail	0.631	Go_X	0.0
670.971	1.0	go	0.42	Go_O	1.0
673.495	1.0	go	0.384	Go_X	1.0
676.019	0.25	stopsuccess	0.0	Go_O	1.0
678.544	1.0	go	0.412	Go_O	1.0
681.068	1.0	go	0.408	Go_X	1.0
683.592	1.0	go	0.888	Go_O	1.0
686.116	1.0	go	0.605	Go_X	1.0
688.641	0.3	stopfail	0.53	Go_X	0.0
691.165	1.0	go	0.862	Go_O	1.0
693.689	0.25	stopfail	0.438	Go_O	0.0
696.213	1.0	go	0.346	Go_X	1.0
698.737	1.0	go	0.663	Go_O	1.0
701.262	0.2	stopsuccess	0.0	Go_X	1.0
703.786	1.0	go	0.501	Go_X	1.0
706.31	1.0	go	0.322	Go_O	1.0
708.834	1.0	go	0.548	Go_X	1.0
711.359	1.0	go	0.456	Go_X	1.0
713.883	0.25	stopsuccess	0.0	Go_O	1.0
716.407	1.0	go	0.587	Go_O	1.0
718.931	0.3	stopsuccess	0.0	Go_X	1.0
721.456	1.0	go	0.732	Go_O	1.0
723.98	1.0	go	0.405	Go_X	1.0
726.504	1.0	go	0.443	Go_O	1.0
729.028	1.0	go	0.445	Go_X	1.0
731.552	1.0	go	0.497	Go_X	1.0
734.077	1.0	go	0.557	Go_O	1.0
736.601	0.35	stopfail	0.516	Go_O	0.0
739.125	1.0	go	0.395	Go_O	1.0
741.649	1.0	go	0.294	Go_X	1.0
744.174	0.3	stopfail	0.362	Go_X	0.0
746.698	1.0	go	0.408	Go_O	1.0
749.222	1.0	go	0.393	Go_X	1.0
751.746	0.25	stopfail	0.424	Go_O	0.0
754.27	1.0	go	0.492	Go_O	1.0
756.795	1.0	go	0.442	Go_X	1.0
759.319	1.0	go	0.511	Go_X	1.0
761.843	1.0	go	0.424	Go_O	1.0
764.367	0.2	stopfail	0.402	Go_X	0.0
766.892	1.0	go	0.408	Go_O	1.0
769.416	0.15	stopsuccess	0.0	Go_O	1.0
771.94	1.0	go	0.387	Go_X	1.0
774.464	1.0	go	0.333	Go_X	1.0
776.988	1.0	go	0.411	Go_O	1.0
779.513	1.0	go	0.712	Go_X	1.0
782.037	1.0	go	0.419	Go_O	1.0
784.561	0.2	stopfail	0.372	Go_X	0.0
787.085	1.0	go	0.334	Go_X	1.0
789.61	1.0	go	0.39	Go_O	1.0
792.134	0.15	stopsuccess	0.0	Go_O	1.0
794.658	0.2	stopfail	0.293	Go_X	0.0
797.182	1.0	go	0.414	Go_O	1.0
799.706	1.0	go	0.475	Go_X	1.0
802.231	1.0	go	0.373	Go_O	1.0
804.755	1.0	go	0.229	Go_X	1.0
807.279	0.15	stopfail	0.343	Go_O	0.0
809.803	1.0	go	0.298	Go_X	1.0
