onset	duration	trial_type	response_time	stim_file	accuracy
55.634	1.0	go	0.0	Go_O	0.0
58.208	1.0	go	0.345	Go_X	1.0
60.732	1.0	go	0.361	Go_O	1.0
63.256	1.0	go	0.308	Go_X	1.0
65.78	1.0	go	0.276	Go_O	1.0
68.305	1.0	go	0.283	Go_X	1.0
70.829	0.25	stopsuccess	0.0	Go_O	1.0
73.353	1.0	go	0.296	Go_X	1.0
75.877	0.3	stopfail	0.337	Go_X	0.0
78.401	1.0	go	0.437	Go_O	1.0
80.925	1.0	go	0.385	Go_X	1.0
83.45	1.0	go	0.486	Go_O	1.0
85.974	0.25	stopsuccess	0.0	Go_O	1.0
88.498	1.0	go	0.349	Go_O	1.0
91.022	1.0	go	0.31	Go_X	0.0
93.546	0.3	stopfail	0.369	Go_X	0.0
96.07	0.25	stopfail	0.294	Go_O	0.0
98.595	1.0	go	0.386	Go_O	1.0
101.119	1.0	go	0.442	Go_X	1.0
103.643	0.2	stopfail	0.32	Go_X	0.0
106.167	1.0	go	0.379	Go_O	1.0
108.691	1.0	go	0.476	Go_X	1.0
111.215	0.15	stopsuccess	0.0	Go_O	1.0
113.74	1.0	go	0.368	Go_X	1.0
116.264	1.0	go	0.43	Go_O	1.0
118.788	0.2	stopsuccess	0.0	Go_X	1.0
121.329	1.0	go	0.317	Go_O	1.0
123.853	1.0	go	0.394	Go_X	1.0
126.377	0.25	stopsuccess	0.0	Go_O	1.0
128.901	1.0	go	0.403	Go_O	1.0
131.426	1.0	go	0.265	Go_X	1.0
133.95	1.0	go	0.478	Go_O	1.0
136.474	1.0	go	0.526	Go_X	1.0
138.998	1.0	go	0.498	Go_X	1.0
141.522	0.3	stopfail	0.467	Go_X	0.0
144.046	1.0	go	0.258	Go_O	1.0
146.571	1.0	go	0.468	Go_O	1.0
149.095	1.0	go	0.593	Go_X	1.0
151.619	1.0	go	0.451	Go_O	1.0
154.143	1.0	go	0.508	Go_X	1.0
156.667	0.25	stopsuccess	0.0	Go_O	1.0
159.191	1.0	go	0.357	Go_X	1.0
161.716	1.0	go	0.45	Go_O	1.0
164.24	1.0	go	0.517	Go_X	1.0
166.764	1.0	go	0.368	Go_O	1.0
169.288	1.0	go	0.411	Go_X	1.0
171.812	1.0	go	0.389	Go_O	1.0
174.336	0.3	stopsuccess	0.0	Go_X	1.0
176.861	1.0	go	0.533	Go_X	1.0
179.385	1.0	go	0.448	Go_O	1.0
181.909	0.35	stopfail	0.358	Go_O	0.0
184.433	1.0	go	0.363	Go_O	1.0
186.957	0.3	stopfail	0.419	Go_X	0.0
189.482	0.25	stopsuccess	0.0	Go_O	1.0
192.006	1.0	go	0.44	Go_X	1.0
194.53	1.0	go	0.361	Go_X	1.0
197.054	1.0	go	0.401	Go_O	1.0
199.578	1.0	go	0.407	Go_O	1.0
202.102	0.3	stopfail	0.443	Go_X	0.0
204.627	1.0	go	0.544	Go_X	1.0
207.151	0.25	stopsuccess	0.0	Go_O	1.0
209.675	1.0	go	0.559	Go_X	1.0
212.199	1.0	go	0.678	Go_O	1.0
214.723	1.0	go	0.438	Go_O	1.0
217.247	1.0	go	0.385	Go_X	1.0
219.772	1.0	go	0.392	Go_X	1.0
222.296	1.0	go	0.51	Go_O	1.0
224.82	1.0	go	0.663	Go_O	1.0
227.344	1.0	go	0.589	Go_X	1.0
229.868	1.0	go	0.544	Go_O	1.0
232.392	0.3	stopfail	0.428	Go_X	0.0
234.917	1.0	go	0.435	Go_X	1.0
237.441	1.0	go	0.434	Go_X	1.0
239.965	1.0	go	0.387	Go_O	1.0
242.489	0.25	stopsuccess	0.0	Go_O	1.0
245.013	1.0	go	0.391	Go_O	1.0
247.537	1.0	go	0.371	Go_X	1.0
250.062	1.0	go	0.254	Go_X	1.0
252.586	1.0	go	0.56	Go_O	1.0
255.11	1.0	go	0.287	Go_X	1.0
257.634	1.0	go	0.491	Go_O	1.0
260.158	0.3	stopfail	0.28	Go_X	0.0
262.682	1.0	go	0.332	Go_O	1.0
265.207	1.0	go	0.375	Go_X	1.0
267.731	0.25	stopsuccess	0.0	Go_O	1.0
270.255	1.0	go	0.343	Go_X	1.0
272.779	1.0	go	0.406	Go_O	1.0
275.303	0.3	stopfail	0.323	Go_X	0.0
277.828	1.0	go	0.36	Go_X	1.0
280.352	0.25	stopsuccess	0.0	Go_O	1.0
282.876	1.0	go	0.489	Go_O	1.0
285.4	1.0	go	0.408	Go_X	1.0
287.924	1.0	go	0.455	Go_O	1.0
290.448	1.0	go	0.383	Go_O	1.0
292.973	1.0	go	0.388	Go_X	1.0
295.497	0.3	stopfail	0.305	Go_X	0.0
298.021	0.25	stopsuccess	0.0	Go_O	1.0
300.545	1.0	go	0.379	Go_X	1.0
303.069	1.0	go	0.419	Go_O	1.0
305.593	0.3	stopfail	0.368	Go_X	0.0
308.118	1.0	go	0.523	Go_X	1.0
310.642	1.0	go	0.525	Go_O	1.0
313.166	1.0	go	0.626	Go_X	1.0
315.69	1.0	go	0.704	Go_O	1.0
318.214	1.0	go	0.686	Go_O	1.0
320.738	1.0	go	0.359	Go_X	1.0
323.263	0.25	stopsuccess	0.0	Go_O	1.0
325.787	1.0	go	0.379	Go_X	1.0
328.311	1.0	go	0.684	Go_O	1.0
330.835	1.0	go	0.36	Go_O	1.0
333.359	1.0	go	0.36	Go_X	1.0
335.883	1.0	go	0.523	Go_O	1.0
338.408	0.3	stopsuccess	0.0	Go_X	1.0
340.932	1.0	go	0.399	Go_X	1.0
343.456	1.0	go	0.479	Go_X	1.0
345.98	1.0	go	0.284	Go_O	1.0
348.504	1.0	go	0.495	Go_O	1.0
351.029	0.35	stopsuccess	0.0	Go_O	1.0
353.553	1.0	go	0.407	Go_X	1.0
356.077	1.0	go	0.531	Go_X	1.0
358.601	0.4	stopfail	0.421	Go_X	0.0
361.125	1.0	go	0.304	Go_O	1.0
363.649	0.35	stopfail	0.396	Go_O	0.0
366.174	1.0	go	0.475	Go_O	1.0
368.698	1.0	go	0.448	Go_X	1.0
371.222	1.0	go	0.471	Go_O	1.0
373.746	1.0	go	0.419	Go_X	1.0
376.27	1.0	go	0.664	Go_O	1.0
378.794	1.0	go	0.541	Go_X	1.0
381.319	1.0	go	0.42	Go_X	1.0
383.843	0.3	stopsuccess	0.0	Go_X	1.0
386.367	1.0	go	0.336	Go_O	1.0
388.891	1.0	go	0.347	Go_X	1.0
391.415	1.0	go	0.247	Go_O	1.0
393.939	0.35	stopfail	0.465	Go_O	0.0
396.464	1.0	go	0.393	Go_O	1.0
398.988	1.0	go	0.373	Go_X	1.0
401.512	1.0	go	0.404	Go_X	1.0
404.036	1.0	go	0.446	Go_O	1.0
406.56	0.3	stopsuccess	0.0	Go_X	1.0
409.084	1.0	go	0.397	Go_X	1.0
411.609	1.0	go	0.384	Go_O	1.0
414.133	0.35	stopfail	0.454	Go_O	0.0
416.674	1.0	go	0.482	Go_O	1.0
419.198	1.0	go	0.545	Go_X	1.0
421.722	0.3	stopfail	0.436	Go_X	0.0
424.246	1.0	go	0.363	Go_X	1.0
426.77	1.0	go	0.4	Go_O	1.0
429.295	0.25	stopsuccess	0.0	Go_O	1.0
431.819	1.0	go	0.558	Go_O	1.0
434.343	1.0	go	0.604	Go_X	1.0
436.867	1.0	go	0.41	Go_O	1.0
439.391	1.0	go	0.384	Go_X	1.0
441.915	1.0	go	0.822	Go_O	1.0
444.44	1.0	go	0.456	Go_X	1.0
446.964	0.3	stopfail	0.319	Go_X	0.0
449.488	1.0	go	0.407	Go_X	1.0
452.012	0.25	stopsuccess	0.0	Go_O	1.0
454.536	1.0	go	0.413	Go_O	1.0
457.06	1.0	go	0.322	Go_X	1.0
459.585	1.0	go	0.626	Go_O	1.0
462.126	1.0	go	0.469	Go_X	1.0
464.65	1.0	go	0.542	Go_O	1.0
467.174	0.3	stopfail	0.371	Go_X	0.0
469.698	1.0	go	0.665	Go_O	1.0
472.222	1.0	go	0.401	Go_X	1.0
474.746	1.0	go	0.395	Go_X	1.0
477.271	0.25	stopsuccess	0.0	Go_O	1.0
479.795	0.3	stopsuccess	0.0	Go_X	1.0
482.319	0.35	stopfail	0.437	Go_O	0.0
484.843	1.0	go	0.481	Go_O	1.0
487.367	0.3	stopfail	0.429	Go_X	0.0
489.908	1.0	go	0.531	Go_X	1.0
492.432	1.0	go	0.487	Go_O	1.0
494.956	1.0	go	0.486	Go_O	1.0
497.481	1.0	go	0.422	Go_X	1.0
500.005	1.0	go	0.517	Go_O	1.0
502.529	1.0	go	0.312	Go_X	1.0
505.053	1.0	go	0.441	Go_X	1.0
507.577	1.0	go	0.523	Go_O	1.0
510.101	0.25	stopfail	0.413	Go_O	0.0
512.626	1.0	go	0.614	Go_O	1.0
515.15	1.0	go	0.373	Go_X	1.0
517.674	0.2	stopsuccess	0.0	Go_X	1.0
520.198	1.0	go	0.414	Go_O	1.0
522.722	1.0	go	0.465	Go_X	1.0
525.247	1.0	go	0.465	Go_X	1.0
527.771	1.0	go	0.403	Go_O	1.0
530.312	1.0	go	0.507	Go_O	1.0
532.836	0.25	stopsuccess	0.0	Go_O	1.0
535.36	1.0	go	0.444	Go_X	1.0
537.884	1.0	go	0.299	Go_O	1.0
540.408	1.0	go	0.381	Go_X	1.0
542.932	0.3	stopsuccess	0.0	Go_X	1.0
545.457	1.0	go	0.454	Go_X	1.0
547.981	0.35	stopfail	0.305	Go_O	0.0
550.522	1.0	go	0.386	Go_O	1.0
553.046	1.0	go	0.351	Go_X	1.0
555.57	1.0	go	0.471	Go_O	1.0
558.094	1.0	go	0.651	Go_X	1.0
560.618	1.0	go	0.421	Go_O	1.0
563.143	1.0	go	0.399	Go_O	1.0
565.667	1.0	go	0.409	Go_X	1.0
568.191	0.3	stopfail	0.37	Go_X	0.0
570.715	1.0	go	0.407	Go_X	1.0
573.239	1.0	go	0.405	Go_O	1.0
575.763	1.0	go	0.412	Go_X	1.0
578.288	1.0	go	0.903	Go_O	1.0
580.812	0.25	stopfail	0.371	Go_O	0.0
583.336	1.0	go	0.335	Go_O	1.0
585.86	0.2	stopsuccess	0.0	Go_X	1.0
588.384	1.0	go	0.434	Go_X	1.0
590.908	1.0	go	0.595	Go_O	1.0
593.433	0.25	stopfail	0.374	Go_O	0.0
595.957	1.0	go	0.38	Go_X	1.0
598.481	1.0	go	0.433	Go_X	1.0
601.005	1.0	go	0.594	Go_O	1.0
603.529	1.0	go	0.421	Go_X	1.0
606.053	1.0	go	0.499	Go_O	1.0
608.578	1.0	go	0.564	Go_X	1.0
611.102	1.0	go	0.498	Go_O	1.0
613.626	1.0	go	0.388	Go_O	1.0
616.15	1.0	go	0.391	Go_X	1.0
618.674	1.0	go	0.615	Go_O	1.0
621.198	0.2	stopsuccess	0.0	Go_X	1.0
623.723	1.0	go	0.448	Go_X	1.0
626.247	1.0	go	0.428	Go_O	1.0
628.771	0.25	stopfail	0.359	Go_O	0.0
631.295	1.0	go	0.433	Go_X	1.0
633.819	0.2	stopsuccess	0.0	Go_X	1.0
636.343	1.0	go	0.551	Go_O	1.0
638.868	1.0	go	0.562	Go_X	1.0
641.392	0.25	stopsuccess	0.0	Go_O	1.0
643.916	1.0	go	0.738	Go_O	1.0
646.44	0.3	stopsuccess	0.0	Go_X	1.0
648.964	1.0	go	0.483	Go_X	1.0
651.489	1.0	go	0.345	Go_X	1.0
654.013	1.0	go	0.489	Go_O	1.0
656.537	0.35	stopfail	0.418	Go_O	0.0
659.061	1.0	go	0.398	Go_O	1.0
661.585	1.0	go	0.494	Go_X	1.0
664.109	1.0	go	0.441	Go_O	1.0
666.634	1.0	go	0.405	Go_X	1.0
669.158	0.3	stopfail	0.339	Go_X	0.0
671.682	1.0	go	0.484	Go_O	1.0
674.206	1.0	go	0.74	Go_X	1.0
676.73	0.25	stopsuccess	0.0	Go_O	1.0
679.254	1.0	go	0.432	Go_X	1.0
681.779	1.0	go	0.464	Go_O	1.0
684.303	1.0	go	0.632	Go_O	1.0
686.827	1.0	go	0.642	Go_X	1.0
689.351	0.3	stopfail	0.394	Go_X	0.0
691.875	1.0	go	0.442	Go_X	1.0
694.399	0.25	stopsuccess	0.0	Go_O	1.0
696.924	1.0	go	0.545	Go_O	1.0
699.448	1.0	go	0.436	Go_X	1.0
701.972	0.3	stopsuccess	0.0	Go_X	1.0
704.496	1.0	go	0.414	Go_O	1.0
707.02	1.0	go	0.901	Go_O	1.0
709.544	1.0	go	0.892	Go_X	1.0
712.069	1.0	go	0.381	Go_O	1.0
714.593	0.35	stopfail	0.397	Go_O	0.0
717.117	1.0	go	0.425	Go_X	1.0
719.641	0.3	stopfail	0.313	Go_X	0.0
722.165	1.0	go	0.4	Go_X	1.0
724.689	1.0	go	0.441	Go_O	1.0
727.214	1.0	go	0.424	Go_O	1.0
729.738	1.0	go	0.437	Go_X	1.0
732.262	1.0	go	0.475	Go_O	1.0
734.786	1.0	go	0.611	Go_X	1.0
737.31	0.25	stopsuccess	0.0	Go_O	1.0
739.835	1.0	go	0.457	Go_X	1.0
742.359	1.0	go	0.446	Go_O	1.0
744.883	0.3	stopfail	0.525	Go_X	0.0
747.407	1.0	go	0.386	Go_O	1.0
749.931	1.0	go	0.451	Go_X	1.0
752.455	0.25	stopsuccess	0.0	Go_O	1.0
754.98	1.0	go	0.463	Go_O	1.0
757.504	1.0	go	0.445	Go_X	1.0
760.028	1.0	go	0.517	Go_X	1.0
762.552	1.0	go	0.391	Go_O	1.0
765.076	0.3	stopfail	0.388	Go_X	0.0
767.6	1.0	go	0.49	Go_X	1.0
770.125	0.25	stopsuccess	0.0	Go_O	1.0
772.649	1.0	go	0.453	Go_O	1.0
775.173	1.0	go	0.313	Go_X	1.0
777.697	1.0	go	0.569	Go_O	1.0
780.221	1.0	go	0.541	Go_O	1.0
782.745	1.0	go	0.486	Go_X	1.0
785.27	0.3	stopsuccess	0.0	Go_X	1.0
787.794	1.0	go	0.313	Go_O	1.0
790.318	1.0	go	0.343	Go_X	1.0
792.842	0.35	stopsuccess	0.0	Go_O	1.0
795.366	0.4	stopfail	0.517	Go_X	0.0
797.89	1.0	go	0.501	Go_X	1.0
800.415	1.0	go	0.279	Go_O	1.0
802.939	1.0	go	0.354	Go_O	1.0
805.463	1.0	go	0.763	Go_X	1.0
807.987	0.35	stopsuccess	0.0	Go_O	1.0
810.511	1.0	go	0.687	Go_O	1.0
