onset	duration	trial_type	response_time	stim_file	accuracy
230.892	1.0	go	0.536	Go_O	1.0
233.483	1.0	go	0.232	Go_X	1.0
236.007	1.0	go	0.28	Go_X	0.0
238.531	1.0	go	0.299	Go_O	1.0
241.056	1.0	go	0.299	Go_X	1.0
243.58	1.0	go	0.497	Go_O	1.0
246.104	0.25	stopfail	0.429	Go_O	0.0
248.628	1.0	go	0.447	Go_O	1.0
251.152	0.2	stopfail	0.317	Go_X	0.0
253.676	1.0	go	0.502	Go_X	1.0
256.201	1.0	go	0.374	Go_O	1.0
258.725	1.0	go	0.495	Go_X	1.0
261.249	0.15	stopfail	0.323	Go_O	0.0
263.773	1.0	go	0.392	Go_X	1.0
266.297	1.0	go	0.447	Go_O	1.0
268.821	0.1	stopsuccess	0.0	Go_X	1.0
271.346	0.15	stopsuccess	0.0	Go_O	1.0
273.87	1.0	go	0.357	Go_X	1.0
276.394	1.0	go	0.334	Go_O	1.0
278.918	0.2	stopsuccess	0.0	Go_X	1.0
281.442	1.0	go	0.293	Go_O	1.0
283.967	1.0	go	0.374	Go_X	1.0
286.491	0.25	stopfail	0.375	Go_O	0.0
289.015	1.0	go	0.566	Go_X	1.0
291.539	1.0	go	0.587	Go_O	1.0
294.063	0.2	stopsuccess	0.0	Go_X	1.0
296.587	1.0	go	0.383	Go_X	1.0
299.112	1.0	go	0.571	Go_O	1.0
301.636	0.25	stopsuccess	0.0	Go_O	1.0
304.16	1.0	go	0.361	Go_O	1.0
306.684	1.0	go	0.645	Go_X	0.0
309.208	1.0	go	0.393	Go_O	1.0
311.732	1.0	go	0.438	Go_X	0.0
314.257	1.0	go	0.322	Go_O	1.0
316.781	0.3	stopfail	0.376	Go_X	0.0
319.305	1.0	go	0.573	Go_X	1.0
321.829	1.0	go	0.459	Go_O	1.0
324.353	1.0	go	0.498	Go_X	1.0
326.877	1.0	go	0.643	Go_X	1.0
329.402	1.0	go	0.483	Go_O	1.0
331.926	0.25	stopsuccess	0.0	Go_O	1.0
334.45	1.0	go	0.392	Go_O	0.0
336.974	1.0	go	0.403	Go_X	1.0
339.498	1.0	go	0.377	Go_O	1.0
342.022	1.0	go	0.4	Go_X	1.0
344.547	1.0	go	0.44	Go_X	1.0
347.071	1.0	go	0.499	Go_O	1.0
349.595	0.3	stopsuccess	0.0	Go_X	1.0
352.119	1.0	go	0.39	Go_O	1.0
354.643	1.0	go	0.0	Go_X	0.0
357.168	0.35	stopfail	0.52	Go_O	0.0
359.692	1.0	go	0.43	Go_O	1.0
362.216	0.3	stopfail	0.362	Go_X	0.0
364.74	0.25	stopsuccess	0.0	Go_O	1.0
367.264	1.0	go	0.416	Go_X	1.0
369.788	1.0	go	0.461	Go_X	1.0
372.313	1.0	go	0.43	Go_O	1.0
374.837	1.0	go	0.0	Go_X	0.0
377.361	0.3	stopsuccess	0.0	Go_X	1.0
379.885	1.0	go	0.392	Go_O	1.0
382.409	0.35	stopfail	0.336	Go_O	0.0
384.933	1.0	go	0.505	Go_X	1.0
387.458	1.0	go	0.656	Go_O	1.0
389.982	1.0	go	0.353	Go_X	1.0
392.506	1.0	go	0.306	Go_O	1.0
395.03	1.0	go	0.628	Go_O	1.0
397.554	1.0	go	0.475	Go_X	1.0
400.078	1.0	go	0.33	Go_X	1.0
402.603	1.0	go	0.813	Go_O	1.0
405.127	1.0	go	0.601	Go_O	1.0
407.651	0.3	stopsuccess	0.0	Go_X	1.0
410.175	1.0	go	0.435	Go_X	1.0
412.699	1.0	go	0.703	Go_O	1.0
415.223	1.0	go	0.523	Go_X	1.0
417.748	0.35	stopfail	0.396	Go_O	0.0
420.272	1.0	go	0.37	Go_X	1.0
422.796	1.0	go	0.771	Go_O	1.0
425.32	1.0	go	0.504	Go_O	1.0
427.844	1.0	go	0.437	Go_X	1.0
430.368	1.0	go	0.387	Go_X	0.0
432.893	1.0	go	0.416	Go_O	1.0
435.417	0.3	stopsuccess	0.0	Go_X	1.0
437.941	1.0	go	0.317	Go_O	1.0
440.465	1.0	go	0.357	Go_X	1.0
442.989	0.35	stopfail	0.826	Go_O	0.0
445.514	1.0	go	0.453	Go_X	1.0
448.038	1.0	go	0.391	Go_O	1.0
450.562	0.3	stopfail	0.518	Go_X	0.0
453.086	1.0	go	0.58	Go_O	1.0
455.61	0.25	stopfail	0.531	Go_O	0.0
458.134	1.0	go	0.452	Go_X	1.0
460.659	1.0	go	0.492	Go_X	0.0
463.183	1.0	go	0.307	Go_O	1.0
465.707	1.0	go	0.434	Go_O	1.0
468.231	1.0	go	0.764	Go_X	1.0
470.755	0.2	stopsuccess	0.0	Go_X	1.0
473.279	0.25	stopsuccess	0.0	Go_O	1.0
475.804	1.0	go	0.376	Go_X	1.0
478.328	1.0	go	0.4	Go_O	1.0
480.852	0.3	stopsuccess	0.0	Go_X	1.0
483.376	1.0	go	0.831	Go_X	1.0
485.9	1.0	go	0.494	Go_O	1.0
488.424	1.0	go	0.405	Go_X	1.0
490.949	1.0	go	0.405	Go_O	1.0
493.473	1.0	go	0.566	Go_O	1.0
495.997	1.0	go	0.47	Go_X	1.0
498.521	0.35	stopfail	0.361	Go_O	0.0
501.045	1.0	go	0.503	Go_X	1.0
503.569	1.0	go	0.846	Go_O	1.0
506.094	1.0	go	0.0	Go_O	0.0
508.618	1.0	go	0.384	Go_X	1.0
511.142	1.0	go	0.408	Go_O	1.0
513.666	0.3	stopfail	0.559	Go_X	0.0
516.19	1.0	go	0.55	Go_X	1.0
518.714	1.0	go	0.566	Go_X	1.0
521.239	1.0	go	0.464	Go_O	1.0
523.763	1.0	go	0.329	Go_O	1.0
526.287	0.25	stopsuccess	0.0	Go_O	1.0
528.811	1.0	go	0.667	Go_X	1.0
531.335	1.0	go	0.615	Go_O	1.0
533.86	0.3	stopfail	0.411	Go_X	0.0
536.384	1.0	go	0.588	Go_X	1.0
538.908	0.25	stopsuccess	0.0	Go_O	1.0
541.432	1.0	go	0.662	Go_X	1.0
543.956	1.0	go	0.0	Go_O	0.0
546.48	1.0	go	0.503	Go_O	1.0
549.005	1.0	go	0.569	Go_X	1.0
551.529	1.0	go	0.55	Go_O	1.0
554.053	1.0	go	0.552	Go_X	1.0
556.577	1.0	go	0.971	Go_O	1.0
559.101	0.3	stopsuccess	0.0	Go_X	1.0
561.625	1.0	go	0.703	Go_X	1.0
564.15	1.0	go	0.517	Go_X	1.0
566.674	1.0	go	0.559	Go_O	1.0
569.198	0.35	stopsuccess	0.0	Go_O	1.0
571.722	1.0	go	0.0	Go_X	0.0
574.246	1.0	go	0.506	Go_O	1.0
576.77	1.0	go	0.418	Go_O	1.0
579.295	1.0	go	0.508	Go_X	1.0
581.819	0.4	stopfail	0.36	Go_X	0.0
584.343	1.0	go	0.365	Go_X	1.0
586.867	1.0	go	0.489	Go_O	1.0
589.391	0.35	stopfail	0.388	Go_O	0.0
591.915	1.0	go	0.523	Go_X	1.0
594.44	1.0	go	0.464	Go_O	1.0
596.964	0.3	stopfail	0.295	Go_X	0.0
599.488	1.0	go	0.292	Go_O	1.0
602.012	1.0	go	0.993	Go_X	0.0
604.536	0.25	stopsuccess	0.0	Go_O	1.0
607.06	1.0	go	0.444	Go_X	1.0
609.585	1.0	go	0.304	Go_O	1.0
612.109	1.0	go	0.356	Go_O	0.0
614.633	1.0	go	0.411	Go_X	1.0
617.157	1.0	go	0.61	Go_X	1.0
619.681	1.0	go	0.484	Go_O	1.0
622.206	0.3	stopfail	0.587	Go_X	0.0
624.73	1.0	go	0.783	Go_X	1.0
627.254	0.25	stopfail	0.552	Go_O	0.0
629.778	1.0	go	0.478	Go_O	1.0
632.302	1.0	go	0.333	Go_O	1.0
634.826	1.0	go	0.347	Go_X	1.0
637.351	1.0	go	0.827	Go_O	1.0
639.875	1.0	go	0.0	Go_X	0.0
642.399	0.2	stopsuccess	0.0	Go_X	1.0
644.923	1.0	go	0.346	Go_X	1.0
647.447	1.0	go	0.875	Go_O	1.0
649.971	1.0	go	0.65	Go_X	1.0
652.496	0.25	stopfail	0.463	Go_O	0.0
655.02	0.2	stopsuccess	0.0	Go_X	1.0
657.544	0.25	stopsuccess	0.0	Go_O	1.0
660.068	1.0	go	0.427	Go_O	1.0
662.592	0.3	stopsuccess	0.0	Go_X	1.0
665.116	1.0	go	0.405	Go_X	1.0
667.641	1.0	go	0.938	Go_O	1.0
670.165	1.0	go	0.0	Go_O	0.0
672.689	1.0	go	0.684	Go_X	0.0
675.213	1.0	go	0.396	Go_X	1.0
677.737	1.0	go	0.378	Go_O	1.0
680.261	1.0	go	0.447	Go_O	1.0
682.786	1.0	go	0.424	Go_X	1.0
685.31	0.35	stopfail	0.481	Go_O	0.0
687.834	1.0	go	0.437	Go_O	1.0
690.358	1.0	go	0.498	Go_X	1.0
692.882	0.3	stopfail	0.508	Go_X	0.0
695.407	1.0	go	0.699	Go_O	0.0
697.931	1.0	go	0.393	Go_X	1.0
700.455	1.0	go	0.0	Go_X	0.0
702.979	1.0	go	0.298	Go_O	1.0
705.503	1.0	go	0.377	Go_X	1.0
708.027	0.25	stopsuccess	0.0	Go_O	1.0
710.552	1.0	go	0.671	Go_O	1.0
713.076	1.0	go	0.65	Go_X	1.0
715.6	1.0	go	0.673	Go_O	1.0
718.124	0.3	stopsuccess	0.0	Go_X	1.0
720.648	1.0	go	0.0	Go_X	0.0
723.172	0.35	stopfail	0.257	Go_O	0.0
725.697	1.0	go	0.522	Go_O	1.0
728.221	1.0	go	0.835	Go_X	1.0
730.745	1.0	go	0.548	Go_O	1.0
733.269	1.0	go	0.421	Go_X	1.0
735.793	1.0	go	0.461	Go_O	1.0
738.317	1.0	go	0.517	Go_O	1.0
740.842	1.0	go	0.477	Go_X	1.0
743.366	0.3	stopfail	0.554	Go_X	0.0
745.89	1.0	go	0.415	Go_X	1.0
748.414	1.0	go	0.411	Go_O	1.0
750.938	1.0	go	0.0	Go_O	0.0
753.462	1.0	go	0.0	Go_X	0.0
755.987	0.25	stopfail	0.39	Go_O	0.0
758.511	1.0	go	0.96	Go_O	1.0
761.035	0.2	stopfail	0.403	Go_X	0.0
763.559	1.0	go	0.578	Go_X	1.0
766.083	1.0	go	0.483	Go_X	1.0
768.607	0.15	stopsuccess	0.0	Go_O	1.0
771.132	1.0	go	0.873	Go_O	1.0
773.656	1.0	go	0.0	Go_O	0.0
776.18	1.0	go	0.362	Go_X	1.0
778.704	1.0	go	0.464	Go_X	1.0
781.228	1.0	go	0.596	Go_O	0.0
783.753	1.0	go	0.609	Go_X	0.0
786.277	1.0	go	0.589	Go_O	0.0
788.801	1.0	go	0.69	Go_O	1.0
791.325	1.0	go	0.524	Go_X	1.0
793.849	1.0	go	0.0	Go_O	0.0
796.373	0.2	stopsuccess	0.0	Go_X	1.0
798.898	1.0	go	0.47	Go_X	1.0
801.422	1.0	go	0.0	Go_O	0.0
803.946	0.25	stopsuccess	0.0	Go_O	1.0
806.47	1.0	go	0.646	Go_X	1.0
808.994	0.3	stopsuccess	0.0	Go_X	1.0
811.518	1.0	go	0.623	Go_O	1.0
814.043	1.0	go	0.946	Go_X	1.0
816.567	0.35	stopfail	0.329	Go_O	0.0
819.091	1.0	go	0.519	Go_O	1.0
821.615	0.3	stopsuccess	0.0	Go_X	1.0
824.139	1.0	go	0.476	Go_X	1.0
826.663	1.0	go	0.423	Go_X	1.0
829.188	1.0	go	0.0	Go_O	0.0
831.712	0.35	stopsuccess	0.0	Go_O	1.0
834.236	1.0	go	0.288	Go_O	1.0
836.76	1.0	go	0.362	Go_X	1.0
839.284	1.0	go	0.308	Go_O	1.0
841.808	1.0	go	0.491	Go_X	1.0
844.333	0.4	stopfail	0.512	Go_X	0.0
846.857	1.0	go	0.558	Go_O	1.0
849.381	1.0	go	0.834	Go_X	1.0
851.905	0.35	stopfail	0.345	Go_O	0.0
854.429	1.0	go	0.498	Go_O	1.0
856.954	1.0	go	0.349	Go_X	1.0
859.478	1.0	go	0.509	Go_X	1.0
862.002	1.0	go	0.513	Go_O	1.0
864.526	0.3	stopsuccess	0.0	Go_X	1.0
867.05	1.0	go	0.0	Go_O	0.0
869.574	0.35	stopfail	0.446	Go_O	0.0
872.099	1.0	go	0.54	Go_X	1.0
874.623	1.0	go	0.352	Go_X	1.0
877.147	0.3	stopfail	0.362	Go_X	0.0
879.671	1.0	go	0.574	Go_O	1.0
882.195	1.0	go	0.514	Go_O	1.0
884.719	1.0	go	0.799	Go_X	0.0
887.244	1.0	go	0.803	Go_X	1.0
889.768	0.25	stopsuccess	0.0	Go_O	1.0
892.292	1.0	go	0.74	Go_O	1.0
894.816	0.3	stopsuccess	0.0	Go_X	1.0
897.34	1.0	go	0.624	Go_O	1.0
899.864	1.0	go	0.753	Go_X	1.0
902.389	1.0	go	0.774	Go_O	1.0
904.913	1.0	go	0.0	Go_X	0.0
907.437	1.0	go	0.629	Go_O	1.0
909.961	1.0	go	0.523	Go_X	1.0
912.485	0.35	stopsuccess	0.0	Go_O	1.0
915.009	1.0	go	0.799	Go_O	0.0
917.534	1.0	go	0.909	Go_X	1.0
920.058	0.4	stopfail	0.561	Go_X	0.0
922.582	1.0	go	0.744	Go_O	1.0
925.106	1.0	go	0.655	Go_X	1.0
927.63	0.35	stopsuccess	0.0	Go_O	1.0
930.154	1.0	go	0.573	Go_X	1.0
932.679	1.0	go	0.417	Go_O	1.0
935.203	1.0	go	0.649	Go_X	1.0
937.727	1.0	go	0.275	Go_O	1.0
940.251	0.4	stopsuccess	0.0	Go_X	1.0
942.775	1.0	go	0.614	Go_X	1.0
945.3	0.45	stopsuccess	0.0	Go_O	1.0
947.824	1.0	go	0.568	Go_O	1.0
950.348	1.0	go	0.773	Go_O	1.0
952.872	1.0	go	0.655	Go_X	1.0
955.396	1.0	go	0.27	Go_O	1.0
957.92	1.0	go	0.642	Go_X	1.0
960.445	0.5	stopfail	0.754	Go_X	0.0
962.969	1.0	go	0.0	Go_O	0.0
965.493	1.0	go	0.0	Go_X	0.0
968.017	0.45	stopsuccess	0.0	Go_O	1.0
970.541	0.5	stopfail	0.761	Go_X	0.0
973.065	1.0	go	0.333	Go_O	0.0
975.59	1.0	go	0.746	Go_X	1.0
978.114	1.0	go	0.421	Go_X	1.0
980.638	1.0	go	0.732	Go_O	1.0
983.162	0.45	stopsuccess	0.0	Go_O	1.0
985.686	1.0	go	0.0	Go_O	0.0
