onset	duration	trial_type	response_time	stim_file	accuracy
0.6119999999999948	1.0	go	0.536	Go_O	1.0
3.203000000000003	1.0	go	0.232	Go_X	1.0
5.727000000000004	1.0	go	0.28	Go_X	0.0
8.251000000000005	1.0	go	0.299	Go_O	1.0
10.77600000000001	1.0	go	0.299	Go_X	1.0
13.300000000000011	1.0	go	0.497	Go_O	1.0
15.824000000000012	0.25	stopfail	0.429	Go_O	0.0
18.347999999999985	1.0	go	0.447	Go_O	1.0
20.871999999999986	0.2	stopfail	0.317	Go_X	0.0
23.395999999999987	1.0	go	0.502	Go_X	1.0
25.92100000000002	1.0	go	0.374	Go_O	1.0
28.44500000000002	1.0	go	0.495	Go_X	1.0
30.969000000000023	0.15	stopfail	0.323	Go_O	0.0
33.49300000000002	1.0	go	0.392	Go_X	1.0
36.017000000000024	1.0	go	0.447	Go_O	1.0
38.541000000000025	0.1	stopsuccess	0.0	Go_X	1.0
41.066	0.15	stopsuccess	0.0	Go_O	1.0
43.59	1.0	go	0.357	Go_X	1.0
46.114000000000004	1.0	go	0.334	Go_O	1.0
48.638000000000005	0.2	stopsuccess	0.0	Go_X	1.0
51.162000000000006	1.0	go	0.293	Go_O	1.0
53.68699999999998	1.0	go	0.374	Go_X	1.0
56.210999999999984	0.25	stopfail	0.375	Go_O	0.0
58.734999999999985	1.0	go	0.566	Go_X	1.0
61.258999999999986	1.0	go	0.587	Go_O	1.0
63.78299999999999	0.2	stopsuccess	0.0	Go_X	1.0
66.30699999999999	1.0	go	0.383	Go_X	1.0
68.83200000000002	1.0	go	0.571	Go_O	1.0
71.35600000000002	0.25	stopsuccess	0.0	Go_O	1.0
73.88000000000002	1.0	go	0.361	Go_O	1.0
76.40400000000002	1.0	go	0.645	Go_X	0.0
78.92800000000003	1.0	go	0.393	Go_O	1.0
81.45200000000003	1.0	go	0.438	Go_X	0.0
83.977	1.0	go	0.322	Go_O	1.0
86.501	0.3	stopfail	0.376	Go_X	0.0
89.025	1.0	go	0.573	Go_X	1.0
91.549	1.0	go	0.459	Go_O	1.0
94.07300000000001	1.0	go	0.498	Go_X	1.0
96.59700000000001	1.0	go	0.643	Go_X	1.0
99.12199999999999	1.0	go	0.483	Go_O	1.0
101.64599999999999	0.25	stopsuccess	0.0	Go_O	1.0
104.16999999999999	1.0	go	0.392	Go_O	0.0
106.69399999999999	1.0	go	0.403	Go_X	1.0
109.21799999999999	1.0	go	0.377	Go_O	1.0
111.74199999999999	1.0	go	0.4	Go_X	1.0
114.26700000000002	1.0	go	0.44	Go_X	1.0
116.79100000000003	1.0	go	0.499	Go_O	1.0
119.31500000000003	0.3	stopsuccess	0.0	Go_X	1.0
121.83900000000003	1.0	go	0.39	Go_O	1.0
124.36299999999997	1.0	go	0.0	Go_X	0.0
126.888	0.35	stopfail	0.52	Go_O	0.0
129.412	1.0	go	0.43	Go_O	1.0
131.936	0.3	stopfail	0.362	Go_X	0.0
134.46	0.25	stopsuccess	0.0	Go_O	1.0
136.984	1.0	go	0.416	Go_X	1.0
139.508	1.0	go	0.461	Go_X	1.0
142.033	1.0	go	0.43	Go_O	1.0
144.557	1.0	go	0.0	Go_X	0.0
147.081	0.3	stopsuccess	0.0	Go_X	1.0
149.605	1.0	go	0.392	Go_O	1.0
152.129	0.35	stopfail	0.336	Go_O	0.0
154.653	1.0	go	0.505	Go_X	1.0
157.17800000000003	1.0	go	0.656	Go_O	1.0
159.70200000000003	1.0	go	0.353	Go_X	1.0
162.22599999999997	1.0	go	0.306	Go_O	1.0
164.74999999999997	1.0	go	0.628	Go_O	1.0
167.27399999999997	1.0	go	0.475	Go_X	1.0
169.79799999999997	1.0	go	0.33	Go_X	1.0
172.323	1.0	go	0.813	Go_O	1.0
174.847	1.0	go	0.601	Go_O	1.0
177.371	0.3	stopsuccess	0.0	Go_X	1.0
179.895	1.0	go	0.435	Go_X	1.0
182.419	1.0	go	0.703	Go_O	1.0
184.943	1.0	go	0.523	Go_X	1.0
187.468	0.35	stopfail	0.396	Go_O	0.0
189.992	1.0	go	0.37	Go_X	1.0
192.516	1.0	go	0.771	Go_O	1.0
195.04	1.0	go	0.504	Go_O	1.0
197.564	1.0	go	0.437	Go_X	1.0
200.088	1.0	go	0.387	Go_X	0.0
202.61299999999997	1.0	go	0.416	Go_O	1.0
205.13699999999997	0.3	stopsuccess	0.0	Go_X	1.0
207.66099999999997	1.0	go	0.317	Go_O	1.0
210.18499999999997	1.0	go	0.357	Go_X	1.0
212.70899999999997	0.35	stopfail	0.826	Go_O	0.0
215.234	1.0	go	0.453	Go_X	1.0
217.758	1.0	go	0.391	Go_O	1.0
220.282	0.3	stopfail	0.518	Go_X	0.0
222.806	1.0	go	0.58	Go_O	1.0
225.33	0.25	stopfail	0.531	Go_O	0.0
227.854	1.0	go	0.452	Go_X	1.0
230.379	1.0	go	0.492	Go_X	0.0
232.903	1.0	go	0.307	Go_O	1.0
235.427	1.0	go	0.434	Go_O	1.0
237.951	1.0	go	0.764	Go_X	1.0
240.475	0.2	stopsuccess	0.0	Go_X	1.0
242.999	0.25	stopsuccess	0.0	Go_O	1.0
245.52399999999997	1.0	go	0.376	Go_X	1.0
248.04799999999997	1.0	go	0.4	Go_O	1.0
250.57199999999997	0.3	stopsuccess	0.0	Go_X	1.0
253.09599999999998	1.0	go	0.831	Go_X	1.0
255.61999999999998	1.0	go	0.494	Go_O	1.0
258.144	1.0	go	0.405	Go_X	1.0
260.669	1.0	go	0.405	Go_O	1.0
263.193	1.0	go	0.566	Go_O	1.0
265.717	1.0	go	0.47	Go_X	1.0
268.241	0.35	stopfail	0.361	Go_O	0.0
270.765	1.0	go	0.503	Go_X	1.0
273.289	1.0	go	0.846	Go_O	1.0
275.81399999999996	1.0	go	0.0	Go_O	0.0
278.33799999999997	1.0	go	0.384	Go_X	1.0
280.86199999999997	1.0	go	0.408	Go_O	1.0
283.3860000000001	0.3	stopfail	0.559	Go_X	0.0
285.9100000000001	1.0	go	0.55	Go_X	1.0
288.4340000000001	1.0	go	0.566	Go_X	1.0
290.95900000000006	1.0	go	0.464	Go_O	1.0
293.48300000000006	1.0	go	0.329	Go_O	1.0
296.00700000000006	0.25	stopsuccess	0.0	Go_O	1.0
298.53100000000006	1.0	go	0.667	Go_X	1.0
301.05500000000006	1.0	go	0.615	Go_O	1.0
303.58000000000004	0.3	stopfail	0.411	Go_X	0.0
306.10400000000004	1.0	go	0.588	Go_X	1.0
308.62800000000004	0.25	stopsuccess	0.0	Go_O	1.0
311.15200000000004	1.0	go	0.662	Go_X	1.0
313.67600000000004	1.0	go	0.0	Go_O	0.0
316.20000000000005	1.0	go	0.503	Go_O	1.0
318.725	1.0	go	0.569	Go_X	1.0
321.249	1.0	go	0.55	Go_O	1.0
323.773	1.0	go	0.552	Go_X	1.0
326.297	1.0	go	0.971	Go_O	1.0
328.821	0.3	stopsuccess	0.0	Go_X	1.0
331.345	1.0	go	0.703	Go_X	1.0
333.87	1.0	go	0.517	Go_X	1.0
336.394	1.0	go	0.559	Go_O	1.0
338.918	0.35	stopsuccess	0.0	Go_O	1.0
341.442	1.0	go	0.0	Go_X	0.0
343.966	1.0	go	0.506	Go_O	1.0
346.49	1.0	go	0.418	Go_O	1.0
349.015	1.0	go	0.508	Go_X	1.0
351.539	0.4	stopfail	0.36	Go_X	0.0
354.063	1.0	go	0.365	Go_X	1.0
356.587	1.0	go	0.489	Go_O	1.0
359.111	0.35	stopfail	0.388	Go_O	0.0
361.635	1.0	go	0.523	Go_X	1.0
364.1600000000001	1.0	go	0.464	Go_O	1.0
366.6840000000001	0.3	stopfail	0.295	Go_X	0.0
369.2080000000001	1.0	go	0.292	Go_O	1.0
371.73199999999997	1.0	go	0.993	Go_X	0.0
374.256	0.25	stopsuccess	0.0	Go_O	1.0
376.78	1.0	go	0.444	Go_X	1.0
379.30500000000006	1.0	go	0.304	Go_O	1.0
381.82900000000006	1.0	go	0.356	Go_O	0.0
384.35300000000007	1.0	go	0.411	Go_X	1.0
386.87700000000007	1.0	go	0.61	Go_X	1.0
389.40100000000007	1.0	go	0.484	Go_O	1.0
391.92600000000004	0.3	stopfail	0.587	Go_X	0.0
394.45000000000005	1.0	go	0.783	Go_X	1.0
396.97400000000005	0.25	stopfail	0.552	Go_O	0.0
399.49800000000005	1.0	go	0.478	Go_O	1.0
402.02200000000005	1.0	go	0.333	Go_O	1.0
404.54600000000005	1.0	go	0.347	Go_X	1.0
407.071	1.0	go	0.827	Go_O	1.0
409.595	1.0	go	0.0	Go_X	0.0
412.119	0.2	stopsuccess	0.0	Go_X	1.0
414.64300000000003	1.0	go	0.346	Go_X	1.0
417.16700000000003	1.0	go	0.875	Go_O	1.0
419.69100000000003	1.0	go	0.65	Go_X	1.0
422.216	0.25	stopfail	0.463	Go_O	0.0
424.74	0.2	stopsuccess	0.0	Go_X	1.0
427.264	0.25	stopsuccess	0.0	Go_O	1.0
429.788	1.0	go	0.427	Go_O	1.0
432.312	0.3	stopsuccess	0.0	Go_X	1.0
434.836	1.0	go	0.405	Go_X	1.0
437.361	1.0	go	0.938	Go_O	1.0
439.885	1.0	go	0.0	Go_O	0.0
442.409	1.0	go	0.684	Go_X	0.0
444.933	1.0	go	0.396	Go_X	1.0
447.457	1.0	go	0.378	Go_O	1.0
449.981	1.0	go	0.447	Go_O	1.0
452.506	1.0	go	0.424	Go_X	1.0
455.03	0.35	stopfail	0.481	Go_O	0.0
457.554	1.0	go	0.437	Go_O	1.0
460.078	1.0	go	0.498	Go_X	1.0
462.602	0.3	stopfail	0.508	Go_X	0.0
465.12700000000007	1.0	go	0.699	Go_O	0.0
467.65100000000007	1.0	go	0.393	Go_X	1.0
470.17500000000007	1.0	go	0.0	Go_X	0.0
472.69900000000007	1.0	go	0.298	Go_O	1.0
475.22300000000007	1.0	go	0.377	Go_X	1.0
477.74700000000007	0.25	stopsuccess	0.0	Go_O	1.0
480.27200000000005	1.0	go	0.671	Go_O	1.0
482.79600000000005	1.0	go	0.65	Go_X	1.0
485.32000000000005	1.0	go	0.673	Go_O	1.0
487.84400000000005	0.3	stopsuccess	0.0	Go_X	1.0
490.36800000000005	1.0	go	0.0	Go_X	0.0
492.89200000000005	0.35	stopfail	0.257	Go_O	0.0
495.41700000000003	1.0	go	0.522	Go_O	1.0
497.94100000000003	1.0	go	0.835	Go_X	1.0
500.46500000000003	1.0	go	0.548	Go_O	1.0
502.98900000000003	1.0	go	0.421	Go_X	1.0
505.51300000000003	1.0	go	0.461	Go_O	1.0
508.03700000000003	1.0	go	0.517	Go_O	1.0
510.562	1.0	go	0.477	Go_X	1.0
513.086	0.3	stopfail	0.554	Go_X	0.0
515.61	1.0	go	0.415	Go_X	1.0
518.134	1.0	go	0.411	Go_O	1.0
520.658	1.0	go	0.0	Go_O	0.0
523.182	1.0	go	0.0	Go_X	0.0
525.707	0.25	stopfail	0.39	Go_O	0.0
528.231	1.0	go	0.96	Go_O	1.0
530.755	0.2	stopfail	0.403	Go_X	0.0
533.279	1.0	go	0.578	Go_X	1.0
535.803	1.0	go	0.483	Go_X	1.0
538.327	0.15	stopsuccess	0.0	Go_O	1.0
540.852	1.0	go	0.873	Go_O	1.0
543.376	1.0	go	0.0	Go_O	0.0
545.9	1.0	go	0.362	Go_X	1.0
548.424	1.0	go	0.464	Go_X	1.0
550.948	1.0	go	0.596	Go_O	0.0
553.4730000000001	1.0	go	0.609	Go_X	0.0
555.9970000000001	1.0	go	0.589	Go_O	0.0
558.5210000000001	1.0	go	0.69	Go_O	1.0
561.0450000000001	1.0	go	0.524	Go_X	1.0
563.5690000000001	1.0	go	0.0	Go_O	0.0
566.0930000000001	0.2	stopsuccess	0.0	Go_X	1.0
568.618	1.0	go	0.47	Go_X	1.0
571.142	1.0	go	0.0	Go_O	0.0
573.666	0.25	stopsuccess	0.0	Go_O	1.0
576.19	1.0	go	0.646	Go_X	1.0
578.714	0.3	stopsuccess	0.0	Go_X	1.0
581.238	1.0	go	0.623	Go_O	1.0
583.763	1.0	go	0.946	Go_X	1.0
586.287	0.35	stopfail	0.329	Go_O	0.0
588.811	1.0	go	0.519	Go_O	1.0
591.335	0.3	stopsuccess	0.0	Go_X	1.0
593.859	1.0	go	0.476	Go_X	1.0
596.383	1.0	go	0.423	Go_X	1.0
598.908	1.0	go	0.0	Go_O	0.0
601.432	0.35	stopsuccess	0.0	Go_O	1.0
603.956	1.0	go	0.288	Go_O	1.0
606.48	1.0	go	0.362	Go_X	1.0
609.004	1.0	go	0.308	Go_O	1.0
611.528	1.0	go	0.491	Go_X	1.0
614.053	0.4	stopfail	0.512	Go_X	0.0
616.577	1.0	go	0.558	Go_O	1.0
619.101	1.0	go	0.834	Go_X	1.0
621.625	0.35	stopfail	0.345	Go_O	0.0
624.149	1.0	go	0.498	Go_O	1.0
626.674	1.0	go	0.349	Go_X	1.0
629.198	1.0	go	0.509	Go_X	1.0
631.722	1.0	go	0.513	Go_O	1.0
634.246	0.3	stopsuccess	0.0	Go_X	1.0
636.77	1.0	go	0.0	Go_O	0.0
639.294	0.35	stopfail	0.446	Go_O	0.0
641.8190000000001	1.0	go	0.54	Go_X	1.0
644.3430000000001	1.0	go	0.352	Go_X	1.0
646.8670000000001	0.3	stopfail	0.362	Go_X	0.0
649.3910000000001	1.0	go	0.574	Go_O	1.0
651.9150000000001	1.0	go	0.514	Go_O	1.0
654.4390000000001	1.0	go	0.799	Go_X	0.0
656.964	1.0	go	0.803	Go_X	1.0
659.488	0.25	stopsuccess	0.0	Go_O	1.0
662.0120000000001	1.0	go	0.74	Go_O	1.0
664.5360000000001	0.3	stopsuccess	0.0	Go_X	1.0
667.0600000000001	1.0	go	0.624	Go_O	1.0
669.5840000000001	1.0	go	0.753	Go_X	1.0
672.109	1.0	go	0.774	Go_O	1.0
674.633	1.0	go	0.0	Go_X	0.0
677.157	1.0	go	0.629	Go_O	1.0
679.681	1.0	go	0.523	Go_X	1.0
682.205	0.35	stopsuccess	0.0	Go_O	1.0
684.729	1.0	go	0.799	Go_O	0.0
687.254	1.0	go	0.909	Go_X	1.0
689.778	0.4	stopfail	0.561	Go_X	0.0
692.302	1.0	go	0.744	Go_O	1.0
694.826	1.0	go	0.655	Go_X	1.0
697.35	0.35	stopsuccess	0.0	Go_O	1.0
699.874	1.0	go	0.573	Go_X	1.0
702.399	1.0	go	0.417	Go_O	1.0
704.923	1.0	go	0.649	Go_X	1.0
707.447	1.0	go	0.275	Go_O	1.0
709.971	0.4	stopsuccess	0.0	Go_X	1.0
712.495	1.0	go	0.614	Go_X	1.0
715.02	0.45	stopsuccess	0.0	Go_O	1.0
717.544	1.0	go	0.568	Go_O	1.0
720.068	1.0	go	0.773	Go_O	1.0
722.592	1.0	go	0.655	Go_X	1.0
725.116	1.0	go	0.27	Go_O	1.0
727.64	1.0	go	0.642	Go_X	1.0
730.1650000000001	0.5	stopfail	0.754	Go_X	0.0
732.6890000000001	1.0	go	0.0	Go_O	0.0
735.2130000000001	1.0	go	0.0	Go_X	0.0
737.7370000000001	0.45	stopsuccess	0.0	Go_O	1.0
740.2610000000001	0.5	stopfail	0.761	Go_X	0.0
742.7850000000001	1.0	go	0.333	Go_O	0.0
745.3100000000001	1.0	go	0.746	Go_X	1.0
747.8340000000001	1.0	go	0.421	Go_X	1.0
750.3580000000001	1.0	go	0.732	Go_O	1.0
752.8820000000001	0.45	stopsuccess	0.0	Go_O	1.0
755.4060000000001	1.0	go	0.0	Go_O	0.0
