onset	duration	trial_type	response_time	stim_file	accuracy
82.816	1.0	go	0.511	Go_O	1.0
85.374	1.0	go	0.323	Go_X	1.0
87.898	1.0	go	0.362	Go_O	0.0
90.422	1.0	go	0.42	Go_X	1.0
92.946	1.0	go	0.382	Go_X	1.0
95.47	1.0	go	0.262	Go_O	1.0
97.995	0.25	stop	0.227	Go_O	0.0
100.519	1.0	go	0.455	Go_O	1.0
103.043	0.2	stop	0.222	Go_X	0.0
105.567	1.0	go	0.402	Go_X	1.0
108.091	1.0	go	0.486	Go_X	1.0
110.615	1.0	go	0.265	Go_O	1.0
113.14	0.15	stop	0.259	Go_O	0.0
115.664	1.0	go	0.362	Go_X	0.0
118.188	1.0	go	0.36	Go_O	1.0
120.712	0.1	stop	0.246	Go_X	0.0
123.236	0.05	stop	0.346	Go_O	0.0
125.761	1.0	go	0.214	Go_X	1.0
128.285	1.0	go	0.338	Go_O	1.0
130.809	0.0	stop	0.454	Go_X	0.0
133.35	1.0	go	0.445	Go_X	1.0
135.874	1.0	go	0.28	Go_O	1.0
138.398	0.0	stop	0.671	Go_O	0.0
140.939	1.0	go	0.259	Go_X	1.0
143.463	1.0	go	0.667	Go_O	1.0
145.987	0.0	stop	0.0	Go_X	1.0
148.528	1.0	go	0.471	Go_X	1.0
151.052	1.0	go	0.384	Go_O	1.0
153.577	0.05	stop	0.0	Go_O	1.0
156.101	1.0	go	0.34	Go_X	1.0
158.625	1.0	go	0.36	Go_O	1.0
161.149	1.0	go	0.298	Go_X	1.0
163.673	1.0	go	0.361	Go_O	0.0
166.197	1.0	go	0.345	Go_X	1.0
168.722	0.1	stop	0.0	Go_X	1.0
171.246	1.0	go	0.352	Go_O	1.0
173.77	1.0	go	0.362	Go_O	1.0
176.294	1.0	go	0.243	Go_X	1.0
178.818	1.0	go	0.457	Go_X	1.0
181.342	1.0	go	0.272	Go_O	1.0
183.867	0.15	stop	0.264	Go_O	0.0
186.391	1.0	go	0.342	Go_X	1.0
188.915	1.0	go	0.0	Go_O	0.0
191.439	1.0	go	0.359	Go_O	1.0
193.963	1.0	go	0.355	Go_X	1.0
196.487	1.0	go	0.396	Go_X	1.0
199.012	1.0	go	0.363	Go_O	1.0
201.536	0.1	stop	0.0	Go_X	1.0
204.06	1.0	go	0.525	Go_X	1.0
206.584	1.0	go	0.337	Go_O	1.0
209.108	0.15	stop	0.0	Go_O	1.0
211.633	1.0	go	0.328	Go_X	1.0
214.157	0.2	stop	0.432	Go_X	0.0
216.681	0.15	stop	0.389	Go_O	0.0
219.205	1.0	go	0.5	Go_O	1.0
221.729	1.0	go	0.276	Go_X	1.0
224.253	1.0	go	0.384	Go_O	1.0
226.778	1.0	go	0.444	Go_O	1.0
229.302	0.1	stop	0.0	Go_X	1.0
231.826	1.0	go	0.374	Go_X	1.0
234.35	0.15	stop	0.0	Go_O	1.0
236.874	1.0	go	0.609	Go_O	1.0
239.398	1.0	go	0.455	Go_X	1.0
241.923	1.0	go	0.36	Go_O	1.0
244.447	1.0	go	0.395	Go_X	1.0
246.971	1.0	go	0.605	Go_X	1.0
249.495	1.0	go	0.511	Go_O	1.0
252.019	1.0	go	0.329	Go_X	1.0
254.543	1.0	go	0.401	Go_O	1.0
257.068	1.0	go	0.461	Go_O	1.0
259.592	0.2	stop	0.335	Go_X	0.0
262.116	1.0	go	0.369	Go_X	1.0
264.64	1.0	go	0.367	Go_O	1.0
267.164	1.0	go	0.294	Go_X	1.0
269.688	0.15	stop	0.337	Go_O	0.0
272.213	1.0	go	0.436	Go_O	1.0
274.737	1.0	go	0.289	Go_X	1.0
277.261	1.0	go	0.447	Go_O	1.0
279.785	1.0	go	0.472	Go_X	1.0
282.309	1.0	go	0.506	Go_X	1.0
284.833	1.0	go	0.475	Go_O	1.0
287.358	0.1	stop	0.0	Go_X	1.0
289.882	1.0	go	0.367	Go_O	1.0
292.406	1.0	go	0.314	Go_X	1.0
294.93	0.15	stop	0.0	Go_O	1.0
297.454	1.0	go	0.219	Go_X	1.0
299.979	1.0	go	0.314	Go_O	1.0
302.503	0.2	stop	0.334	Go_X	0.0
305.027	1.0	go	0.295	Go_O	1.0
307.551	0.15	stop	0.0	Go_O	1.0
310.075	1.0	go	0.283	Go_X	1.0
312.599	1.0	go	0.387	Go_O	1.0
315.124	1.0	go	0.325	Go_X	1.0
317.648	1.0	go	0.283	Go_O	1.0
320.172	1.0	go	0.294	Go_X	1.0
322.696	0.2	stop	0.0	Go_X	1.0
325.22	0.25	stop	0.36	Go_O	0.0
327.744	1.0	go	0.25	Go_X	1.0
330.269	1.0	go	0.289	Go_O	1.0
332.793	0.2	stop	0.241	Go_X	0.0
335.317	1.0	go	0.458	Go_X	1.0
337.841	1.0	go	0.407	Go_O	1.0
340.365	1.0	go	0.28	Go_X	1.0
342.889	1.0	go	0.386	Go_O	1.0
345.414	1.0	go	0.408	Go_O	1.0
347.938	1.0	go	0.43	Go_X	1.0
350.462	0.15	stop	0.377	Go_O	0.0
352.986	1.0	go	0.4	Go_O	1.0
355.51	1.0	go	0.392	Go_X	1.0
358.034	1.0	go	0.411	Go_O	1.0
360.559	1.0	go	0.485	Go_X	1.0
363.083	1.0	go	0.393	Go_O	1.0
365.607	0.1	stop	0.0	Go_X	1.0
368.131	1.0	go	0.596	Go_X	1.0
370.655	1.0	go	0.434	Go_O	1.0
373.179	1.0	go	0.378	Go_X	1.0
375.704	1.0	go	0.411	Go_O	1.0
378.228	0.15	stop	0.0	Go_O	1.0
380.752	1.0	go	0.452	Go_X	1.0
383.276	1.0	go	0.353	Go_O	1.0
385.8	0.2	stop	0.342	Go_X	0.0
388.325	1.0	go	0.471	Go_X	1.0
390.849	0.15	stop	0.333	Go_O	0.0
393.373	1.0	go	0.415	Go_X	0.0
395.897	1.0	go	0.533	Go_O	1.0
398.421	1.0	go	0.493	Go_O	1.0
400.945	1.0	go	0.369	Go_X	1.0
403.47	1.0	go	0.407	Go_O	1.0
405.994	1.0	go	0.426	Go_X	1.0
408.518	1.0	go	0.461	Go_X	1.0
411.042	0.1	stop	0.0	Go_X	1.0
413.566	1.0	go	0.366	Go_O	1.0
416.09	1.0	go	0.426	Go_O	1.0
418.615	1.0	go	0.451	Go_X	1.0
421.139	0.15	stop	0.0	Go_O	1.0
423.663	1.0	go	0.501	Go_O	1.0
426.187	1.0	go	0.5	Go_X	1.0
428.711	1.0	go	0.545	Go_X	1.0
431.235	1.0	go	0.396	Go_O	1.0
433.76	0.2	stop	0.499	Go_X	0.0
436.284	1.0	go	0.363	Go_X	1.0
438.808	1.0	go	0.395	Go_O	1.0
441.332	0.15	stop	0.0	Go_O	1.0
443.856	1.0	go	0.413	Go_O	1.0
446.38	1.0	go	0.451	Go_X	1.0
448.905	0.2	stop	0.512	Go_X	0.0
451.429	1.0	go	0.4	Go_O	1.0
453.953	1.0	go	0.426	Go_X	1.0
456.477	0.15	stop	0.0	Go_O	1.0
459.001	1.0	go	0.406	Go_X	0.0
461.526	1.0	go	0.409	Go_O	1.0
464.05	1.0	go	0.47	Go_X	1.0
466.574	1.0	go	0.468	Go_O	1.0
469.098	1.0	go	0.377	Go_X	1.0
471.622	1.0	go	0.398	Go_O	1.0
474.146	0.2	stop	0.408	Go_X	0.0
476.671	1.0	go	0.345	Go_O	1.0
479.195	0.15	stop	0.491	Go_O	0.0
481.719	1.0	go	0.345	Go_X	1.0
484.243	1.0	go	0.433	Go_X	1.0
486.767	1.0	go	0.435	Go_O	1.0
489.291	1.0	go	0.358	Go_O	1.0
491.816	1.0	go	0.319	Go_X	1.0
494.34	0.1	stop	0.0	Go_X	1.0
496.864	1.0	go	0.231	Go_O	1.0
499.388	1.0	go	0.294	Go_X	1.0
501.912	1.0	go	0.389	Go_O	1.0
504.436	0.15	stop	0.0	Go_O	1.0
506.961	0.2	stop	0.465	Go_X	0.0
509.485	0.15	stop	0.264	Go_O	0.0
512.009	1.0	go	0.347	Go_X	1.0
514.533	0.1	stop	0.0	Go_X	1.0
517.057	1.0	go	0.44	Go_X	0.0
519.581	1.0	go	0.424	Go_O	1.0
522.106	1.0	go	0.425	Go_O	1.0
524.63	1.0	go	0.362	Go_X	1.0
527.154	1.0	go	0.316	Go_O	1.0
529.678	1.0	go	0.386	Go_X	1.0
532.202	1.0	go	0.492	Go_O	1.0
534.726	1.0	go	0.38	Go_X	1.0
537.251	0.15	stop	0.468	Go_O	0.0
539.775	1.0	go	0.47	Go_X	1.0
542.299	1.0	go	0.417	Go_O	1.0
544.823	0.1	stop	0.0	Go_X	1.0
547.347	1.0	go	0.504	Go_O	1.0
549.872	1.0	go	0.34	Go_X	1.0
552.396	1.0	go	0.41	Go_O	1.0
554.92	1.0	go	0.309	Go_X	1.0
557.444	1.0	go	0.466	Go_X	1.0
559.968	0.15	stop	0.0	Go_O	1.0
562.492	1.0	go	0.587	Go_O	1.0
565.017	1.0	go	0.298	Go_X	1.0
567.541	1.0	go	0.308	Go_O	1.0
570.065	0.2	stop	0.373	Go_X	0.0
572.589	1.0	go	0.419	Go_O	1.0
575.113	0.15	stop	0.0	Go_O	1.0
577.637	1.0	go	0.481	Go_X	1.0
580.162	1.0	go	0.649	Go_X	0.0
582.686	1.0	go	0.46	Go_O	1.0
585.21	1.0	go	0.376	Go_X	1.0
587.734	1.0	go	0.429	Go_O	1.0
590.258	1.0	go	0.537	Go_X	1.0
592.782	1.0	go	0.633	Go_O	1.0
595.307	0.2	stop	0.0	Go_X	1.0
597.831	1.0	go	0.785	Go_X	1.0
600.355	1.0	go	0.42	Go_O	1.0
602.879	1.0	go	0.24	Go_O	0.0
605.403	1.0	go	0.375	Go_X	1.0
607.927	0.25	stop	0.256	Go_O	0.0
610.452	1.0	go	0.395	Go_O	1.0
612.976	0.2	stop	0.255	Go_X	0.0
615.5	1.0	go	0.425	Go_X	1.0
618.024	1.0	go	0.363	Go_O	1.0
620.548	0.15	stop	0.398	Go_O	0.0
623.073	1.0	go	0.362	Go_X	1.0
625.597	1.0	go	0.413	Go_X	1.0
628.121	1.0	go	0.469	Go_O	1.0
630.645	1.0	go	0.416	Go_O	1.0
633.169	1.0	go	0.462	Go_X	1.0
635.693	1.0	go	0.501	Go_O	1.0
638.218	1.0	go	0.312	Go_X	1.0
640.742	1.0	go	0.333	Go_O	1.0
643.266	1.0	go	0.288	Go_X	1.0
645.79	1.0	go	0.316	Go_O	1.0
648.314	0.1	stop	0.326	Go_X	0.0
650.838	1.0	go	0.384	Go_X	0.0
653.363	1.0	go	0.387	Go_X	1.0
655.887	0.05	stop	0.0	Go_O	1.0
658.411	1.0	go	0.378	Go_O	1.0
660.935	0.1	stop	0.0	Go_X	1.0
663.459	1.0	go	0.425	Go_O	1.0
665.983	1.0	go	0.482	Go_X	1.0
668.508	0.15	stop	0.0	Go_O	1.0
671.032	1.0	go	0.467	Go_O	1.0
673.556	0.2	stop	0.356	Go_X	0.0
676.08	1.0	go	0.354	Go_X	1.0
678.604	1.0	go	0.361	Go_X	0.0
681.128	1.0	go	0.327	Go_O	1.0
683.653	0.15	stop	0.385	Go_O	0.0
686.194	1.0	go	0.427	Go_X	1.0
688.718	1.0	go	0.405	Go_O	1.0
691.242	1.0	go	0.922	Go_X	1.0
693.766	1.0	go	0.366	Go_O	1.0
696.29	0.1	stop	0.0	Go_X	1.0
698.814	1.0	go	0.534	Go_X	1.0
701.339	1.0	go	0.41	Go_O	1.0
703.863	0.15	stop	0.0	Go_O	1.0
706.387	1.0	go	0.441	Go_X	1.0
708.911	1.0	go	0.293	Go_O	1.0
711.435	1.0	go	0.378	Go_X	1.0
713.959	1.0	go	0.25	Go_O	1.0
716.484	0.2	stop	0.0	Go_X	1.0
719.008	1.0	go	0.366	Go_O	1.0
721.532	0.25	stop	0.0	Go_O	1.0
724.056	1.0	go	0.29	Go_X	1.0
726.58	1.0	go	0.558	Go_X	1.0
729.104	0.3	stop	0.504	Go_X	0.0
731.629	1.0	go	0.34	Go_O	1.0
734.153	1.0	go	0.525	Go_X	1.0
736.677	1.0	go	0.47	Go_O	1.0
739.201	1.0	go	0.262	Go_X	1.0
741.725	0.25	stop	0.338	Go_O	0.0
744.249	1.0	go	0.464	Go_O	0.0
746.774	0.2	stop	0.606	Go_X	0.0
749.315	1.0	go	0.505	Go_X	0.0
751.839	1.0	go	0.427	Go_O	1.0
754.363	1.0	go	0.403	Go_O	1.0
756.887	1.0	go	0.485	Go_X	1.0
759.411	1.0	go	0.402	Go_O	1.0
761.935	1.0	go	0.321	Go_X	1.0
764.46	0.15	stop	0.419	Go_O	0.0
766.984	1.0	go	0.464	Go_O	0.0
769.508	1.0	go	0.4	Go_X	1.0
772.032	0.1	stop	0.0	Go_X	1.0
774.556	1.0	go	0.43	Go_X	1.0
777.08	1.0	go	0.484	Go_O	1.0
779.605	0.15	stop	0.0	Go_O	1.0
782.145	1.0	go	0.537	Go_O	1.0
784.67	1.0	go	0.537	Go_X	1.0
787.194	1.0	go	0.657	Go_X	1.0
789.718	1.0	go	0.386	Go_O	1.0
792.242	0.2	stop	0.0	Go_X	1.0
794.766	1.0	go	0.566	Go_O	1.0
797.291	0.25	stop	0.598	Go_O	0.0
799.815	1.0	go	0.436	Go_X	1.0
802.339	1.0	go	0.499	Go_X	1.0
804.863	1.0	go	0.895	Go_O	1.0
807.387	1.0	go	0.567	Go_O	1.0
809.911	1.0	go	0.415	Go_X	1.0
812.436	0.2	stop	0.37	Go_X	0.0
814.976	1.0	go	0.32	Go_O	1.0
817.501	1.0	go	0.441	Go_X	0.0
820.025	0.15	stop	0.0	Go_O	1.0
822.549	0.2	stop	0.401	Go_X	0.0
825.073	1.0	go	0.565	Go_X	1.0
827.597	1.0	go	0.363	Go_O	1.0
830.121	1.0	go	0.318	Go_X	1.0
832.646	1.0	go	0.309	Go_O	1.0
835.17	0.15	stop	0.269	Go_O	0.0
837.694	1.0	go	0.346	Go_X	1.0
