frame	onset	duration	trial_type	event_type	response_type	response_time	stim_file	accuracy
0	206.836		control-noreward	ImageDisplay1		0.0		
0	208.825	0.75	control-noreward	StartDisplay				
0	209.577		control-noreward	ImageDisplay2		0.0		
0	212.82	1.6	control-noreward	ChoiceDisplay	1	1.335	1	1
0	214.174	0.265	control-noreward	ChosenDisplay		0.0		
0	214.425	0.25	control-noreward	TurnDisplay				
0	214.676	0.75	control-noreward	OutcomeDisplay				
1	215.428		win-reward	ImageDisplay1		0.0		
1	217.668	0.75	win-reward	StartDisplay				
1	218.42		win-reward	ImageDisplay2		0.0		
1	221.429	1.6	win-reward	ChoiceDisplay	1	1.131	1	1
1	222.583	0.469	win-reward	ChosenDisplay		0.0		
1	223.034	0.25	win-reward	TurnDisplay				
1	223.285	0.75	win-reward	OutcomeDisplay				
2	224.037		control-noreward	ImageDisplay1		0.0		
2	226.277	0.75	control-noreward	StartDisplay				
2	227.029		control-noreward	ImageDisplay2		0.0		
2	230.038	1.6	control-noreward	ChoiceDisplay	1	1.439	1	1
2	231.492	0.161	control-noreward	ChosenDisplay		0.0		
2	231.643	0.25	control-noreward	TurnDisplay				
2	231.894	0.75	control-noreward	OutcomeDisplay				
3	232.646		control-noreward	ImageDisplay1		0.0		
3	234.635	0.75	control-noreward	StartDisplay				
3	235.387		control-noreward	ImageDisplay2		0.0		
3	238.647	1.6	control-noreward	ChoiceDisplay	1	1.544	1	1
3	240.202	0.0	control-noreward	ChosenDisplay		0.0		
3	240.252	0.25	control-noreward	TurnDisplay				
3	240.453	0.75	control-noreward	OutcomeDisplay				
4	241.188		loss-reward	ImageDisplay1		0.0		
4	243.194	0.75	loss-reward	StartDisplay				
4	243.946		loss-reward	ImageDisplay2		0.0		
4	247.189	1.6	loss-reward	ChoiceDisplay	1	1.026	1	1
4	248.242	0.574	loss-reward	ChosenDisplay		0.0		
4	248.794	0.25	loss-reward	TurnDisplay				
4	249.045	0.75	loss-reward	OutcomeDisplay				
5	249.797		loss-reward	ImageDisplay1		0.0		
5	252.037	0.75	loss-reward	StartDisplay				
5	252.789		loss-reward	ImageDisplay2		0.0		
5	255.798	1.6	loss-reward	ChoiceDisplay	1	0.69	1	1
5	256.5	0.91	loss-reward	ChosenDisplay		0.0		
5	257.403	0.25	loss-reward	TurnDisplay				
5	257.654	0.75	loss-reward	OutcomeDisplay				
6	258.406		control-reward	ImageDisplay1		0.0		
6	260.395	0.75	control-reward	StartDisplay				
6	261.147		control-reward	ImageDisplay2		0.0		
6	264.407	1.6	control-reward	ChoiceDisplay	1	0.804	1	1
6	265.226	0.796	control-reward	ChosenDisplay		0.0		
6	266.012	0.25	control-reward	TurnDisplay				
6	266.263	0.75	control-reward	OutcomeDisplay				
7	267.015		loss-reward	ImageDisplay1		0.0		
7	269.255	0.75	loss-reward	StartDisplay				
7	270.007		loss-reward	ImageDisplay2		0.0		
7	273.016	1.6	loss-reward	ChoiceDisplay	1	0.851	1	1
7	273.885	0.749	loss-reward	ChosenDisplay		0.0		
7	274.621	0.25	loss-reward	TurnDisplay				
7	274.872	0.75	loss-reward	OutcomeDisplay				
8	275.624		loss-reward	ImageDisplay1		0.0		
8	277.613	0.75	loss-reward	StartDisplay				
8	278.365		loss-reward	ImageDisplay2		0.0		
8	281.625	1.6	loss-reward	ChoiceDisplay	1	0.916	1	1
8	282.561	0.684	loss-reward	ChosenDisplay		0.0		
8	283.23	0.25	loss-reward	TurnDisplay				
8	283.481	0.75	loss-reward	OutcomeDisplay				
9	284.233		win-reward	ImageDisplay1		0.0		
9	286.222	0.75	win-reward	StartDisplay				
9	286.974		win-reward	ImageDisplay2		0.0		
9	290.234	1.6	win-reward	ChoiceDisplay	1	0.896	1	1
9	291.153	0.704	win-reward	ChosenDisplay		0.0		
9	291.839	0.25	win-reward	TurnDisplay				
9	292.09	0.75	win-reward	OutcomeDisplay				
10	292.842		loss-noreward	ImageDisplay1		0.0		
10	294.831	0.75	loss-noreward	StartDisplay				
10	295.583		loss-noreward	ImageDisplay2		0.0		
10	298.843	1.6	loss-noreward	ChoiceDisplay	1	0.686	1	1
10	299.545	0.914	loss-noreward	ChosenDisplay		0.0		
10	300.448	0.25	loss-noreward	TurnDisplay				
10	300.699	0.75	loss-noreward	OutcomeDisplay				
11	301.451		loss-noreward	ImageDisplay1		0.0		
11	303.691	0.75	loss-noreward	StartDisplay				
11	304.443		loss-noreward	ImageDisplay2		0.0		
11	307.452	1.6	loss-noreward	ChoiceDisplay	1	0.536	1	1
11	308.004	1.064	loss-noreward	ChosenDisplay		0.0		
11	309.057	0.25	loss-noreward	TurnDisplay				
11	309.308	0.75	loss-noreward	OutcomeDisplay				
12	310.06		loss-reward	ImageDisplay1		0.0		
12	312.049	0.75	loss-reward	StartDisplay				
12	312.801		loss-reward	ImageDisplay2		0.0		
12	316.061	1.6	loss-reward	ChoiceDisplay	1	0.836	1	1
12	316.914	0.764	loss-reward	ChosenDisplay		0.0		
12	317.666	0.25	loss-reward	TurnDisplay				
12	317.916	0.75	loss-reward	OutcomeDisplay				
13	318.669		control-noreward	ImageDisplay1		0.0		
13	320.909	0.75	control-noreward	StartDisplay				
13	321.661		control-noreward	ImageDisplay2		0.0		
13	324.67	1.6	control-noreward	ChoiceDisplay	1	0.848	1	1
13	325.539	0.752	control-noreward	ChosenDisplay		0.0		
13	326.275	0.25	control-noreward	TurnDisplay				
13	326.525	0.75	control-noreward	OutcomeDisplay				
14	327.278		win-noreward	ImageDisplay1		0.0		
14	329.267	0.75	win-noreward	StartDisplay				
14	330.019		win-noreward	ImageDisplay2		0.0		
14	333.279	1.6	win-noreward	ChoiceDisplay	1	0.726	1	1
14	334.031	0.874	win-noreward	ChosenDisplay		0.0		
14	334.884	0.25	win-noreward	TurnDisplay				
14	335.134	0.75	win-noreward	OutcomeDisplay				
15	335.887		control-reward	ImageDisplay1		0.0		
15	338.127	0.75	control-reward	StartDisplay				
15	338.879		control-reward	ImageDisplay2		0.0		
15	341.888	1.6	control-reward	ChoiceDisplay	1	0.886	1	1
15	342.791	0.714	control-reward	ChosenDisplay		0.0		
15	343.493	0.25	control-reward	TurnDisplay				
15	343.743	0.75	control-reward	OutcomeDisplay				
16	344.496		win-noreward	ImageDisplay1		0.0		
16	346.736	0.75	win-noreward	StartDisplay				
16	347.488		win-noreward	ImageDisplay2		0.0		
16	350.497	1.6	win-noreward	ChoiceDisplay	1	0.769	1	1
16	351.283	0.831	win-noreward	ChosenDisplay		0.0		
16	352.102	0.25	win-noreward	TurnDisplay				
16	352.352	0.75	win-noreward	OutcomeDisplay				
17	353.105		control-noreward	ImageDisplay1		0.0		
17	355.094	0.75	control-noreward	StartDisplay				
17	355.846		control-noreward	ImageDisplay2		0.0		
17	359.106	1.6	control-noreward	ChoiceDisplay	1	0.948	1	1
17	360.075	0.652	control-noreward	ChosenDisplay		0.0		
17	360.711	0.25	control-noreward	TurnDisplay				
17	360.961	0.75	control-noreward	OutcomeDisplay				
18	361.714		control-reward	ImageDisplay1		0.0		
18	363.703	0.75	control-reward	StartDisplay				
18	364.455		control-reward	ImageDisplay2		0.0		
18	367.715	1.6	control-reward	ChoiceDisplay	1	0.835	1	1
18	368.567	0.765	control-reward	ChosenDisplay		0.0		
18	369.32	0.25	control-reward	TurnDisplay				
18	369.57	0.75	control-reward	OutcomeDisplay				
19	370.323		loss-reward	ImageDisplay1		0.0		
19	372.563	0.75	loss-reward	StartDisplay				
19	373.315		loss-reward	ImageDisplay2		0.0		
19	376.324	1.6	loss-reward	ChoiceDisplay	1	0.807	1	1
19	377.143	0.793	loss-reward	ChosenDisplay		0.0		
19	377.929	0.25	loss-reward	TurnDisplay				
19	378.179	0.75	loss-reward	OutcomeDisplay				
20	378.932		loss-reward	ImageDisplay1		0.0		
20	381.171	0.75	loss-reward	StartDisplay				
20	381.924		loss-reward	ImageDisplay2		0.0		
20	384.933	1.6	loss-reward	ChoiceDisplay	1	0.868	1	1
20	385.819	0.732	loss-reward	ChosenDisplay		0.0		
20	386.537	0.25	loss-reward	TurnDisplay				
20	386.788	0.75	loss-reward	OutcomeDisplay				
21	387.54		control-noreward	ImageDisplay1		0.0		
21	389.53	0.75	control-noreward	StartDisplay				
21	390.282		control-noreward	ImageDisplay2		0.0		
21	393.542	1.6	control-noreward	ChoiceDisplay	1	0.879	1	1
21	394.444	0.721	control-noreward	ChosenDisplay		0.0		
21	395.146	0.25	control-noreward	TurnDisplay				
21	395.397	0.75	control-noreward	OutcomeDisplay				
22	396.149		win-reward	ImageDisplay1		0.0		
22	398.389	0.75	win-reward	StartDisplay				
22	399.142		win-reward	ImageDisplay2		0.0		
22	402.151	1.6	win-reward	ChoiceDisplay	1	0.88	1	1
22	403.053	0.72	win-reward	ChosenDisplay		0.0		
22	403.755	0.25	win-reward	TurnDisplay				
22	404.006	0.75	win-reward	OutcomeDisplay				
23	404.758		win-noreward	ImageDisplay1		0.0		
23	406.998	0.75	win-noreward	StartDisplay				
23	407.751		win-noreward	ImageDisplay2		0.0		
23	410.76	1.6	win-noreward	ChoiceDisplay	1	0.867	1	1
23	411.646	0.733	win-noreward	ChosenDisplay		0.0		
23	412.364	0.25	win-noreward	TurnDisplay				
23	412.615	0.75	win-noreward	OutcomeDisplay				
24	413.367		control-noreward	ImageDisplay1		0.0		
24	415.607	0.75	control-noreward	StartDisplay				
24	416.36		control-noreward	ImageDisplay2		0.0		
24	419.369	1.6	control-noreward	ChoiceDisplay	1	0.758	1	1
24	420.154	0.842	control-noreward	ChosenDisplay		0.0		
24	420.973	0.25	control-noreward	TurnDisplay				
24	421.224	0.75	control-noreward	OutcomeDisplay				
25	421.976		loss-reward	ImageDisplay1		0.0		
25	424.216	0.75	loss-reward	StartDisplay				
25	424.969		loss-reward	ImageDisplay2		0.0		
25	427.978	1.6	loss-reward	ChoiceDisplay	1	0.916	1	1
25	428.914	0.684	loss-reward	ChosenDisplay		0.0		
25	429.582	0.25	loss-reward	TurnDisplay				
25	429.833	0.75	loss-reward	OutcomeDisplay				
26	430.585		win-reward	ImageDisplay1		0.0		
26	432.825	0.75	win-reward	StartDisplay				
26	433.578		win-reward	ImageDisplay2		0.0		
26	436.587	1.6	win-reward	ChoiceDisplay	1	0.729	1	1
26	437.339	0.871	win-reward	ChosenDisplay		0.0		
26	438.191	0.25	win-reward	TurnDisplay				
26	438.442	0.75	win-reward	OutcomeDisplay				
27	439.194		loss-noreward	ImageDisplay1		0.0		
27	441.184	0.75	loss-noreward	StartDisplay				
27	441.936		loss-noreward	ImageDisplay2		0.0		
27	445.195	1.6	loss-noreward	ChoiceDisplay	1	1.055	1	1
27	446.265	0.545	loss-noreward	ChosenDisplay		0.0		
27	446.8	0.25	loss-noreward	TurnDisplay				
27	447.051	0.75	loss-noreward	OutcomeDisplay				
28	447.803		control-reward	ImageDisplay1		0.0		
28	449.792	0.75	control-reward	StartDisplay				
28	450.545		control-reward	ImageDisplay2		0.0		
28	453.804	1.6	control-reward	ChoiceDisplay	1	1.161	1	1
28	454.991	0.439	control-reward	ChosenDisplay		0.0		
28	455.409	0.25	control-reward	TurnDisplay				
28	455.66	0.75	control-reward	OutcomeDisplay				
29	456.412		win-reward	ImageDisplay1		0.0		
29	458.652	0.75	win-reward	StartDisplay				
29	459.404		win-reward	ImageDisplay2		0.0		
29	462.413	1.6	win-reward	ChoiceDisplay	1	0.838	1	1
29	463.266	0.762	win-reward	ChosenDisplay		0.0		
29	464.018	0.25	win-reward	TurnDisplay				
29	464.269	0.75	win-reward	OutcomeDisplay				
30	465.021		win-reward	ImageDisplay1		0.0		
30	467.01	0.75	win-reward	StartDisplay				
30	467.763		win-reward	ImageDisplay2		0.0		
30	471.022	1.6	win-reward	ChoiceDisplay	1	1.031	1	1
30	472.076	0.569	win-reward	ChosenDisplay		0.0		
30	472.627	0.25	win-reward	TurnDisplay				
30	472.878	0.75	win-reward	OutcomeDisplay				
31	473.63		loss-noreward	ImageDisplay1		0.0		
31	475.619	0.75	loss-noreward	StartDisplay				
31	476.372		loss-noreward	ImageDisplay2		0.0		
31	479.631	1.6	loss-noreward	ChoiceDisplay	1	1.05	1	1
31	480.701	0.55	loss-noreward	ChosenDisplay		0.0		
31	481.236	0.25	loss-noreward	TurnDisplay				
31	481.487	0.75	loss-noreward	OutcomeDisplay				
32	482.239		win-reward	ImageDisplay1		0.0		
32	484.228	0.75	win-reward	StartDisplay				
32	484.981		win-reward	ImageDisplay2		0.0		
32	488.24	1.6	win-reward	ChoiceDisplay	1	0.889	1	1
32	489.143	0.711	win-reward	ChosenDisplay		0.0		
32	489.845	0.25	win-reward	TurnDisplay				
32	490.096	0.75	win-reward	OutcomeDisplay				
33	490.848		control-reward	ImageDisplay1		0.0		
33	493.088	0.75	control-reward	StartDisplay				
33	493.84		control-reward	ImageDisplay2		0.0		
33	496.849	1.6	control-reward	ChoiceDisplay	1	0.812	1	1
33	497.685	0.788	control-reward	ChosenDisplay		0.0		
33	498.454	0.25	control-reward	TurnDisplay				
33	498.705	0.75	control-reward	OutcomeDisplay				
34	499.457		control-reward	ImageDisplay1		0.0		
34	501.697	0.75	control-reward	StartDisplay				
34	502.449		control-reward	ImageDisplay2		0.0		
34	505.458	1.6	control-reward	ChoiceDisplay	1	0.84	1	1
34	506.311	0.76	control-reward	ChosenDisplay		0.0		
34	507.063	0.25	control-reward	TurnDisplay				
34	507.314	0.75	control-reward	OutcomeDisplay				
35	508.066		control-noreward	ImageDisplay1		0.0		
35	510.306	0.75	control-noreward	StartDisplay				
35	511.058		control-noreward	ImageDisplay2		0.0		
35	514.067	1.6	control-noreward	ChoiceDisplay	1	1.091	1	1
35	515.173	0.509	control-noreward	ChosenDisplay		0.0		
35	515.672	0.25	control-noreward	TurnDisplay				
35	515.923	0.75	control-noreward	OutcomeDisplay				
36	516.675		control-noreward	ImageDisplay1		0.0		
36	518.664	0.75	control-noreward	StartDisplay				
36	519.416		control-noreward	ImageDisplay2		0.0		
36	522.676	1.6	control-noreward	ChoiceDisplay	1	0.658	1	1
36	523.362	0.942	control-noreward	ChosenDisplay		0.0		
36	524.281	0.25	control-noreward	TurnDisplay				
36	524.532	0.75	control-noreward	OutcomeDisplay				
37	525.284		win-reward	ImageDisplay1		0.0		
37	527.524	0.75	win-reward	StartDisplay				
37	528.276		win-reward	ImageDisplay2		0.0		
37	531.285	1.6	win-reward	ChoiceDisplay	1	0.766	1	1
37	532.071	0.834	win-reward	ChosenDisplay		0.0		
37	532.89	0.25	win-reward	TurnDisplay				
37	533.141	0.75	win-reward	OutcomeDisplay				
38	533.893		control-noreward	ImageDisplay1		0.0		
38	535.882	0.75	control-noreward	StartDisplay				
38	536.634		control-noreward	ImageDisplay2		0.0		
38	539.894	1.6	control-noreward	ChoiceDisplay	1	0.579	1	1
38	540.496	1.021	control-noreward	ChosenDisplay		0.0		
38	541.499	0.25	control-noreward	TurnDisplay				
38	541.75	0.75	control-noreward	OutcomeDisplay				
39	542.502		win-noreward	ImageDisplay1		0.0		
39	544.742	0.75	win-noreward	StartDisplay				
39	545.494		win-noreward	ImageDisplay2		0.0		
39	548.503	1.6	win-noreward	ChoiceDisplay	1	0.844	1	1
39	549.372	0.756	win-noreward	ChosenDisplay		0.0		
39	550.108	0.25	win-noreward	TurnDisplay				
39	550.359	0.75	win-noreward	OutcomeDisplay				
40	551.111		win-noreward	ImageDisplay1		0.0		
40	553.351	0.75	win-noreward	StartDisplay				
40	554.103		win-noreward	ImageDisplay2		0.0		
40	557.112	1.6	win-noreward	ChoiceDisplay	1	1.009	1	1
40	558.148	0.591	win-noreward	ChosenDisplay		0.0		
40	558.717	0.25	win-noreward	TurnDisplay				
40	558.968	0.75	win-noreward	OutcomeDisplay				
41	559.72		control-noreward	ImageDisplay1		0.0		
41	561.709	0.75	control-noreward	StartDisplay				
41	562.461		control-noreward	ImageDisplay2		0.0		
41	565.721	1.6	control-noreward	ChoiceDisplay	1	0.832	1	1
41	566.574	0.768	control-noreward	ChosenDisplay		0.0		
41	567.326	0.25	control-noreward	TurnDisplay				
41	567.577	0.75	control-noreward	OutcomeDisplay				
42	568.329		loss-reward	ImageDisplay1		0.0		
42	570.569	0.75	loss-reward	StartDisplay				
42	571.321		loss-reward	ImageDisplay2		0.0		
42	574.33	1.6	loss-reward	ChoiceDisplay	1	1.043	1	1
42	575.4	0.557	loss-reward	ChosenDisplay		0.0		
42	575.935	0.25	loss-reward	TurnDisplay				
42	576.185	0.75	loss-reward	OutcomeDisplay				
43	576.938		control-reward	ImageDisplay1		0.0		
43	579.178	0.75	control-reward	StartDisplay				
43	579.93		control-reward	ImageDisplay2		0.0		
43	582.939	1.6	control-reward	ChoiceDisplay	1	0.57	1	1
43	583.524	1.03	control-reward	ChosenDisplay		0.0		
43	584.544	0.25	control-reward	TurnDisplay				
43	584.794	0.75	control-reward	OutcomeDisplay				
44	585.547		control-reward	ImageDisplay1		0.0		
44	587.787	0.75	control-reward	StartDisplay				
44	588.539		control-reward	ImageDisplay2		0.0		
44	591.548	1.6	control-reward	ChoiceDisplay	1	0.912	1	1
44	592.484	0.688	control-reward	ChosenDisplay		0.0		
44	593.153	0.25	control-reward	TurnDisplay				
44	593.403	0.75	control-reward	OutcomeDisplay				
45	594.156		loss-reward	ImageDisplay1		0.0		
45	596.145	0.75	loss-reward	StartDisplay				
45	596.897		loss-reward	ImageDisplay2		0.0		
45	600.157	1.6	loss-reward	ChoiceDisplay	1	0.79	1	1
45	600.959	0.81	loss-reward	ChosenDisplay		0.0		
45	601.762	0.25	loss-reward	TurnDisplay				
45	602.012	0.75	loss-reward	OutcomeDisplay				
46	602.765		control-noreward	ImageDisplay1		0.0		
46	604.754	0.75	control-noreward	StartDisplay				
46	605.506		control-noreward	ImageDisplay2		0.0		
46	608.766	1.6	control-noreward	ChoiceDisplay	1	0.844	1	1
46	609.635	0.756	control-noreward	ChosenDisplay		0.0		
46	610.371	0.25	control-noreward	TurnDisplay				
46	610.621	0.75	control-noreward	OutcomeDisplay				
47	611.374		win-noreward	ImageDisplay1		0.0		
47	613.614	0.75	win-noreward	StartDisplay				
47	614.366		win-noreward	ImageDisplay2		0.0		
47	617.375	1.6	win-noreward	ChoiceDisplay	1	1.2	1	1
47	618.595	0.4	win-noreward	ChosenDisplay		0.0		
47	618.98	0.25	win-noreward	TurnDisplay				
47	619.23	0.75	win-noreward	OutcomeDisplay				
48	619.983		win-reward	ImageDisplay1		0.0		
48	621.972	0.75	win-reward	StartDisplay				
48	622.724		win-reward	ImageDisplay2		0.0		
48	625.984	1.6	win-reward	ChoiceDisplay	1	1.022	1	1
48	627.02	0.578	win-reward	ChosenDisplay		0.0		
48	627.589	0.25	win-reward	TurnDisplay				
48	627.839	0.75	win-reward	OutcomeDisplay				
49	628.592		loss-reward	ImageDisplay1		0.0		
49	630.581	0.75	loss-reward	StartDisplay				
49	631.333		loss-reward	ImageDisplay2		0.0		
49	634.593	1.6	loss-reward	ChoiceDisplay	1	0.816	1	1
49	635.429	0.784	loss-reward	ChosenDisplay		0.0		
49	636.198	0.25	loss-reward	TurnDisplay				
49	636.448	0.75	loss-reward	OutcomeDisplay				
50	637.201		win-noreward	ImageDisplay1		0.0		
50	639.19	0.75	win-noreward	StartDisplay				
50	639.942		win-noreward	ImageDisplay2		0.0		
50	643.202	1.6	win-noreward	ChoiceDisplay	1	0.74	1	1
50	643.954	0.86	win-noreward	ChosenDisplay		0.0		
50	644.806	0.25	win-noreward	TurnDisplay				
50	645.057	0.75	win-noreward	OutcomeDisplay				
51	645.809		win-noreward	ImageDisplay1		0.0		
51	647.799	0.75	win-noreward	StartDisplay				
51	648.551		win-noreward	ImageDisplay2		0.0		
51	651.811	1.6	win-noreward	ChoiceDisplay	1	0.764	1	1
51	652.596	0.836	win-noreward	ChosenDisplay		0.0		
51	653.415	0.25	win-noreward	TurnDisplay				
51	653.666	0.75	win-noreward	OutcomeDisplay				
52	654.418		loss-noreward	ImageDisplay1		0.0		
52	656.658	0.75	loss-noreward	StartDisplay				
52	657.411		loss-noreward	ImageDisplay2		0.0		
52	660.42	1.6	loss-noreward	ChoiceDisplay	1	1.011	1	1
52	661.456	0.589	loss-noreward	ChosenDisplay		0.0		
52	662.024	0.25	loss-noreward	TurnDisplay				
52	662.275	0.75	loss-noreward	OutcomeDisplay				
53	663.027		loss-reward	ImageDisplay1		0.0		
53	665.267	0.75	loss-reward	StartDisplay				
53	666.02		loss-reward	ImageDisplay2		0.0		
53	669.029	1.6	loss-reward	ChoiceDisplay	1	0.981	1	1
53	670.032	0.619	loss-reward	ChosenDisplay		0.0		
53	670.633	0.25	loss-reward	TurnDisplay				
53	670.884	0.75	loss-reward	OutcomeDisplay				
54	671.636		win-reward	ImageDisplay1		0.0		
54	673.876	0.75	win-reward	StartDisplay				
54	674.629		win-reward	ImageDisplay2		0.0		
54	677.638	1.6	win-reward	ChoiceDisplay	1	0.854	1	1
54	678.507	0.746	win-reward	ChosenDisplay		0.0		
54	679.242	0.25	win-reward	TurnDisplay				
54	679.493	0.75	win-reward	OutcomeDisplay				
55	680.245		win-reward	ImageDisplay1		0.0		
55	682.485	0.75	win-reward	StartDisplay				
55	683.238		win-reward	ImageDisplay2		0.0		
55	686.247	1.6	win-reward	ChoiceDisplay	1	0.838	1	1
55	687.099	0.762	win-reward	ChosenDisplay		0.0		
55	687.851	0.25	win-reward	TurnDisplay				
55	688.102	0.75	win-reward	OutcomeDisplay				
56	688.854		win-reward	ImageDisplay1		0.0		
56	690.844	0.75	win-reward	StartDisplay				
56	691.596		win-reward	ImageDisplay2		0.0		
56	694.856	1.6	win-reward	ChoiceDisplay	1	0.745	1	1
56	695.624	0.855	win-reward	ChosenDisplay		0.0		
56	696.46	0.25	win-reward	TurnDisplay				
56	696.711	0.75	win-reward	OutcomeDisplay				
57	697.463		win-noreward	ImageDisplay1		0.0		
57	699.453	0.75	win-noreward	StartDisplay				
57	700.205		win-noreward	ImageDisplay2		0.0		
57	703.464	1.6	win-noreward	ChoiceDisplay	1	0.767	1	1
57	704.25	0.833	win-noreward	ChosenDisplay		0.0		
57	705.069	0.25	win-noreward	TurnDisplay				
57	705.32	0.75	win-noreward	OutcomeDisplay				
58	706.072		win-noreward	ImageDisplay1		0.0		
58	708.061	0.75	win-noreward	StartDisplay				
58	708.814		win-noreward	ImageDisplay2		0.0		
58	712.073	1.6	win-noreward	ChoiceDisplay	1	0.634	1	1
58	712.725	0.966	win-noreward	ChosenDisplay		0.0		
58	713.678	0.25	win-noreward	TurnDisplay				
58	713.929	0.75	win-noreward	OutcomeDisplay				
59	714.681		control-reward	ImageDisplay1		0.0		
59	716.921	0.75	control-reward	StartDisplay				
59	717.673		control-reward	ImageDisplay2		0.0		
59	720.682	1.6	control-reward	ChoiceDisplay	1	0.65	1	1
59	721.351	0.95	control-reward	ChosenDisplay		0.0		
59	722.287	0.25	control-reward	TurnDisplay				
59	722.538	0.75	control-reward	OutcomeDisplay				
60	723.29		win-reward	ImageDisplay1		0.0		
60	725.296	0.75	win-reward	StartDisplay				
60	726.032		win-reward	ImageDisplay2		0.0		
60	729.291	1.6	win-reward	ChoiceDisplay	1	0.922	1	1
60	730.228	0.678	win-reward	ChosenDisplay		0.0		
60	730.896	0.25	win-reward	TurnDisplay				
60	731.147	0.75	win-reward	OutcomeDisplay				
61	731.899		win-reward	ImageDisplay1		0.0		
61	734.139	0.75	win-reward	StartDisplay				
61	734.891		win-reward	ImageDisplay2		0.0		
61	737.9	1.6	win-reward	ChoiceDisplay	1	0.807	1	1
61	738.719	0.793	win-reward	ChosenDisplay		0.0		
61	739.505	0.25	win-reward	TurnDisplay				
61	739.756	0.75	win-reward	OutcomeDisplay				
62	740.508		loss-noreward	ImageDisplay1		0.0		
62	742.748	0.75	loss-noreward	StartDisplay				
62	743.5		loss-noreward	ImageDisplay2		0.0		
62	746.509	1.6	loss-noreward	ChoiceDisplay	1	0.731	1	1
62	747.262	0.869	loss-noreward	ChosenDisplay		0.0		
62	748.114	0.25	loss-noreward	TurnDisplay				
62	748.365	0.75	loss-noreward	OutcomeDisplay				
63	749.117		win-noreward	ImageDisplay1		0.0		
63	751.357	0.75	win-noreward	StartDisplay				
63	752.109		win-noreward	ImageDisplay2		0.0		
63	755.118	1.6	win-noreward	ChoiceDisplay	1	0.543	1	1
63	755.687	1.057	win-noreward	ChosenDisplay		0.0		
63	756.723	0.25	win-noreward	TurnDisplay				
63	756.974	0.75	win-noreward	OutcomeDisplay				
64	757.726		win-noreward	ImageDisplay1		0.0		
64	759.966	0.75	win-noreward	StartDisplay				
64	760.718		win-noreward	ImageDisplay2		0.0		
64	763.727	1.6	win-noreward	ChoiceDisplay	1	0.754	1	1
64	764.496	0.846	win-noreward	ChosenDisplay		0.0		
64	765.332	0.25	win-noreward	TurnDisplay				
64	765.583	0.75	win-noreward	OutcomeDisplay				
65	766.335		loss-reward	ImageDisplay1		0.0		
65	768.324	0.75	loss-reward	StartDisplay				
65	769.077		loss-reward	ImageDisplay2		0.0		
65	772.336	1.6	loss-reward	ChoiceDisplay	1	0.737	1	1
65	773.088	0.863	loss-reward	ChosenDisplay		0.0		
65	773.941	0.25	loss-reward	TurnDisplay				
65	774.192	0.75	loss-reward	OutcomeDisplay				
66	774.944		control-reward	ImageDisplay1		0.0		
66	777.184	0.75	control-reward	StartDisplay				
66	777.936		control-reward	ImageDisplay2		0.0		
66	780.945	1.6	control-reward	ChoiceDisplay	1	0.516	1	1
66	781.48	1.084	control-reward	ChosenDisplay		0.0		
66	782.55	0.25	control-reward	TurnDisplay				
66	782.801	0.75	control-reward	OutcomeDisplay				
67	783.553		loss-reward	ImageDisplay1		0.0		
67	785.793	0.75	loss-reward	StartDisplay				
67	786.545		loss-reward	ImageDisplay2		0.0		
67	789.554	1.6	loss-reward	ChoiceDisplay	1	0.858	1	1
67	790.44	0.742	loss-reward	ChosenDisplay		0.0		
67	791.159	0.25	loss-reward	TurnDisplay				
67	791.41	0.75	loss-reward	OutcomeDisplay				
68	792.162		win-reward	ImageDisplay1		0.0		
68	794.151	0.75	win-reward	StartDisplay				
68	794.903		win-reward	ImageDisplay2		0.0		
68	798.163	1.6	win-reward	ChoiceDisplay	1	0.964	1	1
68	799.149	0.636	win-reward	ChosenDisplay		0.0		
68	799.768	0.25	win-reward	TurnDisplay				
68	800.019	0.75	win-reward	OutcomeDisplay				
69	800.771		loss-noreward	ImageDisplay1		0.0		
69	802.76	0.75	loss-noreward	StartDisplay				
69	803.529		loss-noreward	ImageDisplay2		0.0		
69	806.772	1.6	loss-noreward	ChoiceDisplay	1	0.812	1	1
69	807.608	0.788	loss-noreward	ChosenDisplay		0.0		
69	808.377	0.25	loss-noreward	TurnDisplay				
69	808.628	0.75	loss-noreward	OutcomeDisplay				
70	809.38		control-noreward	ImageDisplay1		0.0		
70	811.62	0.75	control-noreward	StartDisplay				
70	812.372		control-noreward	ImageDisplay2		0.0		
70	815.381	1.6	control-noreward	ChoiceDisplay	1	0.534	1	1
70	815.933	1.066	control-noreward	ChosenDisplay		0.0		
70	816.986	0.25	control-noreward	TurnDisplay				
70	817.237	0.75	control-noreward	OutcomeDisplay				
71	817.989		loss-reward	ImageDisplay1		0.0		
71	820.229	0.75	loss-reward	StartDisplay				
71	820.981		loss-reward	ImageDisplay2		0.0		
71	823.99	1.6	loss-reward	ChoiceDisplay	1	0.796	1	1
71	824.809	0.804	loss-reward	ChosenDisplay		0.0		
71	825.595	0.25	loss-reward	TurnDisplay				
71	825.846	0.75	loss-reward	OutcomeDisplay				
72	826.598		win-noreward	ImageDisplay1		0.0		
72	828.587	0.75	win-noreward	StartDisplay				
72	829.339		win-noreward	ImageDisplay2		0.0		
72	832.599	1.6	win-noreward	ChoiceDisplay	1	0.738	1	1
72	833.351	0.862	win-noreward	ChosenDisplay		0.0		
72	834.204	0.25	win-noreward	TurnDisplay				
72	834.455	0.75	win-noreward	OutcomeDisplay				
73	835.207		loss-noreward	ImageDisplay1		0.0		
73	837.196	0.75	loss-noreward	StartDisplay				
73	837.948		loss-noreward	ImageDisplay2		0.0		
73	841.208	1.6	loss-noreward	ChoiceDisplay	1	0.752	1	1
73	841.977	0.848	loss-noreward	ChosenDisplay		0.0		
73	842.813	0.25	loss-noreward	TurnDisplay				
73	843.063	0.75	loss-noreward	OutcomeDisplay				
74	843.816		win-reward	ImageDisplay1		0.0		
74	845.806	0.75	win-reward	StartDisplay				
74	846.557		win-reward	ImageDisplay2		0.0		
74	849.817	1.6	win-reward	ChoiceDisplay	1	0.657	1	1
74	850.502	0.943	win-reward	ChosenDisplay		0.0		
74	851.422	0.25	win-reward	TurnDisplay				
74	851.672	0.75	win-reward	OutcomeDisplay				
75	852.425		loss-noreward	ImageDisplay1		0.0		
75	854.665	0.75	loss-noreward	StartDisplay				
75	855.417		loss-noreward	ImageDisplay2		0.0		
75	858.426	1.6	loss-noreward	ChoiceDisplay	1	0.807	1	1
75	859.245	0.793	loss-noreward	ChosenDisplay		0.0		
75	860.031	0.25	loss-noreward	TurnDisplay				
75	860.281	0.75	loss-noreward	OutcomeDisplay				
76	861.034		win-reward	ImageDisplay1		0.0		
76	863.023	0.75	win-reward	StartDisplay				
76	863.775		win-reward	ImageDisplay2		0.0		
76	867.035	1.6	win-reward	ChoiceDisplay	1	0.757	1	1
76	867.804	0.843	win-reward	ChosenDisplay		0.0		
76	868.64	0.25	win-reward	TurnDisplay				
76	868.89	0.75	win-reward	OutcomeDisplay				
77	869.643		win-reward	ImageDisplay1		0.0		
77	871.883	0.75	win-reward	StartDisplay				
77	872.635		win-reward	ImageDisplay2		0.0		
77	875.644	1.6	win-reward	ChoiceDisplay	1	0.814	1	1
77	876.48	0.786	win-reward	ChosenDisplay		0.0		
77	877.249	0.25	win-reward	TurnDisplay				
77	877.499	0.75	win-reward	OutcomeDisplay				
78	878.252		control-noreward	ImageDisplay1		0.0		
78	880.492	0.75	control-noreward	StartDisplay				
78	881.244		control-noreward	ImageDisplay2		0.0		
78	884.253	1.6	control-noreward	ChoiceDisplay	1	0.755	1	1
78	885.022	0.845	control-noreward	ChosenDisplay		0.0		
78	885.858	0.25	control-noreward	TurnDisplay				
78	886.108	0.75	control-noreward	OutcomeDisplay				
79	886.861		loss-reward	ImageDisplay1		0.0		
79	888.85	0.75	loss-reward	StartDisplay				
79	889.602		loss-reward	ImageDisplay2		0.0		
79	892.862	1.6	loss-reward	ChoiceDisplay	1	0.693	1	1
79	893.581	0.907	loss-reward	ChosenDisplay		0.0		
79	894.467	0.25	loss-reward	TurnDisplay				
79	894.717	0.75	loss-reward	OutcomeDisplay				
80	895.47		control-reward	ImageDisplay1		0.0		
80	897.459	0.75	control-reward	StartDisplay				
80	898.211		control-reward	ImageDisplay2		0.0		
80	901.471	1.6	control-reward	ChoiceDisplay	1	0.595	1	1
80	902.089	1.005	control-reward	ChosenDisplay		0.0		
80	903.075	0.25	control-reward	TurnDisplay				
80	903.326	0.75	control-reward	OutcomeDisplay				
81	904.078		loss-noreward	ImageDisplay1		0.0		
81	906.068	0.75	loss-noreward	StartDisplay				
81	906.82		loss-noreward	ImageDisplay2		0.0		
81	910.08	1.6	loss-noreward	ChoiceDisplay	1	0.709	1	1
81	910.815	0.891	loss-noreward	ChosenDisplay		0.0		
81	911.684	0.25	loss-noreward	TurnDisplay				
81	911.935	0.75	loss-noreward	OutcomeDisplay				
82	912.687		control-reward	ImageDisplay1		0.0		
82	914.677	0.75	control-reward	StartDisplay				
82	915.429		control-reward	ImageDisplay2		0.0		
82	918.689	1.6	control-reward	ChoiceDisplay	1	0.697	1	1
82	919.407	0.903	control-reward	ChosenDisplay		0.0		
82	920.293	0.25	control-reward	TurnDisplay				
82	920.544	0.75	control-reward	OutcomeDisplay				
83	921.296		control-noreward	ImageDisplay1		0.0		
83	923.536	0.75	control-noreward	StartDisplay				
83	924.289		control-noreward	ImageDisplay2		0.0		
83	927.298	1.6	control-noreward	ChoiceDisplay	1	0.807	1	1
83	928.117	0.793	control-noreward	ChosenDisplay		0.0		
83	928.902	0.25	control-noreward	TurnDisplay				
83	929.153	0.75	control-noreward	OutcomeDisplay				
84	929.905		control-noreward	ImageDisplay1		0.0		
84	932.145	0.75	control-noreward	StartDisplay				
84	932.898		control-noreward	ImageDisplay2		0.0		
84	935.907	1.6	control-noreward	ChoiceDisplay	1	0.896	1	1
84	936.826	0.704	control-noreward	ChosenDisplay		0.0		
84	937.511	0.25	control-noreward	TurnDisplay				
84	937.762	0.75	control-noreward	OutcomeDisplay				
85	938.514		win-noreward	ImageDisplay1		0.0		
85	940.504	0.75	win-noreward	StartDisplay				
85	941.256		win-noreward	ImageDisplay2		0.0		
85	944.516	1.6	win-noreward	ChoiceDisplay	1	0.894	1	1
85	945.435	0.706	win-noreward	ChosenDisplay		0.0		
85	946.12	0.25	win-noreward	TurnDisplay				
85	946.371	0.75	win-noreward	OutcomeDisplay				
86	947.123		loss-noreward	ImageDisplay1		0.0		
86	949.363	0.75	loss-noreward	StartDisplay				
86	950.116		loss-noreward	ImageDisplay2		0.0		
86	953.125	1.6	loss-noreward	ChoiceDisplay	1	0.794	1	1
86	953.944	0.806	loss-noreward	ChosenDisplay		0.0		
86	954.729	0.25	loss-noreward	TurnDisplay				
86	954.98	0.75	loss-noreward	OutcomeDisplay				
87	955.732		control-reward	ImageDisplay1		0.0		
87	957.722	0.75	control-reward	StartDisplay				
87	958.474		control-reward	ImageDisplay2		0.0		
87	961.733	1.6	control-reward	ChoiceDisplay	1	0.681	1	1
87	962.436	0.919	control-reward	ChosenDisplay		0.0		
87	963.338	0.25	control-reward	TurnDisplay				
87	963.589	0.75	control-reward	OutcomeDisplay				
88	964.341		control-reward	ImageDisplay1		0.0		
88	966.581	0.75	control-reward	StartDisplay				
88	967.333		control-reward	ImageDisplay2		0.0		
88	970.342	1.6	control-reward	ChoiceDisplay	1	0.606	1	1
88	970.961	0.994	control-reward	ChosenDisplay		0.0		
88	971.947	0.25	control-reward	TurnDisplay				
88	972.198	0.75	control-reward	OutcomeDisplay				
89	972.95		control-reward	ImageDisplay1		0.0		
89	974.939	0.75	control-reward	StartDisplay				
89	975.692		control-reward	ImageDisplay2		0.0		
89	978.951	1.6	control-reward	ChoiceDisplay	1	0.71	1	1
89	979.687	0.89	control-reward	ChosenDisplay		0.0		
89	980.556	0.25	control-reward	TurnDisplay				
89	980.807	0.75	control-reward	OutcomeDisplay				
90	981.559		loss-reward	ImageDisplay1		0.0		
90	983.548	0.75	loss-reward	StartDisplay				
90	984.301		loss-reward	ImageDisplay2		0.0		
90	987.56	1.6	loss-reward	ChoiceDisplay	1	0.679	1	1
90	988.262	0.921	loss-reward	ChosenDisplay		0.0		
90	989.165	0.25	loss-reward	TurnDisplay				
90	989.416	0.75	loss-reward	OutcomeDisplay				
91	990.168		loss-noreward	ImageDisplay1		0.0		
91	992.157	0.75	loss-noreward	StartDisplay				
91	992.91		loss-noreward	ImageDisplay2		0.0		
91	996.169	1.6	loss-noreward	ChoiceDisplay	1	0.542	1	1
91	996.738	1.058	loss-noreward	ChosenDisplay		0.0		
91	997.774	0.25	loss-noreward	TurnDisplay				
91	998.025	0.75	loss-noreward	OutcomeDisplay				
92	998.777		loss-noreward	ImageDisplay1		0.0		
92	1001.017	0.75	loss-noreward	StartDisplay				
92	1001.769		loss-noreward	ImageDisplay2		0.0		
92	1004.778	1.6	loss-noreward	ChoiceDisplay	1	0.599	1	1
92	1005.397	1.001	loss-noreward	ChosenDisplay		0.0		
92	1006.383	0.25	loss-noreward	TurnDisplay				
92	1006.634	0.75	loss-noreward	OutcomeDisplay				
93	1007.386		control-reward	ImageDisplay1		0.0		
93	1009.375	0.75	control-reward	StartDisplay				
93	1010.128		control-reward	ImageDisplay2		0.0		
93	1013.387	1.6	control-reward	ChoiceDisplay	1	0.747	1	1
93	1014.156	0.853	control-reward	ChosenDisplay		0.0		
93	1014.992	0.25	control-reward	TurnDisplay				
93	1015.243	0.75	control-reward	OutcomeDisplay				
94	1015.995		loss-noreward	ImageDisplay1		0.0		
94	1018.235	0.75	loss-noreward	StartDisplay				
94	1018.987		loss-noreward	ImageDisplay2		0.0		
94	1021.996	1.6	loss-noreward	ChoiceDisplay	1	0.593	1	1
94	1022.615	1.007	loss-noreward	ChosenDisplay		0.0		
94	1023.601	0.25	loss-noreward	TurnDisplay				
94	1023.852	0.75	loss-noreward	OutcomeDisplay				
95	1024.604		loss-reward	ImageDisplay1		0.0		
95	1026.593	0.75	loss-reward	StartDisplay				
95	1027.346		loss-reward	ImageDisplay2		0.0		
95	1030.605	1.6	loss-reward	ChoiceDisplay	1	0.771	1	1
95	1031.391	0.829	loss-reward	ChosenDisplay		0.0		
95	1032.21	0.25	loss-reward	TurnDisplay				
95	1032.461	0.75	loss-reward	OutcomeDisplay				
