onset	duration	trial_type	response_time	stim_file	accuracy
40.127	1.0	go	0.0	Go_X	0.0
42.718	1.0	go	0.368	Go_O	1.0
45.242	1.0	go	0.326	Go_O	1.0
47.766	1.0	go	0.368	Go_X	1.0
50.29	1.0	go	0.246	Go_X	1.0
52.814	1.0	go	0.436	Go_O	1.0
55.339	0.25	stop	0.3	Go_O	0.0
57.863	1.0	go	0.358	Go_X	1.0
60.387	0.2	stop	0.255	Go_X	0.0
62.911	1.0	go	0.293	Go_O	1.0
65.435	1.0	go	0.376	Go_X	1.0
67.96	1.0	go	0.311	Go_O	1.0
70.484	0.15	stop	0.402	Go_O	0.0
73.008	1.0	go	0.298	Go_O	1.0
75.532	1.0	go	0.408	Go_X	1.0
78.056	0.1	stop	0.0	Go_X	1.0
80.597	0.15	stop	0.0	Go_O	1.0
83.121	1.0	go	0.442	Go_X	1.0
85.646	1.0	go	0.219	Go_O	1.0
88.17	0.2	stop	0.524	Go_X	0.0
90.694	1.0	go	0.583	Go_O	1.0
93.218	1.0	go	0.478	Go_X	1.0
95.742	0.15	stop	0.0	Go_O	1.0
98.266	1.0	go	0.24	Go_O	1.0
100.791	1.0	go	0.267	Go_X	1.0
103.315	0.2	stop	0.0	Go_X	1.0
105.839	1.0	go	0.259	Go_X	1.0
108.363	1.0	go	0.262	Go_O	1.0
110.887	0.25	stop	0.0	Go_O	1.0
113.412	1.0	go	0.228	Go_X	1.0
115.936	1.0	go	0.218	Go_O	1.0
118.46	1.0	go	0.364	Go_X	1.0
120.984	1.0	go	0.531	Go_O	1.0
123.508	1.0	go	0.359	Go_O	1.0
126.032	0.3	stop	0.287	Go_X	0.0
128.557	1.0	go	0.285	Go_X	1.0
131.081	1.0	go	0.361	Go_X	1.0
133.605	1.0	go	0.408	Go_O	1.0
136.129	1.0	go	0.269	Go_O	1.0
138.653	1.0	go	0.417	Go_X	1.0
141.178	0.25	stop	0.374	Go_O	0.0
143.702	1.0	go	0.225	Go_O	0.0
146.226	1.0	go	0.468	Go_X	1.0
148.75	1.0	go	0.319	Go_O	1.0
151.274	1.0	go	0.353	Go_X	1.0
153.798	1.0	go	0.352	Go_X	0.0
156.323	1.0	go	0.265	Go_O	1.0
158.847	0.2	stop	0.294	Go_X	0.0
161.371	1.0	go	0.387	Go_X	1.0
163.895	1.0	go	0.407	Go_O	1.0
166.419	0.15	stop	0.269	Go_O	0.0
168.944	1.0	go	0.397	Go_O	1.0
171.468	0.1	stop	0.297	Go_X	0.0
173.992	0.05	stop	0.0	Go_O	1.0
176.516	1.0	go	0.308	Go_X	1.0
179.04	1.0	go	0.388	Go_X	1.0
181.564	1.0	go	0.441	Go_O	1.0
184.089	1.0	go	0.342	Go_X	1.0
186.613	0.1	stop	0.0	Go_X	1.0
189.137	1.0	go	0.311	Go_O	1.0
191.661	0.15	stop	0.348	Go_O	0.0
194.185	1.0	go	0.369	Go_X	1.0
196.71	1.0	go	0.321	Go_O	1.0
199.234	1.0	go	0.251	Go_O	1.0
201.758	1.0	go	0.339	Go_X	1.0
204.282	1.0	go	0.417	Go_O	1.0
206.806	1.0	go	0.578	Go_X	1.0
209.33	1.0	go	0.382	Go_O	1.0
211.855	1.0	go	0.261	Go_X	1.0
214.379	1.0	go	0.588	Go_O	1.0
216.903	0.1	stop	0.0	Go_X	1.0
219.427	1.0	go	0.38	Go_X	1.0
221.951	1.0	go	0.241	Go_O	1.0
224.476	1.0	go	0.319	Go_X	1.0
227.0	0.15	stop	0.277	Go_O	0.0
229.524	1.0	go	0.362	Go_O	1.0
232.048	1.0	go	0.254	Go_X	1.0
234.572	1.0	go	0.266	Go_X	1.0
237.096	1.0	go	0.401	Go_O	1.0
239.621	1.0	go	0.388	Go_X	1.0
242.145	1.0	go	0.372	Go_O	1.0
244.669	0.1	stop	0.0	Go_X	1.0
247.193	1.0	go	0.289	Go_O	1.0
249.717	1.0	go	0.366	Go_X	1.0
252.242	0.15	stop	0.0	Go_O	1.0
254.766	1.0	go	0.332	Go_X	1.0
257.29	1.0	go	0.419	Go_O	1.0
259.814	0.2	stop	0.309	Go_X	0.0
262.338	1.0	go	0.395	Go_X	1.0
264.863	0.15	stop	0.0	Go_O	1.0
267.387	1.0	go	0.257	Go_O	1.0
269.911	1.0	go	0.353	Go_O	1.0
272.435	1.0	go	0.393	Go_X	1.0
274.959	1.0	go	0.42	Go_O	1.0
277.483	1.0	go	0.317	Go_X	1.0
280.008	0.2	stop	0.511	Go_X	0.0
282.532	0.15	stop	0.343	Go_O	0.0
285.056	1.0	go	0.314	Go_O	1.0
287.58	1.0	go	0.49	Go_X	1.0
290.104	0.1	stop	0.264	Go_X	0.0
292.629	1.0	go	0.394	Go_O	1.0
295.153	1.0	go	0.404	Go_X	1.0
297.677	1.0	go	0.318	Go_X	1.0
300.201	1.0	go	0.262	Go_O	1.0
302.725	1.0	go	0.244	Go_O	1.0
305.249	1.0	go	0.365	Go_X	1.0
307.774	0.05	stop	0.0	Go_O	1.0
310.298	1.0	go	0.377	Go_X	1.0
312.822	1.0	go	0.406	Go_O	1.0
315.346	1.0	go	0.363	Go_X	1.0
317.87	1.0	go	0.566	Go_O	1.0
320.395	1.0	go	0.48	Go_X	1.0
322.919	0.1	stop	0.0	Go_X	1.0
325.443	1.0	go	0.284	Go_O	1.0
327.967	1.0	go	0.394	Go_O	1.0
330.491	1.0	go	0.336	Go_X	1.0
333.015	1.0	go	0.324	Go_X	1.0
335.54	0.15	stop	0.31	Go_O	0.0
338.064	1.0	go	0.43	Go_O	1.0
340.588	1.0	go	0.347	Go_X	1.0
343.112	0.1	stop	0.0	Go_X	1.0
345.636	1.0	go	0.332	Go_O	1.0
348.161	0.15	stop	0.312	Go_O	0.0
350.685	1.0	go	0.468	Go_O	1.0
353.209	1.0	go	0.31	Go_X	1.0
355.733	1.0	go	0.357	Go_O	1.0
358.257	1.0	go	0.538	Go_X	1.0
360.781	1.0	go	0.372	Go_O	1.0
363.306	1.0	go	0.394	Go_X	1.0
365.83	1.0	go	0.375	Go_O	1.0
368.354	0.1	stop	0.0	Go_X	1.0
370.878	1.0	go	0.375	Go_X	1.0
373.402	1.0	go	0.342	Go_O	1.0
375.927	1.0	go	0.326	Go_X	1.0
378.451	0.15	stop	0.0	Go_O	1.0
380.975	1.0	go	0.312	Go_O	1.0
383.499	1.0	go	0.343	Go_X	1.0
386.023	1.0	go	0.256	Go_X	1.0
388.547	1.0	go	0.32	Go_O	1.0
391.072	0.2	stop	0.0	Go_X	1.0
393.596	1.0	go	0.361	Go_X	1.0
396.12	1.0	go	0.263	Go_O	1.0
398.644	0.25	stop	0.38	Go_O	0.0
401.168	1.0	go	0.487	Go_X	1.0
403.693	1.0	go	0.604	Go_O	1.0
406.217	0.2	stop	0.275	Go_X	0.0
408.741	1.0	go	0.51	Go_X	1.0
411.265	1.0	go	0.78	Go_O	1.0
413.789	0.15	stop	0.445	Go_O	0.0
416.313	1.0	go	0.346	Go_O	1.0
418.838	1.0	go	0.499	Go_X	1.0
421.362	1.0	go	0.327	Go_X	1.0
423.886	1.0	go	0.362	Go_O	1.0
426.41	1.0	go	0.358	Go_O	1.0
428.934	1.0	go	0.32	Go_X	1.0
431.459	0.1	stop	0.0	Go_X	1.0
433.983	1.0	go	0.418	Go_X	1.0
436.507	0.15	stop	0.0	Go_O	1.0
439.031	1.0	go	0.571	Go_O	1.0
441.555	1.0	go	0.368	Go_X	1.0
444.079	1.0	go	0.449	Go_O	1.0
446.604	1.0	go	0.333	Go_O	1.0
449.128	1.0	go	0.469	Go_X	1.0
451.652	0.2	stop	0.313	Go_X	0.0
454.176	1.0	go	0.44	Go_X	1.0
456.7	1.0	go	0.34	Go_O	1.0
459.225	1.0	go	0.283	Go_O	1.0
461.749	0.15	stop	0.215	Go_O	0.0
464.273	0.1	stop	0.485	Go_X	0.0
466.797	0.05	stop	0.0	Go_O	1.0
469.321	1.0	go	0.445	Go_X	1.0
471.845	0.1	stop	0.0	Go_X	1.0
474.37	1.0	go	0.445	Go_X	1.0
476.894	1.0	go	0.294	Go_O	1.0
479.418	1.0	go	0.301	Go_X	1.0
481.942	1.0	go	0.252	Go_O	1.0
484.466	1.0	go	0.365	Go_X	1.0
486.991	1.0	go	0.582	Go_O	1.0
489.515	1.0	go	0.331	Go_O	1.0
492.039	1.0	go	0.345	Go_X	1.0
494.563	0.15	stop	0.0	Go_O	1.0
497.087	1.0	go	0.277	Go_O	1.0
499.611	1.0	go	0.35	Go_X	1.0
502.136	0.2	stop	0.0	Go_X	1.0
504.66	1.0	go	0.241	Go_O	1.0
507.184	1.0	go	0.36	Go_X	1.0
509.708	1.0	go	0.429	Go_O	1.0
512.232	1.0	go	0.812	Go_X	1.0
514.757	1.0	go	0.278	Go_O	1.0
517.281	0.25	stop	0.365	Go_O	0.0
519.805	1.0	go	0.394	Go_X	1.0
522.329	1.0	go	0.492	Go_O	1.0
524.853	1.0	go	0.338	Go_X	1.0
527.377	0.2	stop	0.38	Go_X	0.0
529.902	1.0	go	0.354	Go_X	1.0
532.426	0.15	stop	0.311	Go_O	0.0
534.95	1.0	go	0.382	Go_O	1.0
537.474	1.0	go	0.406	Go_O	1.0
539.998	1.0	go	0.415	Go_X	1.0
542.523	1.0	go	0.429	Go_X	1.0
545.047	1.0	go	0.474	Go_O	1.0
547.571	1.0	go	0.269	Go_O	1.0
550.095	1.0	go	0.291	Go_X	1.0
552.619	0.1	stop	0.24	Go_X	0.0
555.143	1.0	go	0.364	Go_X	1.0
557.668	1.0	go	0.312	Go_O	1.0
560.192	1.0	go	0.347	Go_X	1.0
562.716	1.0	go	0.306	Go_O	1.0
565.24	0.05	stop	0.0	Go_O	1.0
567.764	1.0	go	0.389	Go_O	1.0
570.289	0.1	stop	0.0	Go_X	1.0
572.813	1.0	go	0.683	Go_X	1.0
575.337	1.0	go	0.355	Go_X	1.0
577.861	0.15	stop	0.214	Go_O	0.0
580.385	1.0	go	0.599	Go_O	1.0
582.91	1.0	go	0.362	Go_O	1.0
585.434	1.0	go	0.306	Go_X	1.0
587.958	1.0	go	0.357	Go_X	1.0
590.482	1.0	go	0.415	Go_O	1.0
593.006	1.0	go	0.428	Go_O	1.0
595.53	1.0	go	0.359	Go_X	1.0
598.055	1.0	go	0.404	Go_O	1.0
600.579	1.0	go	0.304	Go_X	1.0
603.103	1.0	go	0.287	Go_O	1.0
605.627	0.1	stop	0.0	Go_X	1.0
608.151	1.0	go	0.488	Go_X	1.0
610.676	1.0	go	0.321	Go_X	0.0
613.2	0.15	stop	0.268	Go_O	0.0
615.724	1.0	go	0.421	Go_O	1.0
618.248	0.1	stop	0.0	Go_X	1.0
620.772	1.0	go	0.32	Go_X	1.0
623.296	1.0	go	0.469	Go_O	1.0
625.821	0.15	stop	0.0	Go_O	1.0
628.345	1.0	go	0.344	Go_X	1.0
630.869	0.2	stop	0.474	Go_X	0.0
633.393	1.0	go	0.504	Go_O	1.0
635.917	1.0	go	0.442	Go_X	1.0
638.442	1.0	go	0.523	Go_O	1.0
640.966	0.15	stop	0.307	Go_O	0.0
643.49	1.0	go	0.456	Go_O	1.0
646.014	1.0	go	0.401	Go_X	1.0
648.538	1.0	go	0.357	Go_O	1.0
651.062	1.0	go	0.643	Go_X	1.0
653.587	0.1	stop	0.0	Go_X	1.0
656.111	1.0	go	0.573	Go_O	1.0
658.635	1.0	go	0.385	Go_X	1.0
661.159	0.15	stop	0.266	Go_O	0.0
663.683	1.0	go	0.378	Go_X	1.0
666.208	1.0	go	0.256	Go_O	1.0
668.732	1.0	go	0.344	Go_X	1.0
671.256	1.0	go	0.373	Go_O	1.0
673.78	0.1	stop	0.0	Go_X	1.0
676.304	1.0	go	0.382	Go_X	1.0
678.828	0.15	stop	0.365	Go_O	0.0
681.353	1.0	go	0.273	Go_O	1.0
683.877	1.0	go	0.326	Go_O	1.0
686.401	0.1	stop	0.42	Go_X	0.0
688.925	1.0	go	0.394	Go_X	1.0
691.449	1.0	go	0.403	Go_O	1.0
693.974	1.0	go	0.353	Go_X	1.0
696.498	1.0	go	0.412	Go_O	1.0
699.022	0.05	stop	0.912	Go_O	0.0
701.546	1.0	go	0.546	Go_X	1.0
704.07	0.0	stop	0.0	Go_X	1.0
706.611	1.0	go	0.297	Go_O	1.0
709.135	1.0	go	0.323	Go_X	1.0
711.66	1.0	go	0.363	Go_X	1.0
714.184	1.0	go	0.291	Go_O	1.0
716.708	1.0	go	0.374	Go_O	1.0
719.232	1.0	go	0.345	Go_X	1.0
721.756	0.05	stop	0.0	Go_O	1.0
724.28	1.0	go	0.335	Go_X	1.0
726.805	1.0	go	0.322	Go_O	1.0
729.329	0.1	stop	0.446	Go_X	0.0
731.853	1.0	go	0.423	Go_X	1.0
734.377	1.0	go	0.572	Go_O	1.0
736.901	0.05	stop	0.0	Go_O	1.0
739.426	1.0	go	0.239	Go_O	1.0
741.95	1.0	go	0.318	Go_X	1.0
744.474	1.0	go	0.373	Go_O	1.0
746.998	1.0	go	0.453	Go_X	1.0
749.522	0.1	stop	0.0	Go_X	1.0
752.046	1.0	go	0.461	Go_X	1.0
754.571	0.15	stop	0.0	Go_O	1.0
757.095	1.0	go	0.3	Go_O	1.0
759.619	1.0	go	0.261	Go_O	1.0
762.143	1.0	go	0.226	Go_X	1.0
764.667	1.0	go	0.292	Go_X	1.0
767.192	1.0	go	0.259	Go_O	1.0
769.716	0.2	stop	0.329	Go_X	0.0
772.24	1.0	go	0.416	Go_X	1.0
774.764	1.0	go	0.249	Go_O	1.0
777.288	0.15	stop	0.377	Go_O	0.0
779.812	0.1	stop	0.0	Go_X	1.0
782.337	1.0	go	0.323	Go_X	0.0
784.861	1.0	go	0.33	Go_O	1.0
787.385	1.0	go	0.488	Go_O	1.0
789.909	1.0	go	0.32	Go_X	1.0
792.433	0.15	stop	0.0	Go_O	1.0
794.958	1.0	go	0.34	Go_O	1.0
