onset	duration	trial_type	response_time	stim_file	accuracy
98.265	1.0	go	0.393	Go_O	1.0
100.799	1.0	go	0.298	Go_X	1.0
103.332	1.0	go	0.335	Go_O	1.0
105.865	1.0	go	0.206	Go_X	1.0
108.398	1.0	go	0.25	Go_X	1.0
110.932	1.0	go	0.176	Go_O	1.0
113.465	0.25	stop	0.222	Go_O	0.0
115.998	1.0	go	0.248	Go_X	1.0
118.531	0.2	stop	0.391	Go_X	0.0
121.065	1.0	go	0.331	Go_O	1.0
123.598	1.0	go	0.22	Go_X	1.0
126.131	1.0	go	0.278	Go_O	1.0
128.664	0.15	stop	0.0	Go_O	1.0
131.198	1.0	go	0.323	Go_O	1.0
133.731	1.0	go	0.501	Go_X	1.0
136.264	0.2	stop	0.238	Go_X	0.0
138.797	0.15	stop	0.321	Go_O	0.0
141.331	1.0	go	0.437	Go_O	1.0
143.864	1.0	go	0.435	Go_X	1.0
146.397	0.1	stop	0.0	Go_X	1.0
148.93	1.0	go	0.329	Go_O	1.0
151.464	1.0	go	0.397	Go_X	1.0
154.013	0.15	stop	0.269	Go_O	0.0
156.547	1.0	go	0.55	Go_O	1.0
159.08	1.0	go	0.401	Go_X	1.0
161.613	0.1	stop	0.0	Go_X	1.0
164.146	1.0	go	0.352	Go_X	1.0
166.68	1.0	go	0.232	Go_O	1.0
169.213	0.15	stop	0.336	Go_O	0.0
171.746	1.0	go	0.441	Go_X	1.0
174.279	1.0	go	0.277	Go_O	1.0
176.813	1.0	go	0.419	Go_X	1.0
179.346	1.0	go	0.342	Go_O	1.0
181.879	1.0	go	0.435	Go_O	1.0
184.412	0.1	stop	0.0	Go_X	1.0
186.946	1.0	go	0.418	Go_X	1.0
189.479	1.0	go	0.318	Go_O	1.0
192.012	1.0	go	0.384	Go_X	1.0
194.545	1.0	go	0.387	Go_X	1.0
197.079	1.0	go	0.343	Go_O	1.0
199.612	0.15	stop	0.0	Go_O	1.0
202.145	1.0	go	0.346	Go_O	1.0
204.678	1.0	go	0.259	Go_X	1.0
207.212	1.0	go	0.367	Go_X	1.0
209.761	1.0	go	0.291	Go_O	1.0
212.295	1.0	go	0.349	Go_O	1.0
214.828	1.0	go	0.358	Go_X	1.0
217.361	0.2	stop	0.0	Go_X	1.0
219.894	1.0	go	0.23	Go_X	1.0
222.428	1.0	go	0.341	Go_O	1.0
224.961	0.25	stop	0.253	Go_O	0.0
227.494	1.0	go	0.303	Go_X	1.0
230.027	0.2	stop	0.36	Go_X	0.0
232.561	0.15	stop	0.0	Go_O	1.0
235.094	1.0	go	0.374	Go_O	1.0
237.627	1.0	go	0.46	Go_X	1.0
240.16	1.0	go	0.231	Go_O	1.0
242.694	1.0	go	0.325	Go_O	1.0
245.227	0.2	stop	0.252	Go_X	0.0
247.76	1.0	go	0.353	Go_X	1.0
250.293	0.15	stop	0.281	Go_O	0.0
252.827	1.0	go	0.389	Go_X	1.0
255.36	1.0	go	0.327	Go_O	1.0
257.893	1.0	go	0.39	Go_O	1.0
260.426	1.0	go	0.561	Go_X	1.0
262.96	1.0	go	0.398	Go_X	1.0
265.493	1.0	go	0.329	Go_O	1.0
268.026	1.0	go	0.379	Go_O	1.0
270.559	1.0	go	0.305	Go_X	1.0
273.093	1.0	go	0.342	Go_X	1.0
275.642	0.1	stop	0.0	Go_X	1.0
278.176	1.0	go	0.341	Go_O	1.0
280.709	1.0	go	0.391	Go_X	1.0
283.242	1.0	go	0.217	Go_O	1.0
285.775	0.15	stop	0.0	Go_O	1.0
288.309	1.0	go	0.297	Go_O	1.0
290.842	1.0	go	0.281	Go_X	1.0
293.375	1.0	go	0.322	Go_O	1.0
295.908	1.0	go	0.353	Go_X	1.0
298.442	1.0	go	0.465	Go_X	1.0
300.975	1.0	go	0.253	Go_O	1.0
303.508	0.2	stop	0.35	Go_X	0.0
306.041	1.0	go	0.375	Go_O	1.0
308.575	1.0	go	0.309	Go_X	1.0
311.108	0.15	stop	0.0	Go_O	1.0
313.641	1.0	go	0.294	Go_X	1.0
316.174	1.0	go	0.247	Go_O	1.0
318.708	0.2	stop	0.387	Go_X	0.0
321.241	1.0	go	0.291	Go_O	1.0
323.774	0.15	stop	0.0	Go_O	1.0
326.307	1.0	go	0.503	Go_X	1.0
328.841	1.0	go	0.253	Go_O	1.0
331.39	1.0	go	0.33	Go_X	1.0
333.924	1.0	go	0.422	Go_X	1.0
336.457	1.0	go	0.532	Go_O	1.0
338.99	0.2	stop	0.0	Go_X	1.0
341.523	0.25	stop	0.334	Go_O	0.0
344.057	1.0	go	0.378	Go_O	1.0
346.59	1.0	go	0.436	Go_X	1.0
349.123	0.2	stop	0.0	Go_X	1.0
351.656	1.0	go	0.412	Go_X	1.0
354.19	1.0	go	0.24	Go_O	1.0
356.723	1.0	go	0.374	Go_X	1.0
359.256	1.0	go	0.38	Go_O	1.0
361.789	1.0	go	0.219	Go_O	1.0
364.323	1.0	go	0.219	Go_X	1.0
366.856	0.25	stop	0.35	Go_O	0.0
369.389	1.0	go	0.359	Go_O	1.0
371.922	1.0	go	0.206	Go_X	1.0
374.456	1.0	go	0.545	Go_X	1.0
376.989	1.0	go	0.283	Go_O	1.0
379.522	1.0	go	0.373	Go_X	1.0
382.055	0.2	stop	0.0	Go_X	1.0
384.589	1.0	go	0.323	Go_O	1.0
387.138	1.0	go	0.251	Go_O	1.0
389.672	1.0	go	0.238	Go_X	1.0
392.205	1.0	go	0.0	Go_O	0.0
394.738	0.25	stop	0.283	Go_O	0.0
397.271	1.0	go	0.277	Go_X	1.0
399.805	1.0	go	0.322	Go_X	1.0
402.338	0.2	stop	0.389	Go_X	0.0
404.871	1.0	go	0.254	Go_O	1.0
407.404	0.15	stop	0.0	Go_O	1.0
409.938	1.0	go	0.0	Go_X	0.0
412.471	1.0	go	0.27	Go_O	1.0
415.004	1.0	go	0.329	Go_X	1.0
417.537	1.0	go	0.186	Go_O	1.0
420.071	1.0	go	0.184	Go_O	0.0
422.604	1.0	go	0.315	Go_X	1.0
425.137	1.0	go	0.214	Go_O	1.0
427.67	0.2	stop	0.452	Go_X	0.0
430.204	1.0	go	0.406	Go_X	1.0
432.737	1.0	go	0.354	Go_O	1.0
435.27	1.0	go	0.308	Go_X	1.0
437.803	0.15	stop	0.0	Go_O	1.0
440.337	1.0	go	0.261	Go_X	1.0
442.87	1.0	go	0.343	Go_O	1.0
445.403	1.0	go	0.264	Go_O	1.0
447.936	1.0	go	0.294	Go_X	1.0
450.47	0.2	stop	0.0	Go_X	1.0
453.019	1.0	go	0.267	Go_O	1.0
455.553	1.0	go	0.405	Go_X	1.0
458.086	0.25	stop	0.248	Go_O	0.0
460.619	1.0	go	0.403	Go_X	1.0
463.152	1.0	go	0.267	Go_O	1.0
465.686	0.2	stop	0.28	Go_X	0.0
468.219	1.0	go	0.438	Go_X	1.0
470.752	1.0	go	0.408	Go_O	1.0
473.285	0.15	stop	0.0	Go_O	1.0
475.819	1.0	go	0.453	Go_O	1.0
478.352	1.0	go	0.286	Go_X	1.0
480.885	1.0	go	0.303	Go_O	1.0
483.418	1.0	go	0.25	Go_X	1.0
485.952	1.0	go	0.332	Go_O	1.0
488.485	1.0	go	0.336	Go_X	1.0
491.018	0.2	stop	0.0	Go_X	1.0
493.551	1.0	go	0.275	Go_O	1.0
496.085	0.25	stop	0.448	Go_O	0.0
498.618	1.0	go	0.361	Go_X	1.0
501.151	1.0	go	0.314	Go_O	1.0
503.684	1.0	go	0.195	Go_X	1.0
506.218	1.0	go	0.345	Go_X	1.0
508.767	1.0	go	0.399	Go_O	1.0
511.301	0.2	stop	0.345	Go_X	0.0
513.834	1.0	go	0.359	Go_O	1.0
516.367	1.0	go	0.374	Go_X	1.0
518.9	1.0	go	0.259	Go_X	1.0
521.434	0.15	stop	0.268	Go_O	0.0
523.967	0.1	stop	0.0	Go_X	1.0
526.5	0.15	stop	0.0	Go_O	1.0
529.033	1.0	go	0.41	Go_O	1.0
531.567	0.2	stop	0.0	Go_X	1.0
534.1	1.0	go	0.337	Go_O	1.0
536.633	1.0	go	0.434	Go_X	0.0
539.166	1.0	go	0.281	Go_O	1.0
541.7	1.0	go	0.455	Go_X	1.0
544.233	1.0	go	0.245	Go_O	1.0
546.766	1.0	go	0.452	Go_X	1.0
549.299	1.0	go	0.288	Go_O	1.0
551.833	1.0	go	0.281	Go_X	1.0
554.366	0.25	stop	0.285	Go_O	0.0
556.899	1.0	go	0.283	Go_X	1.0
559.432	1.0	go	0.444	Go_O	1.0
561.966	0.2	stop	0.0	Go_X	1.0
564.499	1.0	go	0.561	Go_X	1.0
567.032	1.0	go	0.29	Go_O	1.0
569.565	1.0	go	0.379	Go_X	1.0
572.099	1.0	go	0.331	Go_O	1.0
574.648	1.0	go	0.377	Go_O	1.0
577.182	0.25	stop	0.34	Go_O	0.0
579.715	1.0	go	0.314	Go_X	1.0
582.248	1.0	go	0.41	Go_X	1.0
584.781	1.0	go	0.301	Go_O	1.0
587.315	0.2	stop	0.0	Go_X	1.0
589.848	1.0	go	0.0	Go_X	0.0
592.381	0.25	stop	0.352	Go_O	0.0
594.914	1.0	go	0.394	Go_O	1.0
597.448	1.0	go	0.378	Go_X	1.0
599.981	1.0	go	0.213	Go_O	1.0
602.514	1.0	go	0.316	Go_O	1.0
605.047	1.0	go	0.264	Go_X	1.0
607.581	1.0	go	0.479	Go_X	1.0
610.114	1.0	go	0.467	Go_O	1.0
612.647	0.2	stop	0.286	Go_X	0.0
615.18	1.0	go	0.211	Go_O	1.0
617.714	1.0	go	0.31	Go_X	0.0
620.247	1.0	go	0.266	Go_X	1.0
622.78	1.0	go	0.328	Go_O	1.0
625.313	0.15	stop	0.285	Go_O	0.0
627.847	1.0	go	0.35	Go_O	1.0
630.396	0.1	stop	0.0	Go_X	1.0
632.93	1.0	go	0.434	Go_X	1.0
635.463	1.0	go	0.416	Go_X	1.0
637.996	0.15	stop	0.0	Go_O	1.0
640.529	1.0	go	0.308	Go_O	1.0
643.063	1.0	go	0.455	Go_X	1.0
645.596	1.0	go	0.222	Go_O	1.0
648.129	1.0	go	0.347	Go_O	1.0
650.662	1.0	go	0.299	Go_X	1.0
653.196	1.0	go	0.379	Go_O	1.0
655.729	1.0	go	0.291	Go_X	1.0
658.262	1.0	go	0.254	Go_O	1.0
660.795	1.0	go	0.33	Go_X	1.0
663.329	1.0	go	0.243	Go_O	1.0
665.862	0.2	stop	0.211	Go_X	0.0
668.395	1.0	go	0.345	Go_X	1.0
670.928	1.0	go	0.403	Go_O	1.0
673.462	0.15	stop	0.0	Go_O	1.0
675.995	1.0	go	0.466	Go_X	1.0
678.528	0.2	stop	0.351	Go_X	0.0
681.061	1.0	go	0.483	Go_O	1.0
683.595	1.0	go	0.354	Go_X	1.0
686.144	0.15	stop	0.0	Go_O	1.0
688.678	1.0	go	0.408	Go_X	1.0
691.211	0.2	stop	0.464	Go_X	0.0
693.744	1.0	go	0.509	Go_O	0.0
696.277	1.0	go	0.6	Go_O	1.0
698.811	1.0	go	0.342	Go_X	1.0
701.344	0.15	stop	0.0	Go_O	1.0
703.877	1.0	go	0.408	Go_O	1.0
706.41	1.0	go	0.303	Go_X	1.0
708.944	1.0	go	0.395	Go_X	1.0
711.477	1.0	go	0.329	Go_O	1.0
714.01	0.2	stop	0.288	Go_X	0.0
716.543	1.0	go	0.303	Go_O	1.0
719.077	1.0	go	0.239	Go_X	1.0
721.61	0.15	stop	0.0	Go_O	1.0
724.143	1.0	go	0.372	Go_X	1.0
726.676	1.0	go	0.331	Go_O	1.0
729.21	1.0	go	0.372	Go_O	1.0
731.743	1.0	go	0.241	Go_X	1.0
734.276	0.2	stop	0.0	Go_X	1.0
736.809	1.0	go	0.394	Go_X	1.0
739.343	0.25	stop	0.255	Go_O	0.0
741.876	1.0	go	0.381	Go_O	1.0
744.409	1.0	go	0.433	Go_O	1.0
746.942	0.2	stop	0.0	Go_X	1.0
749.476	1.0	go	0.435	Go_X	1.0
752.025	1.0	go	0.337	Go_O	1.0
754.559	1.0	go	0.531	Go_X	1.0
757.092	1.0	go	0.355	Go_O	1.0
759.625	0.25	stop	0.0	Go_O	1.0
762.158	1.0	go	0.395	Go_X	1.0
764.692	0.3	stop	0.365	Go_X	0.0
767.225	1.0	go	0.524	Go_X	1.0
769.758	1.0	go	0.309	Go_O	1.0
772.291	1.0	go	0.421	Go_X	1.0
774.825	1.0	go	0.479	Go_O	1.0
777.358	1.0	go	0.297	Go_O	1.0
779.891	1.0	go	0.347	Go_X	1.0
782.424	0.25	stop	0.296	Go_O	0.0
784.958	1.0	go	0.439	Go_X	1.0
787.491	1.0	go	0.522	Go_O	1.0
790.024	0.2	stop	0.0	Go_X	1.0
792.557	1.0	go	0.333	Go_X	0.0
795.091	1.0	go	0.319	Go_O	1.0
797.624	0.25	stop	0.0	Go_O	1.0
800.157	1.0	go	0.401	Go_X	1.0
802.69	1.0	go	0.348	Go_O	1.0
805.224	1.0	go	0.353	Go_O	1.0
807.757	1.0	go	0.408	Go_X	1.0
810.29	0.3	stop	0.0	Go_X	1.0
812.823	1.0	go	0.408	Go_X	1.0
815.357	0.35	stop	0.416	Go_O	0.0
817.906	1.0	go	0.43	Go_O	1.0
820.44	1.0	go	0.504	Go_X	1.0
822.973	1.0	go	0.318	Go_O	1.0
825.506	1.0	go	0.44	Go_X	0.0
828.039	1.0	go	0.421	Go_O	1.0
830.573	0.3	stop	0.291	Go_X	0.0
833.106	1.0	go	0.426	Go_X	1.0
835.639	1.0	go	0.34	Go_O	1.0
838.172	0.25	stop	0.0	Go_O	1.0
840.706	0.3	stop	0.52	Go_X	0.0
843.239	1.0	go	0.255	Go_O	1.0
845.772	1.0	go	0.367	Go_X	1.0
848.305	1.0	go	0.438	Go_X	1.0
850.839	1.0	go	0.277	Go_O	1.0
853.372	0.25	stop	0.364	Go_O	0.0
855.905	1.0	go	0.409	Go_O	1.0
