onset	duration	trial_type	response_time	stim_file	accuracy
75.856	1.0	go	0.54	Go_X	0.0
78.38	1.0	go	0.522	Go_O	1.0
80.905	1.0	go	0.391	Go_X	1.0
83.429	1.0	go	0.377	Go_O	1.0
85.953	1.0	go	0.469	Go_O	1.0
88.477	1.0	go	0.47	Go_X	1.0
91.001	0.25	stop	0.349	Go_O	0.0
93.526	1.0	go	0.384	Go_X	1.0
96.05	0.2	stop	0.0	Go_X	1.0
98.574	1.0	go	0.374	Go_O	1.0
101.098	1.0	go	0.408	Go_O	1.0
103.622	1.0	go	0.389	Go_X	1.0
106.147	0.25	stop	0.0	Go_O	1.0
108.671	1.0	go	0.321	Go_X	1.0
111.195	1.0	go	0.428	Go_O	1.0
113.719	0.3	stop	0.398	Go_X	0.0
116.244	0.25	stop	0.0	Go_O	1.0
118.768	1.0	go	0.392	Go_O	1.0
121.292	1.0	go	0.45	Go_X	1.0
123.816	0.3	stop	0.0	Go_X	1.0
126.34	1.0	go	0.366	Go_X	1.0
128.865	1.0	go	0.408	Go_O	1.0
131.389	0.35	stop	0.427	Go_O	0.0
133.913	1.0	go	0.428	Go_X	1.0
136.437	1.0	go	0.354	Go_O	1.0
138.961	0.3	stop	0.0	Go_X	1.0
141.486	1.0	go	0.395	Go_O	1.0
144.01	1.0	go	0.375	Go_X	1.0
146.534	0.35	stop	0.0	Go_O	1.0
149.058	1.0	go	0.363	Go_X	1.0
151.583	1.0	go	0.484	Go_O	1.0
154.107	1.0	go	0.438	Go_X	1.0
156.631	1.0	go	0.506	Go_O	1.0
159.155	1.0	go	0.467	Go_X	1.0
161.679	0.4	stop	0.514	Go_X	0.0
164.204	1.0	go	0.317	Go_O	1.0
166.728	1.0	go	0.453	Go_O	1.0
169.252	1.0	go	0.44	Go_X	1.0
171.776	1.0	go	0.235	Go_O	1.0
174.3	1.0	go	0.264	Go_X	1.0
176.825	0.35	stop	0.445	Go_O	0.0
179.349	1.0	go	0.342	Go_X	1.0
181.873	1.0	go	0.355	Go_O	1.0
184.397	1.0	go	0.459	Go_O	1.0
186.922	1.0	go	0.511	Go_X	1.0
189.446	1.0	go	0.366	Go_O	1.0
191.97	1.0	go	0.586	Go_X	1.0
194.494	0.3	stop	0.0	Go_X	1.0
197.018	1.0	go	0.449	Go_X	1.0
199.543	1.0	go	0.538	Go_O	1.0
202.067	0.35	stop	0.424	Go_O	0.0
204.591	1.0	go	0.36	Go_X	1.0
207.115	0.3	stop	0.401	Go_X	0.0
209.639	0.25	stop	0.0	Go_O	1.0
212.164	1.0	go	0.35	Go_O	1.0
214.688	1.0	go	0.501	Go_O	1.0
217.212	1.0	go	0.451	Go_X	1.0
219.736	1.0	go	0.47	Go_O	1.0
222.261	0.3	stop	0.458	Go_X	0.0
224.785	1.0	go	0.46	Go_X	1.0
227.309	0.25	stop	0.0	Go_O	1.0
229.833	1.0	go	0.395	Go_O	1.0
232.357	1.0	go	0.678	Go_X	1.0
234.882	1.0	go	0.425	Go_O	1.0
237.406	1.0	go	0.464	Go_X	1.0
239.93	1.0	go	0.701	Go_X	1.0
242.454	1.0	go	0.471	Go_O	1.0
244.978	1.0	go	0.516	Go_X	1.0
247.503	1.0	go	0.33	Go_O	1.0
250.027	1.0	go	0.444	Go_X	1.0
252.551	0.3	stop	0.0	Go_X	1.0
255.075	1.0	go	0.277	Go_O	1.0
257.6	1.0	go	0.453	Go_O	1.0
260.124	1.0	go	0.359	Go_X	1.0
262.648	0.35	stop	0.406	Go_O	0.0
265.172	1.0	go	0.335	Go_X	1.0
267.696	1.0	go	0.379	Go_O	1.0
270.221	1.0	go	0.432	Go_O	1.0
272.745	1.0	go	0.576	Go_X	1.0
275.269	1.0	go	0.465	Go_X	1.0
277.793	1.0	go	0.453	Go_O	1.0
280.317	0.3	stop	0.0	Go_X	1.0
282.842	1.0	go	0.319	Go_O	1.0
285.366	1.0	go	0.412	Go_X	1.0
287.89	0.35	stop	0.379	Go_O	0.0
290.414	1.0	go	0.356	Go_X	1.0
292.939	1.0	go	0.437	Go_O	1.0
295.463	0.3	stop	0.344	Go_X	0.0
297.987	1.0	go	0.349	Go_O	1.0
300.511	0.25	stop	0.0	Go_O	1.0
303.035	1.0	go	0.396	Go_X	1.0
305.56	1.0	go	0.458	Go_O	1.0
308.084	1.0	go	0.436	Go_X	1.0
310.608	1.0	go	0.484	Go_O	1.0
313.132	1.0	go	0.379	Go_X	1.0
315.656	0.3	stop	0.0	Go_X	1.0
318.181	0.35	stop	0.375	Go_O	0.0
320.705	1.0	go	0.372	Go_X	1.0
323.229	1.0	go	0.376	Go_O	1.0
325.753	0.3	stop	0.272	Go_X	0.0
328.278	1.0	go	0.477	Go_X	1.0
330.802	1.0	go	0.438	Go_O	1.0
333.326	1.0	go	0.442	Go_X	1.0
335.85	1.0	go	0.455	Go_O	1.0
338.374	1.0	go	0.469	Go_X	1.0
340.899	1.0	go	0.552	Go_O	1.0
343.423	0.25	stop	0.704	Go_O	0.0
345.947	1.0	go	0.447	Go_X	1.0
348.471	1.0	go	0.562	Go_O	1.0
350.995	1.0	go	0.555	Go_O	1.0
353.52	1.0	go	0.469	Go_X	1.0
356.044	1.0	go	0.434	Go_O	1.0
358.568	0.2	stop	0.0	Go_X	1.0
361.092	1.0	go	0.368	Go_X	1.0
363.617	1.0	go	0.389	Go_X	1.0
366.141	1.0	go	0.376	Go_O	1.0
368.665	1.0	go	0.328	Go_X	1.0
371.189	0.25	stop	0.0	Go_O	1.0
373.713	1.0	go	0.406	Go_O	1.0
376.238	1.0	go	0.398	Go_O	1.0
378.762	0.3	stop	0.377	Go_X	0.0
381.286	1.0	go	0.529	Go_X	1.0
383.81	0.25	stop	0.4	Go_O	0.0
386.334	1.0	go	0.416	Go_O	1.0
388.859	1.0	go	0.461	Go_X	1.0
391.383	1.0	go	0.419	Go_X	1.0
393.907	1.0	go	0.474	Go_O	1.0
396.431	1.0	go	0.564	Go_O	1.0
398.956	1.0	go	0.58	Go_X	1.0
401.48	1.0	go	0.463	Go_X	1.0
404.004	0.2	stop	0.0	Go_X	1.0
406.528	1.0	go	0.386	Go_O	1.0
409.052	1.0	go	0.522	Go_O	1.0
411.577	1.0	go	0.623	Go_X	1.0
414.101	0.25	stop	0.0	Go_O	1.0
416.625	1.0	go	0.375	Go_X	1.0
419.149	1.0	go	0.417	Go_O	1.0
421.673	1.0	go	0.438	Go_X	1.0
424.198	1.0	go	0.436	Go_O	1.0
426.722	0.3	stop	0.0	Go_X	1.0
429.246	1.0	go	0.453	Go_X	1.0
431.77	1.0	go	0.322	Go_O	1.0
434.295	0.35	stop	0.0	Go_O	1.0
436.819	1.0	go	0.402	Go_X	1.0
439.343	1.0	go	0.827	Go_O	1.0
441.867	0.4	stop	0.426	Go_X	0.0
444.391	1.0	go	0.567	Go_O	1.0
446.916	1.0	go	0.493	Go_X	1.0
449.44	0.35	stop	0.0	Go_O	1.0
451.964	1.0	go	0.49	Go_O	1.0
454.488	1.0	go	0.443	Go_X	1.0
457.012	1.0	go	0.373	Go_O	1.0
459.537	1.0	go	0.442	Go_X	1.0
462.061	1.0	go	0.684	Go_O	1.0
464.585	1.0	go	0.387	Go_X	1.0
467.109	0.4	stop	0.0	Go_X	1.0
469.633	1.0	go	0.388	Go_X	1.0
472.158	0.45	stop	0.5	Go_O	0.0
474.682	1.0	go	0.489	Go_O	1.0
477.206	1.0	go	0.498	Go_X	1.0
479.73	1.0	go	0.766	Go_O	1.0
482.255	1.0	go	0.453	Go_O	1.0
484.779	1.0	go	0.42	Go_X	1.0
487.303	0.4	stop	0.485	Go_X	0.0
489.827	1.0	go	0.368	Go_O	1.0
492.351	1.0	go	0.49	Go_X	1.0
494.876	1.0	go	0.545	Go_O	1.0
497.4	0.35	stop	0.415	Go_O	0.0
499.924	0.3	stop	0.504	Go_X	0.0
502.448	0.25	stop	0.0	Go_O	1.0
504.972	1.0	go	0.434	Go_X	1.0
507.497	0.3	stop	0.0	Go_X	1.0
510.021	1.0	go	0.478	Go_X	1.0
512.545	1.0	go	0.391	Go_O	1.0
515.069	1.0	go	0.411	Go_O	1.0
517.594	1.0	go	0.484	Go_X	1.0
520.118	1.0	go	0.479	Go_X	1.0
522.642	1.0	go	0.424	Go_O	1.0
525.166	1.0	go	0.478	Go_X	1.0
527.69	1.0	go	0.564	Go_O	1.0
530.215	0.35	stop	0.0	Go_O	1.0
532.739	1.0	go	0.401	Go_X	1.0
535.263	1.0	go	0.48	Go_O	1.0
537.787	0.4	stop	0.0	Go_X	1.0
540.311	1.0	go	0.508	Go_X	1.0
542.836	1.0	go	0.453	Go_O	1.0
545.36	1.0	go	0.46	Go_O	1.0
547.884	1.0	go	0.432	Go_X	1.0
550.408	1.0	go	0.369	Go_X	1.0
552.933	0.45	stop	0.401	Go_O	0.0
555.457	1.0	go	0.438	Go_O	1.0
557.981	1.0	go	0.559	Go_O	1.0
560.505	1.0	go	0.371	Go_X	1.0
563.029	0.4	stop	0.363	Go_X	0.0
565.554	1.0	go	0.513	Go_O	1.0
568.078	0.35	stop	0.545	Go_O	0.0
570.602	1.0	go	0.5	Go_X	1.0
573.126	1.0	go	0.467	Go_X	1.0
575.65	1.0	go	0.463	Go_O	1.0
578.175	1.0	go	0.496	Go_O	1.0
580.699	1.0	go	0.483	Go_X	1.0
583.223	1.0	go	0.375	Go_O	1.0
585.747	1.0	go	0.448	Go_X	1.0
588.272	0.3	stop	0.0	Go_X	1.0
590.796	1.0	go	0.512	Go_X	1.0
593.32	1.0	go	0.548	Go_O	1.0
595.844	1.0	go	0.435	Go_O	1.0
598.368	1.0	go	0.601	Go_X	1.0
600.893	0.35	stop	0.0	Go_O	1.0
603.417	1.0	go	0.364	Go_X	1.0
605.941	0.4	stop	0.443	Go_X	0.0
608.465	1.0	go	0.419	Go_O	1.0
610.989	1.0	go	0.498	Go_O	1.0
613.514	0.35	stop	0.0	Go_O	1.0
616.038	1.0	go	0.347	Go_X	1.0
618.562	1.0	go	0.461	Go_O	1.0
621.086	1.0	go	0.447	Go_X	1.0
623.611	1.0	go	0.629	Go_O	1.0
626.135	1.0	go	0.538	Go_X	1.0
628.659	1.0	go	0.564	Go_O	1.0
631.183	1.0	go	0.462	Go_X	1.0
633.707	1.0	go	0.417	Go_X	1.0
636.232	1.0	go	0.4	Go_O	1.0
638.756	1.0	go	0.451	Go_X	1.0
641.28	0.4	stop	0.441	Go_X	0.0
643.804	1.0	go	0.561	Go_O	1.0
646.328	1.0	go	0.277	Go_X	1.0
648.853	0.35	stop	0.45	Go_O	0.0
651.377	1.0	go	0.42	Go_O	1.0
653.901	0.3	stop	0.0	Go_X	1.0
656.425	1.0	go	0.488	Go_O	1.0
658.95	1.0	go	0.403	Go_X	1.0
661.474	0.35	stop	0.0	Go_O	1.0
663.998	1.0	go	0.403	Go_X	1.0
666.522	0.4	stop	0.0	Go_X	1.0
669.046	1.0	go	0.482	Go_O	1.0
671.571	1.0	go	0.673	Go_O	1.0
674.095	1.0	go	0.553	Go_X	1.0
676.619	0.45	stop	0.0	Go_O	1.0
679.143	1.0	go	0.579	Go_O	1.0
681.667	1.0	go	0.48	Go_X	1.0
684.192	1.0	go	0.482	Go_X	1.0
686.716	1.0	go	0.589	Go_O	1.0
689.24	0.5	stop	0.459	Go_X	0.0
691.764	1.0	go	0.44	Go_O	1.0
694.289	1.0	go	0.483	Go_X	1.0
696.813	0.45	stop	0.515	Go_O	0.0
699.337	1.0	go	0.565	Go_O	1.0
701.861	1.0	go	0.661	Go_X	1.0
704.385	1.0	go	0.647	Go_O	1.0
706.91	1.0	go	0.529	Go_X	1.0
709.434	0.4	stop	0.526	Go_X	0.0
711.958	1.0	go	0.329	Go_O	1.0
714.482	0.35	stop	0.378	Go_O	0.0
717.006	1.0	go	0.402	Go_X	1.0
719.531	1.0	go	0.592	Go_O	1.0
722.055	0.3	stop	0.0	Go_X	1.0
724.579	1.0	go	0.404	Go_X	1.0
727.103	1.0	go	0.376	Go_X	1.0
729.628	1.0	go	0.548	Go_O	1.0
732.152	1.0	go	0.508	Go_X	1.0
734.676	0.35	stop	0.0	Go_O	1.0
737.2	1.0	go	0.398	Go_O	1.0
739.724	0.4	stop	0.415	Go_X	0.0
742.249	1.0	go	0.457	Go_X	1.0
744.773	1.0	go	0.517	Go_O	1.0
747.297	1.0	go	0.479	Go_O	1.0
749.821	1.0	go	0.462	Go_X	1.0
752.345	1.0	go	0.594	Go_O	1.0
754.87	1.0	go	0.325	Go_X	1.0
757.394	0.35	stop	0.427	Go_O	0.0
759.918	1.0	go	0.273	Go_X	1.0
762.442	1.0	go	0.394	Go_O	1.0
764.967	0.3	stop	0.428	Go_X	0.0
767.491	1.0	go	0.381	Go_O	1.0
770.015	1.0	go	0.508	Go_X	1.0
772.539	0.25	stop	0.0	Go_O	1.0
775.063	1.0	go	0.379	Go_O	1.0
777.588	1.0	go	0.481	Go_X	1.0
780.112	1.0	go	0.464	Go_O	1.0
782.636	1.0	go	0.47	Go_X	1.0
785.16	0.3	stop	0.0	Go_X	1.0
787.684	1.0	go	0.473	Go_O	1.0
790.209	0.35	stop	0.39	Go_O	0.0
792.733	1.0	go	0.31	Go_X	1.0
795.257	1.0	go	0.553	Go_O	1.0
797.781	1.0	go	0.454	Go_X	1.0
800.306	1.0	go	0.382	Go_X	1.0
802.83	1.0	go	0.492	Go_O	1.0
805.354	0.3	stop	0.496	Go_X	0.0
807.878	1.0	go	0.484	Go_O	1.0
810.402	1.0	go	0.607	Go_X	1.0
812.927	0.25	stop	0.0	Go_O	1.0
815.451	0.3	stop	0.3	Go_X	0.0
817.975	1.0	go	0.359	Go_X	1.0
820.499	1.0	go	0.384	Go_O	1.0
823.023	1.0	go	0.436	Go_O	1.0
825.548	1.0	go	0.529	Go_X	1.0
828.072	0.25	stop	0.0	Go_O	1.0
830.596	1.0	go	0.25	Go_X	1.0
