onset	duration	trial_type	response_time	stim_file	accuracy
66.955	1.0	go	0.666	Go_X	1.0
69.488	1.0	go	0.573	Go_O	1.0
72.021	1.0	go	0.45	Go_X	1.0
74.555	1.0	go	0.357	Go_O	1.0
77.088	1.0	go	0.457	Go_O	1.0
79.621	1.0	go	0.337	Go_X	1.0
82.154	0.25	stop	0.323	Go_O	0.0
84.688	1.0	go	0.426	Go_O	1.0
87.221	0.2	stop	0.319	Go_X	0.0
89.754	1.0	go	0.477	Go_X	1.0
92.287	1.0	go	0.557	Go_O	1.0
94.821	1.0	go	0.36	Go_X	1.0
97.354	0.15	stop	0.603	Go_O	0.0
99.887	1.0	go	0.587	Go_O	1.0
102.42	1.0	go	0.336	Go_X	1.0
104.954	0.1	stop	0.0	Go_X	1.0
107.487	0.15	stop	0.0	Go_O	1.0
110.02	1.0	go	0.744	Go_X	1.0
112.554	1.0	go	0.406	Go_O	1.0
115.103	0.2	stop	0.0	Go_X	1.0
117.637	1.0	go	0.493	Go_O	1.0
120.17	1.0	go	0.402	Go_X	1.0
122.703	0.25	stop	0.0	Go_O	1.0
125.237	1.0	go	0.449	Go_X	1.0
127.786	1.0	go	0.443	Go_O	1.0
130.32	0.3	stop	0.0	Go_X	1.0
132.853	1.0	go	0.557	Go_X	1.0
135.386	1.0	go	0.56	Go_O	1.0
137.92	0.35	stop	0.0	Go_O	1.0
140.469	1.0	go	0.547	Go_X	1.0
143.003	1.0	go	0.491	Go_O	1.0
145.536	1.0	go	0.445	Go_O	1.0
148.069	1.0	go	0.482	Go_X	1.0
150.602	1.0	go	0.455	Go_X	1.0
153.136	0.4	stop	0.496	Go_X	0.0
155.669	1.0	go	0.449	Go_O	1.0
158.202	1.0	go	0.427	Go_O	1.0
160.736	1.0	go	0.451	Go_X	1.0
163.285	1.0	go	0.381	Go_O	1.0
165.819	1.0	go	0.632	Go_X	1.0
168.352	0.35	stop	0.0	Go_O	1.0
170.885	1.0	go	0.536	Go_O	1.0
173.419	1.0	go	0.687	Go_X	0.0
175.968	1.0	go	0.559	Go_X	1.0
178.502	1.0	go	0.397	Go_O	1.0
181.035	1.0	go	0.41	Go_O	1.0
183.568	1.0	go	0.33	Go_X	1.0
186.102	0.4	stop	0.378	Go_X	0.0
188.651	1.0	go	0.46	Go_O	1.0
191.185	1.0	go	0.433	Go_X	1.0
193.718	0.35	stop	0.417	Go_O	0.0
196.251	1.0	go	0.339	Go_O	0.0
198.785	0.3	stop	0.311	Go_X	0.0
201.334	0.25	stop	0.0	Go_O	1.0
203.868	1.0	go	0.51	Go_X	1.0
206.401	1.0	go	0.45	Go_X	1.0
208.934	1.0	go	0.392	Go_O	1.0
211.467	1.0	go	0.314	Go_O	1.0
214.001	0.3	stop	0.396	Go_X	0.0
216.534	1.0	go	0.376	Go_X	1.0
219.067	0.25	stop	0.0	Go_O	1.0
221.601	1.0	go	0.621	Go_X	1.0
224.15	1.0	go	0.618	Go_O	1.0
226.684	1.0	go	0.641	Go_X	0.0
229.217	1.0	go	0.499	Go_O	1.0
231.75	1.0	go	0.566	Go_O	1.0
234.284	1.0	go	0.317	Go_X	1.0
236.833	1.0	go	0.383	Go_O	1.0
239.367	1.0	go	0.344	Go_X	1.0
241.9	1.0	go	0.383	Go_X	1.0
244.433	0.3	stop	0.0	Go_X	1.0
246.967	1.0	go	0.452	Go_O	1.0
249.516	1.0	go	0.473	Go_O	1.0
252.05	1.0	go	0.435	Go_X	1.0
254.583	0.35	stop	0.376	Go_O	0.0
257.116	1.0	go	0.449	Go_X	1.0
259.649	1.0	go	0.454	Go_O	1.0
262.183	1.0	go	0.548	Go_O	1.0
264.716	1.0	go	0.396	Go_X	1.0
267.249	1.0	go	0.424	Go_O	1.0
269.783	1.0	go	0.272	Go_X	1.0
272.316	0.3	stop	0.432	Go_X	0.0
274.849	1.0	go	0.537	Go_O	1.0
277.382	1.0	go	0.457	Go_X	1.0
279.916	0.25	stop	0.0	Go_O	1.0
282.449	1.0	go	0.512	Go_O	1.0
284.982	1.0	go	0.321	Go_X	1.0
287.515	0.3	stop	0.497	Go_X	0.0
290.049	1.0	go	0.491	Go_X	1.0
292.582	0.25	stop	0.0	Go_O	1.0
295.115	1.0	go	0.908	Go_O	1.0
297.648	1.0	go	0.61	Go_O	1.0
300.182	1.0	go	0.334	Go_X	1.0
302.715	1.0	go	0.543	Go_X	1.0
305.248	1.0	go	0.527	Go_O	1.0
307.781	0.3	stop	0.461	Go_X	0.0
310.315	0.25	stop	0.0	Go_O	1.0
312.848	1.0	go	0.483	Go_X	1.0
315.381	1.0	go	0.651	Go_O	1.0
317.915	0.3	stop	0.0	Go_X	1.0
320.448	1.0	go	0.615	Go_O	1.0
322.981	1.0	go	0.462	Go_X	1.0
325.514	1.0	go	0.364	Go_X	1.0
328.048	1.0	go	0.462	Go_O	1.0
330.581	1.0	go	0.504	Go_X	0.0
333.114	1.0	go	0.561	Go_O	1.0
335.647	0.35	stop	0.415	Go_O	0.0
338.181	1.0	go	0.437	Go_O	1.0
340.714	1.0	go	0.284	Go_X	1.0
343.247	1.0	go	0.352	Go_X	1.0
345.78	1.0	go	0.343	Go_O	1.0
348.314	1.0	go	0.783	Go_O	1.0
350.847	0.3	stop	0.0	Go_X	1.0
353.38	1.0	go	0.541	Go_X	1.0
355.914	1.0	go	0.556	Go_O	1.0
358.463	1.0	go	0.636	Go_X	1.0
360.997	1.0	go	0.521	Go_X	1.0
363.53	0.35	stop	0.0	Go_O	1.0
366.063	1.0	go	0.397	Go_O	1.0
368.596	1.0	go	0.545	Go_X	1.0
371.13	0.4	stop	0.0	Go_X	1.0
373.663	1.0	go	0.646	Go_O	1.0
376.196	0.45	stop	0.472	Go_O	0.0
378.73	1.0	go	0.42	Go_X	1.0
381.279	1.0	go	0.0	Go_O	0.0
383.813	1.0	go	0.366	Go_X	1.0
386.346	1.0	go	0.488	Go_O	1.0
388.879	1.0	go	0.619	Go_X	1.0
391.413	1.0	go	0.436	Go_O	1.0
393.962	1.0	go	0.581	Go_O	1.0
396.496	0.4	stop	0.45	Go_X	0.0
399.029	1.0	go	0.291	Go_X	1.0
401.562	1.0	go	0.517	Go_O	1.0
404.096	1.0	go	0.75	Go_X	1.0
406.645	0.35	stop	0.461	Go_O	0.0
409.179	1.0	go	0.447	Go_O	1.0
411.712	1.0	go	0.431	Go_X	0.0
414.245	1.0	go	0.492	Go_X	1.0
416.778	1.0	go	0.653	Go_O	1.0
419.312	0.3	stop	0.467	Go_X	0.0
421.845	1.0	go	0.734	Go_O	1.0
424.378	1.0	go	0.426	Go_X	1.0
426.912	0.25	stop	0.0	Go_O	1.0
429.461	1.0	go	0.658	Go_X	1.0
431.995	1.0	go	0.52	Go_O	1.0
434.528	0.3	stop	0.545	Go_X	0.0
437.061	1.0	go	0.718	Go_O	1.0
439.595	1.0	go	0.625	Go_X	1.0
442.144	0.25	stop	0.362	Go_O	0.0
444.678	1.0	go	0.408	Go_X	1.0
447.211	1.0	go	0.892	Go_O	1.0
449.744	1.0	go	0.447	Go_X	1.0
452.278	1.0	go	0.37	Go_O	1.0
454.827	1.0	go	0.51	Go_X	1.0
457.361	1.0	go	0.611	Go_O	1.0
459.894	0.2	stop	0.416	Go_X	0.0
462.427	1.0	go	0.586	Go_X	1.0
464.96	0.15	stop	0.0	Go_O	1.0
467.494	1.0	go	0.598	Go_O	1.0
470.027	1.0	go	0.0	Go_O	0.0
472.56	1.0	go	0.349	Go_X	1.0
475.094	1.0	go	0.848	Go_X	1.0
477.627	1.0	go	0.482	Go_O	1.0
480.16	0.2	stop	0.0	Go_X	1.0
482.693	1.0	go	0.683	Go_O	1.0
485.227	1.0	go	0.732	Go_X	1.0
487.76	1.0	go	0.661	Go_O	1.0
490.293	0.25	stop	0.0	Go_O	1.0
492.826	0.3	stop	0.328	Go_X	0.0
495.36	0.25	stop	0.423	Go_O	0.0
497.893	1.0	go	0.549	Go_X	1.0
500.426	0.2	stop	0.0	Go_X	1.0
502.959	1.0	go	0.491	Go_X	1.0
505.493	1.0	go	0.397	Go_O	1.0
508.026	1.0	go	0.55	Go_O	1.0
510.559	1.0	go	0.508	Go_X	1.0
513.092	1.0	go	0.481	Go_O	1.0
515.626	1.0	go	0.326	Go_X	1.0
518.159	1.0	go	0.383	Go_X	1.0
520.692	1.0	go	0.41	Go_O	1.0
523.226	0.25	stop	0.0	Go_O	1.0
525.759	1.0	go	0.508	Go_O	1.0
528.292	1.0	go	0.918	Go_X	1.0
530.825	0.3	stop	0.0	Go_X	1.0
533.359	1.0	go	0.502	Go_O	1.0
535.892	1.0	go	0.347	Go_X	1.0
538.425	1.0	go	0.662	Go_O	1.0
540.958	1.0	go	0.422	Go_X	1.0
543.492	1.0	go	0.439	Go_X	1.0
546.025	0.35	stop	0.483	Go_O	0.0
548.558	1.0	go	0.615	Go_O	1.0
551.091	1.0	go	0.0	Go_O	0.0
553.625	1.0	go	0.37	Go_X	1.0
556.158	0.3	stop	0.484	Go_X	0.0
558.691	1.0	go	0.589	Go_O	1.0
561.225	0.25	stop	0.0	Go_O	1.0
563.774	1.0	go	0.477	Go_X	1.0
566.308	1.0	go	0.577	Go_O	1.0
568.841	1.0	go	0.639	Go_X	1.0
571.374	1.0	go	0.49	Go_O	1.0
573.907	1.0	go	0.771	Go_X	1.0
576.441	1.0	go	0.653	Go_O	1.0
578.974	1.0	go	0.418	Go_X	1.0
581.507	0.3	stop	0.459	Go_X	0.0
584.041	1.0	go	0.538	Go_O	0.0
586.59	1.0	go	0.428	Go_X	1.0
589.124	1.0	go	0.366	Go_O	1.0
591.657	1.0	go	0.566	Go_X	1.0
594.19	0.25	stop	0.0	Go_O	1.0
596.724	1.0	go	0.0	Go_O	0.0
599.273	0.3	stop	0.312	Go_X	0.0
601.807	1.0	go	0.363	Go_X	1.0
604.34	1.0	go	0.463	Go_O	0.0
606.873	0.25	stop	0.403	Go_O	0.0
609.423	1.0	go	0.339	Go_X	1.0
611.956	1.0	go	0.408	Go_X	1.0
614.49	1.0	go	0.481	Go_O	1.0
617.023	1.0	go	0.474	Go_X	1.0
619.556	1.0	go	0.362	Go_O	1.0
622.089	1.0	go	0.425	Go_X	1.0
624.623	1.0	go	0.396	Go_O	1.0
627.156	1.0	go	0.975	Go_O	0.0
629.689	1.0	go	0.342	Go_X	1.0
632.223	1.0	go	0.402	Go_X	1.0
634.756	0.2	stop	0.535	Go_X	0.0
637.289	1.0	go	0.441	Go_O	1.0
639.822	1.0	go	0.313	Go_X	1.0
642.356	0.15	stop	0.0	Go_O	1.0
644.889	1.0	go	0.376	Go_O	1.0
647.422	0.2	stop	0.304	Go_X	0.0
649.955	1.0	go	0.42	Go_O	0.0
652.489	1.0	go	0.361	Go_X	1.0
655.022	0.15	stop	0.359	Go_O	0.0
657.555	1.0	go	0.542	Go_X	1.0
660.088	0.1	stop	0.0	Go_X	1.0
662.622	1.0	go	0.462	Go_O	0.0
665.155	1.0	go	0.435	Go_X	1.0
667.688	1.0	go	0.567	Go_O	1.0
670.222	0.15	stop	0.0	Go_O	1.0
672.771	1.0	go	0.521	Go_O	1.0
675.305	1.0	go	0.543	Go_X	1.0
677.838	1.0	go	0.563	Go_X	1.0
680.371	1.0	go	0.478	Go_O	1.0
682.904	0.2	stop	0.404	Go_X	0.0
685.438	1.0	go	0.707	Go_O	1.0
687.971	1.0	go	0.443	Go_X	1.0
690.504	0.15	stop	0.0	Go_O	1.0
693.038	1.0	go	0.37	Go_O	1.0
695.587	1.0	go	0.511	Go_X	1.0
698.121	1.0	go	0.48	Go_O	1.0
700.654	1.0	go	0.455	Go_X	1.0
703.187	0.2	stop	0.0	Go_X	1.0
705.721	1.0	go	0.0	Go_O	0.0
708.27	0.25	stop	0.0	Go_O	1.0
710.804	1.0	go	0.376	Go_X	1.0
713.337	1.0	go	0.59	Go_O	1.0
715.87	0.3	stop	0.375	Go_X	0.0
718.404	1.0	go	0.352	Go_X	1.0
720.953	1.0	go	0.343	Go_O	1.0
723.487	1.0	go	0.38	Go_X	1.0
726.02	1.0	go	0.441	Go_O	1.0
728.553	0.25	stop	0.0	Go_O	1.0
731.086	1.0	go	0.506	Go_X	1.0
733.62	0.3	stop	0.413	Go_X	0.0
736.153	1.0	go	0.606	Go_X	1.0
738.686	1.0	go	0.403	Go_O	1.0
741.22	1.0	go	0.383	Go_X	1.0
743.753	1.0	go	0.414	Go_O	1.0
746.286	1.0	go	0.616	Go_X	1.0
748.819	1.0	go	0.96	Go_O	1.0
751.353	0.25	stop	0.0	Go_O	1.0
753.886	1.0	go	0.715	Go_O	1.0
756.419	1.0	go	0.382	Go_X	1.0
758.952	0.3	stop	0.594	Go_X	0.0
761.486	1.0	go	0.54	Go_X	1.0
764.019	1.0	go	0.52	Go_O	1.0
766.552	0.25	stop	0.0	Go_O	1.0
769.085	1.0	go	0.448	Go_X	1.0
771.619	1.0	go	0.498	Go_O	1.0
774.152	1.0	go	0.654	Go_O	1.0
776.685	1.0	go	0.0	Go_X	0.0
779.218	0.3	stop	0.405	Go_X	0.0
781.752	1.0	go	0.392	Go_O	1.0
784.285	0.25	stop	0.353	Go_O	0.0
786.818	1.0	go	0.4	Go_X	0.0
789.352	1.0	go	0.468	Go_O	1.0
791.885	1.0	go	0.407	Go_X	1.0
794.418	1.0	go	0.536	Go_O	1.0
796.951	1.0	go	0.273	Go_X	1.0
799.485	0.2	stop	0.0	Go_X	1.0
802.018	1.0	go	0.442	Go_X	1.0
804.551	1.0	go	0.32	Go_O	1.0
807.084	0.25	stop	0.0	Go_O	1.0
809.618	0.3	stop	0.0	Go_X	1.0
812.151	1.0	go	0.941	Go_O	0.0
814.684	1.0	go	0.354	Go_X	1.0
817.217	1.0	go	0.254	Go_O	1.0
819.751	1.0	go	0.54	Go_X	1.0
822.284	0.35	stop	0.471	Go_O	0.0
824.817	1.0	go	0.423	Go_O	1.0
