frame	onset	duration	trial_type	event_type	response_type	response_time	stim_file	accuracy
0	59.007		win-noreward	ImageDisplay1		0.0		
0	60.98	0.75	win-noreward	StartDisplay				
0	61.732		win-noreward	ImageDisplay2		0.0		
0	64.992	1.6	win-noreward	ChoiceDisplay		0.0		
0	66.58	0.0	win-noreward	ChosenDisplay		0.0		
0	66.647	0.25	win-noreward	TurnDisplay				
0	66.831	0.75	win-noreward	OutcomeDisplay				
1	67.583		loss-reward	ImageDisplay1		0.0		
1	69.589	0.75	loss-reward	StartDisplay				
1	70.341		loss-reward	ImageDisplay2		0.0		
1	73.584	1.6	loss-reward	ChoiceDisplay	1	0.701	1	1
1	74.303	0.899	loss-reward	ChosenDisplay		0.0		
1	75.189	0.25	loss-reward	TurnDisplay				
1	75.44	0.75	loss-reward	OutcomeDisplay				
2	76.192		win-reward	ImageDisplay1		0.0		
2	78.181	0.75	win-reward	StartDisplay				
2	78.933		win-reward	ImageDisplay2		0.0		
2	82.193	1.6	win-reward	ChoiceDisplay	1	0.714	1	1
2	82.929	0.886	win-reward	ChosenDisplay		0.0		
2	83.798	0.25	win-reward	TurnDisplay				
2	84.049	0.75	win-reward	OutcomeDisplay				
3	84.801		win-reward	ImageDisplay1		0.0		
3	86.79	0.75	win-reward	StartDisplay				
3	87.542		win-reward	ImageDisplay2		0.0		
3	90.802	1.6	win-reward	ChoiceDisplay	1	0.616	1	1
3	91.437	0.984	win-reward	ChosenDisplay		0.0		
3	92.407	0.25	win-reward	TurnDisplay				
3	92.658	0.75	win-reward	OutcomeDisplay				
4	93.41		win-noreward	ImageDisplay1		0.0		
4	95.399	0.75	win-noreward	StartDisplay				
4	96.151		win-noreward	ImageDisplay2		0.0		
4	99.411	1.6	win-noreward	ChoiceDisplay	1	0.903	1	1
4	100.33	0.697	win-noreward	ChosenDisplay		0.0		
4	101.016	0.25	win-noreward	TurnDisplay				
4	101.267	0.75	win-noreward	OutcomeDisplay				
5	102.019		control-reward	ImageDisplay1		0.0		
5	104.008	0.75	control-reward	StartDisplay				
5	104.76		control-reward	ImageDisplay2		0.0		
5	108.02	1.6	control-reward	ChoiceDisplay	1	0.621	1	1
5	108.655	0.979	control-reward	ChosenDisplay		0.0		
5	109.625	0.25	control-reward	TurnDisplay				
5	109.876	0.75	control-reward	OutcomeDisplay				
6	110.628		control-reward	ImageDisplay1		0.0		
6	112.617	0.75	control-reward	StartDisplay				
6	113.369		control-reward	ImageDisplay2		0.0		
6	116.629	1.6	control-reward	ChoiceDisplay	1	1.342	1	1
6	117.983	0.258	control-reward	ChosenDisplay		0.0		
6	118.234	0.25	control-reward	TurnDisplay				
6	118.484	0.75	control-reward	OutcomeDisplay				
7	119.237		control-noreward	ImageDisplay1		0.0		
7	121.226	0.75	control-noreward	StartDisplay				
7	121.978		control-noreward	ImageDisplay2		0.0		
7	125.238	1.6	control-noreward	ChoiceDisplay	1	1.073	1	1
7	126.325	0.527	control-noreward	ChosenDisplay		0.0		
7	126.843	0.25	control-noreward	TurnDisplay				
7	127.093	0.75	control-noreward	OutcomeDisplay				
8	127.846		loss-reward	ImageDisplay1		0.0		
8	130.086	0.75	loss-reward	StartDisplay				
8	130.838		loss-reward	ImageDisplay2		0.0		
8	133.847	1.6	loss-reward	ChoiceDisplay	1	0.894	1	1
8	134.766	0.706	loss-reward	ChosenDisplay		0.0		
8	135.452	0.25	loss-reward	TurnDisplay				
8	135.702	0.75	loss-reward	OutcomeDisplay				
9	136.455		loss-noreward	ImageDisplay1		0.0		
9	138.444	0.75	loss-noreward	StartDisplay				
9	139.196		loss-noreward	ImageDisplay2		0.0		
9	142.456	1.6	loss-noreward	ChoiceDisplay	1	0.915	1	1
9	143.392	0.685	loss-noreward	ChosenDisplay		0.0		
9	144.061	0.25	loss-noreward	TurnDisplay				
9	144.311	0.75	loss-noreward	OutcomeDisplay				
10	145.064		loss-noreward	ImageDisplay1		0.0		
10	147.304	0.75	loss-noreward	StartDisplay				
10	148.056		loss-noreward	ImageDisplay2		0.0		
10	151.065	1.6	loss-noreward	ChoiceDisplay	1	0.607	1	1
10	151.683	0.993	loss-noreward	ChosenDisplay		0.0		
10	152.67	0.25	loss-noreward	TurnDisplay				
10	152.92	0.75	loss-noreward	OutcomeDisplay				
11	153.673		win-reward	ImageDisplay1		0.0		
11	155.913	0.75	win-reward	StartDisplay				
11	156.665		win-reward	ImageDisplay2		0.0		
11	159.674	1.6	win-reward	ChoiceDisplay	1	1.134	1	1
11	160.827	0.466	win-reward	ChosenDisplay		0.0		
11	161.279	0.25	win-reward	TurnDisplay				
11	161.529	0.75	win-reward	OutcomeDisplay				
12	162.282		loss-reward	ImageDisplay1		0.0		
12	164.271	0.75	loss-reward	StartDisplay				
12	165.023		loss-reward	ImageDisplay2		0.0		
12	168.283	1.6	loss-reward	ChoiceDisplay	1	0.828	1	1
12	169.135	0.772	loss-reward	ChosenDisplay		0.0		
12	169.888	0.25	loss-reward	TurnDisplay				
12	170.138	0.75	loss-reward	OutcomeDisplay				
13	170.891		control-noreward	ImageDisplay1		0.0		
13	173.131	0.75	control-noreward	StartDisplay				
13	173.883		control-noreward	ImageDisplay2		0.0		
13	176.892	1.6	control-noreward	ChoiceDisplay	1	0.885	1	1
13	177.794	0.715	control-noreward	ChosenDisplay		0.0		
13	178.497	0.25	control-noreward	TurnDisplay				
13	178.747	0.75	control-noreward	OutcomeDisplay				
14	179.5		win-reward	ImageDisplay1		0.0		
14	181.74	0.75	win-reward	StartDisplay				
14	182.492		win-reward	ImageDisplay2		0.0		
14	185.501	1.6	win-reward	ChoiceDisplay	1	0.931	1	1
14	186.454	0.669	win-reward	ChosenDisplay		0.0		
14	187.105	0.25	win-reward	TurnDisplay				
14	187.356	0.75	win-reward	OutcomeDisplay				
15	188.108		control-noreward	ImageDisplay1		0.0		
15	190.348	0.75	control-noreward	StartDisplay				
15	191.101		control-noreward	ImageDisplay2		0.0		
15	194.11	1.6	control-noreward	ChoiceDisplay	1	0.858	1	1
15	194.996	0.742	control-noreward	ChosenDisplay		0.0		
15	195.714	0.25	control-noreward	TurnDisplay				
15	195.965	0.75	control-noreward	OutcomeDisplay				
16	196.717		control-noreward	ImageDisplay1		0.0		
16	198.957	0.75	control-noreward	StartDisplay				
16	199.71		control-noreward	ImageDisplay2		0.0		
16	202.719	1.6	control-noreward	ChoiceDisplay	1	0.919	1	1
16	203.655	0.681	control-noreward	ChosenDisplay		0.0		
16	204.323	0.25	control-noreward	TurnDisplay				
16	204.574	0.75	control-noreward	OutcomeDisplay				
17	205.326		win-reward	ImageDisplay1		0.0		
17	207.316	0.75	win-reward	StartDisplay				
17	208.068		win-reward	ImageDisplay2		0.0		
17	211.328	1.6	win-reward	ChoiceDisplay	1	0.921	1	1
17	212.264	0.679	win-reward	ChosenDisplay		0.0		
17	212.932	0.25	win-reward	TurnDisplay				
17	213.183	0.75	win-reward	OutcomeDisplay				
18	213.935		win-noreward	ImageDisplay1		0.0		
18	216.175	0.75	win-noreward	StartDisplay				
18	216.928		win-noreward	ImageDisplay2		0.0		
18	219.937	1.6	win-noreward	ChoiceDisplay	1	1.15	1	1
18	221.107	0.45	win-noreward	ChosenDisplay		0.0		
18	221.541	0.25	win-noreward	TurnDisplay				
18	221.792	0.75	win-noreward	OutcomeDisplay				
19	222.544		loss-reward	ImageDisplay1		0.0		
19	224.784	0.75	loss-reward	StartDisplay				
19	225.537		loss-reward	ImageDisplay2		0.0		
19	228.546	1.6	loss-reward	ChoiceDisplay	1	0.978	1	1
19	229.549	0.622	loss-reward	ChosenDisplay		0.0		
19	230.15	0.25	loss-reward	TurnDisplay				
19	230.401	0.75	loss-reward	OutcomeDisplay				
20	231.153		control-noreward	ImageDisplay1		0.0		
20	233.143	0.75	control-noreward	StartDisplay				
20	233.895		control-noreward	ImageDisplay2		0.0		
20	237.155	1.6	control-noreward	ChoiceDisplay	1	0.997	1	1
20	238.174	0.603	control-noreward	ChosenDisplay		0.0		
20	238.759	0.25	control-noreward	TurnDisplay				
20	239.01	0.75	control-noreward	OutcomeDisplay				
21	239.762		win-reward	ImageDisplay1		0.0		
21	242.002	0.75	win-reward	StartDisplay				
21	242.755		win-reward	ImageDisplay2		0.0		
21	245.763	1.6	win-reward	ChoiceDisplay	1	0.969	1	1
21	246.75	0.631	win-reward	ChosenDisplay		0.0		
21	247.368	0.25	win-reward	TurnDisplay				
21	247.619	0.75	win-reward	OutcomeDisplay				
22	248.371		control-noreward	ImageDisplay1		0.0		
22	250.611	0.75	control-noreward	StartDisplay				
22	251.363		control-noreward	ImageDisplay2		0.0		
22	254.372	1.6	control-noreward	ChoiceDisplay	1	0.835	1	1
22	255.225	0.765	control-noreward	ChosenDisplay		0.0		
22	255.977	0.25	control-noreward	TurnDisplay				
22	256.228	0.75	control-noreward	OutcomeDisplay				
23	256.98		loss-reward	ImageDisplay1		0.0		
23	259.22	0.75	loss-reward	StartDisplay				
23	259.972		loss-reward	ImageDisplay2		0.0		
23	262.981	1.6	loss-reward	ChoiceDisplay	1	0.811	1	1
23	263.817	0.789	loss-reward	ChosenDisplay		0.0		
23	264.586	0.25	loss-reward	TurnDisplay				
23	264.837	0.75	loss-reward	OutcomeDisplay				
24	265.589		loss-noreward	ImageDisplay1		0.0		
24	267.829	0.75	loss-noreward	StartDisplay				
24	268.581		loss-noreward	ImageDisplay2		0.0		
24	271.59	1.6	loss-noreward	ChoiceDisplay	1	0.6	1	1
24	272.209	1.0	loss-noreward	ChosenDisplay		0.0		
24	273.195	0.25	loss-noreward	TurnDisplay				
24	273.446	0.75	loss-noreward	OutcomeDisplay				
25	274.198		win-reward	ImageDisplay1		0.0		
25	276.187	0.75	win-reward	StartDisplay				
25	276.94		win-reward	ImageDisplay2		0.0		
25	280.199	1.6	win-reward	ChoiceDisplay	1	1.189	1	1
25	281.403	0.411	win-reward	ChosenDisplay		0.0		
25	281.804	0.25	win-reward	TurnDisplay				
25	282.055	0.75	win-reward	OutcomeDisplay				
26	282.807		control-reward	ImageDisplay1		0.0		
26	285.047	0.75	control-reward	StartDisplay				
26	285.799		control-reward	ImageDisplay2		0.0		
26	288.808	1.6	control-reward	ChoiceDisplay	1	1.025	1	1
26	289.845	0.575	control-reward	ChosenDisplay		0.0		
26	290.413	0.25	control-reward	TurnDisplay				
26	290.664	0.75	control-reward	OutcomeDisplay				
27	291.416		control-reward	ImageDisplay1		0.0		
27	293.405	0.75	control-reward	StartDisplay				
27	294.158		control-reward	ImageDisplay2		0.0		
27	297.417	1.6	control-reward	ChoiceDisplay	1	0.965	1	1
27	298.404	0.635	control-reward	ChosenDisplay		0.0		
27	299.022	0.25	control-reward	TurnDisplay				
27	299.273	0.75	control-reward	OutcomeDisplay				
28	300.025		win-noreward	ImageDisplay1		0.0		
28	302.265	0.75	win-noreward	StartDisplay				
28	303.017		win-noreward	ImageDisplay2		0.0		
28	306.026	1.6	win-noreward	ChoiceDisplay	1	0.635	1	1
28	306.678	0.965	win-noreward	ChosenDisplay		0.0		
28	307.631	0.25	win-noreward	TurnDisplay				
28	307.882	0.75	win-noreward	OutcomeDisplay				
29	308.634		control-noreward	ImageDisplay1		0.0		
29	310.623	0.75	control-noreward	StartDisplay				
29	311.376		control-noreward	ImageDisplay2		0.0		
29	314.635	1.6	control-noreward	ChoiceDisplay	1	0.42	1	1
29	315.07	1.18	control-noreward	ChosenDisplay		0.0		
29	316.24	0.25	control-noreward	TurnDisplay				
29	316.491	0.75	control-noreward	OutcomeDisplay				
30	317.243		loss-noreward	ImageDisplay1		0.0		
30	319.483	0.75	loss-noreward	StartDisplay				
30	320.235		loss-noreward	ImageDisplay2		0.0		
30	323.244	1.6	loss-noreward	ChoiceDisplay	1	1.285	1	1
30	324.548	0.315	loss-noreward	ChosenDisplay		0.0		
30	324.849	0.25	loss-noreward	TurnDisplay				
30	325.1	0.75	loss-noreward	OutcomeDisplay				
31	325.852		control-reward	ImageDisplay1		0.0		
31	328.092	0.75	control-reward	StartDisplay				
31	328.844		control-reward	ImageDisplay2		0.0		
31	331.853	1.6	control-reward	ChoiceDisplay	1	0.531	1	1
31	332.405	1.069	control-reward	ChosenDisplay		0.0		
31	333.458	0.25	control-reward	TurnDisplay				
31	333.709	0.75	control-reward	OutcomeDisplay				
32	334.461		loss-noreward	ImageDisplay1		0.0		
32	336.45	0.75	loss-noreward	StartDisplay				
32	337.202		loss-noreward	ImageDisplay2		0.0		
32	340.462	1.6	loss-noreward	ChoiceDisplay	1	1.014	1	1
32	341.499	0.586	loss-noreward	ChosenDisplay		0.0		
32	342.067	0.25	loss-noreward	TurnDisplay				
32	342.318	0.75	loss-noreward	OutcomeDisplay				
33	343.07		loss-reward	ImageDisplay1		0.0		
33	345.31	0.75	loss-reward	StartDisplay				
33	346.062		loss-reward	ImageDisplay2		0.0		
33	349.071	1.6	loss-reward	ChoiceDisplay	1	0.985	1	1
33	350.074	0.615	loss-reward	ChosenDisplay		0.0		
33	350.676	0.25	loss-reward	TurnDisplay				
33	350.927	0.75	loss-reward	OutcomeDisplay				
34	351.679		win-reward	ImageDisplay1		0.0		
34	353.668	0.75	win-reward	StartDisplay				
34	354.42		win-reward	ImageDisplay2		0.0		
34	357.68	1.6	win-reward	ChoiceDisplay	1	0.925	1	1
34	358.616	0.675	win-reward	ChosenDisplay		0.0		
34	359.285	0.25	win-reward	TurnDisplay				
34	359.536	0.75	win-reward	OutcomeDisplay				
35	360.288		win-reward	ImageDisplay1		0.0		
35	362.277	0.75	win-reward	StartDisplay				
35	363.029		win-reward	ImageDisplay2		0.0		
35	366.289	1.6	win-reward	ChoiceDisplay	1	0.965	1	1
35	367.275	0.635	win-reward	ChosenDisplay		0.0		
35	367.894	0.25	win-reward	TurnDisplay				
35	368.145	0.75	win-reward	OutcomeDisplay				
36	368.897		loss-reward	ImageDisplay1		0.0		
36	370.886	0.75	loss-reward	StartDisplay				
36	371.638		loss-reward	ImageDisplay2		0.0		
36	374.898	1.6	loss-reward	ChoiceDisplay	1	0.925	1	1
36	375.851	0.675	loss-reward	ChosenDisplay		0.0		
36	376.503	0.25	loss-reward	TurnDisplay				
36	376.754	0.75	loss-reward	OutcomeDisplay				
37	377.506		control-reward	ImageDisplay1		0.0		
37	379.495	0.75	control-reward	StartDisplay				
37	380.247		control-reward	ImageDisplay2		0.0		
37	383.507	1.6	control-reward	ChoiceDisplay	1	0.687	1	1
37	384.209	0.913	control-reward	ChosenDisplay		0.0		
37	385.112	0.25	control-reward	TurnDisplay				
37	385.362	0.75	control-reward	OutcomeDisplay				
38	386.115		win-noreward	ImageDisplay1		0.0		
38	388.104	0.75	win-noreward	StartDisplay				
38	388.856		win-noreward	ImageDisplay2		0.0		
38	392.116	1.6	win-noreward	ChoiceDisplay	1	1.087	1	1
38	393.219	0.513	win-noreward	ChosenDisplay		0.0		
38	393.721	0.25	win-noreward	TurnDisplay				
38	393.971	0.75	win-noreward	OutcomeDisplay				
39	394.724		win-reward	ImageDisplay1		0.0		
39	396.964	0.75	win-reward	StartDisplay				
39	397.716		win-reward	ImageDisplay2		0.0		
39	400.725	1.6	win-reward	ChoiceDisplay	1	1.085	1	1
39	401.828	0.515	win-reward	ChosenDisplay		0.0		
39	402.33	0.25	win-reward	TurnDisplay				
39	402.58	0.75	win-reward	OutcomeDisplay				
40	403.333		control-reward	ImageDisplay1		0.0		
40	405.573	0.75	control-reward	StartDisplay				
40	406.325		control-reward	ImageDisplay2		0.0		
40	409.334	1.6	control-reward	ChoiceDisplay	1	1.043	1	1
40	410.404	0.557	control-reward	ChosenDisplay		0.0		
40	410.939	0.25	control-reward	TurnDisplay				
40	411.189	0.75	control-reward	OutcomeDisplay				
41	411.942		loss-reward	ImageDisplay1		0.0		
41	414.182	0.75	loss-reward	StartDisplay				
41	414.934		loss-reward	ImageDisplay2		0.0		
41	417.943	1.6	loss-reward	ChoiceDisplay	1	1.118	1	1
41	419.08	0.482	loss-reward	ChosenDisplay		0.0		
41	419.548	0.25	loss-reward	TurnDisplay				
41	419.798	0.75	loss-reward	OutcomeDisplay				
42	420.551		win-noreward	ImageDisplay1		0.0		
42	422.791	0.75	win-noreward	StartDisplay				
42	423.543		win-noreward	ImageDisplay2		0.0		
42	426.552	1.6	win-noreward	ChoiceDisplay	1	1.021	1	1
42	427.588	0.579	win-noreward	ChosenDisplay		0.0		
42	428.157	0.25	win-noreward	TurnDisplay				
42	428.407	0.75	win-noreward	OutcomeDisplay				
43	429.16		win-reward	ImageDisplay1		0.0		
43	431.4	0.75	win-reward	StartDisplay				
43	432.152		win-reward	ImageDisplay2		0.0		
43	435.161	1.6	win-reward	ChoiceDisplay	1	0.959	1	1
43	436.147	0.641	win-reward	ChosenDisplay		0.0		
43	436.766	0.25	win-reward	TurnDisplay				
43	437.016	0.75	win-reward	OutcomeDisplay				
44	437.769		loss-reward	ImageDisplay1		0.0		
44	439.758	0.75	loss-reward	StartDisplay				
44	440.51		loss-reward	ImageDisplay2		0.0		
44	443.77	1.6	loss-reward	ChoiceDisplay	1	1.081	1	1
44	444.873	0.519	loss-reward	ChosenDisplay		0.0		
44	445.374	0.25	loss-reward	TurnDisplay				
44	445.625	0.75	loss-reward	OutcomeDisplay				
45	446.377		win-noreward	ImageDisplay1		0.0		
45	448.617	0.75	win-noreward	StartDisplay				
45	449.37		win-noreward	ImageDisplay2		0.0		
45	452.379	1.6	win-noreward	ChoiceDisplay	1	1.024	1	1
45	453.415	0.576	win-noreward	ChosenDisplay		0.0		
45	453.983	0.25	win-noreward	TurnDisplay				
45	454.234	0.75	win-noreward	OutcomeDisplay				
46	454.986		loss-reward	ImageDisplay1		0.0		
46	457.226	0.75	loss-reward	StartDisplay				
46	457.979		loss-reward	ImageDisplay2		0.0		
46	460.988	1.6	loss-reward	ChoiceDisplay	1	0.937	1	1
46	461.94	0.663	loss-reward	ChosenDisplay		0.0		
46	462.592	0.25	loss-reward	TurnDisplay				
46	462.843	0.75	loss-reward	OutcomeDisplay				
47	463.595		win-reward	ImageDisplay1		0.0		
47	465.835	0.75	win-reward	StartDisplay				
47	466.588		win-reward	ImageDisplay2		0.0		
47	469.597	1.6	win-reward	ChoiceDisplay	1	1.099	1	1
47	470.717	0.501	win-reward	ChosenDisplay		0.0		
47	471.201	0.25	win-reward	TurnDisplay				
47	471.452	0.75	win-reward	OutcomeDisplay				
48	472.204		loss-reward	ImageDisplay1		0.0		
48	474.444	0.75	loss-reward	StartDisplay				
48	475.197		loss-reward	ImageDisplay2		0.0		
48	478.206	1.6	loss-reward	ChoiceDisplay	1	0.999	1	1
48	479.225	0.601	loss-reward	ChosenDisplay		0.0		
48	479.81	0.25	loss-reward	TurnDisplay				
48	480.061	0.75	loss-reward	OutcomeDisplay				
49	480.813		loss-noreward	ImageDisplay1		0.0		
49	483.053	0.75	loss-noreward	StartDisplay				
49	483.806		loss-noreward	ImageDisplay2		0.0		
49	486.815	1.6	loss-noreward	ChoiceDisplay	1	1.063	1	1
49	487.901	0.537	loss-noreward	ChosenDisplay		0.0		
49	488.419	0.25	loss-noreward	TurnDisplay				
49	488.67	0.75	loss-noreward	OutcomeDisplay				
50	489.422		win-reward	ImageDisplay1		0.0		
50	491.662	0.75	win-reward	StartDisplay				
50	492.415		win-reward	ImageDisplay2		0.0		
50	495.424	1.6	win-reward	ChoiceDisplay	1	1.079	1	1
50	496.527	0.521	win-reward	ChosenDisplay		0.0		
50	497.028	0.25	win-reward	TurnDisplay				
50	497.279	0.75	win-reward	OutcomeDisplay				
51	498.031		loss-noreward	ImageDisplay1		0.0		
51	500.021	0.75	loss-noreward	StartDisplay				
51	500.773		loss-noreward	ImageDisplay2		0.0		
51	504.032	1.6	loss-noreward	ChoiceDisplay	1	1.199	1	1
51	505.253	0.401	loss-noreward	ChosenDisplay		0.0		
51	505.637	0.25	loss-noreward	TurnDisplay				
51	505.888	0.75	loss-noreward	OutcomeDisplay				
52	506.64		control-reward	ImageDisplay1		0.0		
52	508.88	0.75	control-reward	StartDisplay				
52	509.632		control-reward	ImageDisplay2		0.0		
52	512.641	1.6	control-reward	ChoiceDisplay	1	0.475	1	1
52	513.143	1.125	control-reward	ChosenDisplay		0.0		
52	514.246	0.25	control-reward	TurnDisplay				
52	514.497	0.75	control-reward	OutcomeDisplay				
53	515.249		loss-reward	ImageDisplay1		0.0		
53	517.489	0.75	loss-reward	StartDisplay				
53	518.241		loss-reward	ImageDisplay2		0.0		
53	521.25	1.6	loss-reward	ChoiceDisplay	1	1.112	1	1
53	522.387	0.488	loss-reward	ChosenDisplay		0.0		
53	522.855	0.25	loss-reward	TurnDisplay				
53	523.106	0.75	loss-reward	OutcomeDisplay				
54	523.858		control-reward	ImageDisplay1		0.0		
54	526.098	0.75	control-reward	StartDisplay				
54	526.85		control-reward	ImageDisplay2		0.0		
54	529.859	1.6	control-reward	ChoiceDisplay	1	1.081	1	1
54	530.963	0.519	control-reward	ChosenDisplay		0.0		
54	531.464	0.25	control-reward	TurnDisplay				
54	531.715	0.75	control-reward	OutcomeDisplay				
55	532.467		control-reward	ImageDisplay1		0.0		
55	534.456	0.75	control-reward	StartDisplay				
55	535.209		control-reward	ImageDisplay2		0.0		
55	538.468	1.6	control-reward	ChoiceDisplay	1	0.596	1	1
55	539.087	1.004	control-reward	ChosenDisplay		0.0		
55	540.073	0.25	control-reward	TurnDisplay				
55	540.324	0.75	control-reward	OutcomeDisplay				
56	541.076		control-reward	ImageDisplay1		0.0		
56	543.316	0.75	control-reward	StartDisplay				
56	544.068		control-reward	ImageDisplay2		0.0		
56	547.077	1.6	control-reward	ChoiceDisplay	1	1.55	1	1
56	548.649	0.0	control-reward	ChosenDisplay		0.0		
56	548.682	0.25	control-reward	TurnDisplay				
56	548.883	0.75	control-reward	OutcomeDisplay				
57	549.635		win-noreward	ImageDisplay1		0.0		
57	551.875	0.75	win-noreward	StartDisplay				
57	552.627		win-noreward	ImageDisplay2		0.0		
57	555.636	1.6	win-noreward	ChoiceDisplay	1	1.072	1	1
57	556.723	0.528	win-noreward	ChosenDisplay		0.0		
57	557.241	0.25	win-noreward	TurnDisplay				
57	557.492	0.75	win-noreward	OutcomeDisplay				
58	558.244		control-noreward	ImageDisplay1		0.0		
58	560.233	0.75	control-noreward	StartDisplay				
58	560.985		control-noreward	ImageDisplay2		0.0		
58	564.245	1.6	control-noreward	ChoiceDisplay	1	1.271	1	1
58	565.532	0.329	control-noreward	ChosenDisplay		0.0		
58	565.85	0.25	control-noreward	TurnDisplay				
58	566.101	0.75	control-noreward	OutcomeDisplay				
59	566.853		win-noreward	ImageDisplay1		0.0		
59	569.093	0.75	win-noreward	StartDisplay				
59	569.845		win-noreward	ImageDisplay2		0.0		
59	572.854	1.6	win-noreward	ChoiceDisplay	1	1.087	1	1
59	573.957	0.513	win-noreward	ChosenDisplay		0.0		
59	574.459	0.25	win-noreward	TurnDisplay				
59	574.71	0.75	win-noreward	OutcomeDisplay				
60	575.462		win-noreward	ImageDisplay1		0.0		
60	577.451	0.75	win-noreward	StartDisplay				
60	578.203		win-noreward	ImageDisplay2		0.0		
60	581.463	1.6	win-noreward	ChoiceDisplay	1	0.915	1	1
60	582.399	0.685	win-noreward	ChosenDisplay		0.0		
60	583.068	0.25	win-noreward	TurnDisplay				
60	583.319	0.75	win-noreward	OutcomeDisplay				
61	584.071		win-reward	ImageDisplay1		0.0		
61	586.06	0.75	win-reward	StartDisplay				
61	586.812		win-reward	ImageDisplay2		0.0		
61	590.072	1.6	win-reward	ChoiceDisplay	1	0.832	1	1
61	590.925	0.768	win-reward	ChosenDisplay		0.0		
61	591.677	0.25	win-reward	TurnDisplay				
61	591.928	0.75	win-reward	OutcomeDisplay				
62	592.68		loss-reward	ImageDisplay1		0.0		
62	594.669	0.75	loss-reward	StartDisplay				
62	595.421		loss-reward	ImageDisplay2		0.0		
62	598.681	1.6	loss-reward	ChoiceDisplay	1	0.906	1	1
62	599.6	0.694	loss-reward	ChosenDisplay		0.0		
62	600.286	0.25	loss-reward	TurnDisplay				
62	600.536	0.75	loss-reward	OutcomeDisplay				
63	601.289		loss-noreward	ImageDisplay1		0.0		
63	603.529	0.75	loss-noreward	StartDisplay				
63	604.281		loss-noreward	ImageDisplay2		0.0		
63	607.29	1.6	loss-noreward	ChoiceDisplay	1	1.019	1	1
63	608.326	0.581	loss-noreward	ChosenDisplay		0.0		
63	608.895	0.25	loss-noreward	TurnDisplay				
63	609.145	0.75	loss-noreward	OutcomeDisplay				
64	609.898		control-reward	ImageDisplay1		0.0		
64	611.887	0.75	control-reward	StartDisplay				
64	612.639		control-reward	ImageDisplay2		0.0		
64	615.899	1.6	control-reward	ChoiceDisplay	1	1.004	1	1
64	616.919	0.596	control-reward	ChosenDisplay		0.0		
64	617.504	0.25	control-reward	TurnDisplay				
64	617.754	0.75	control-reward	OutcomeDisplay				
65	618.507		loss-noreward	ImageDisplay1		0.0		
65	620.496	0.75	loss-noreward	StartDisplay				
65	621.248		loss-noreward	ImageDisplay2		0.0		
65	624.508	1.6	loss-noreward	ChoiceDisplay	1	1.049	1	1
65	625.578	0.551	loss-noreward	ChosenDisplay		0.0		
65	626.113	0.25	loss-noreward	TurnDisplay				
65	626.363	0.75	loss-noreward	OutcomeDisplay				
66	627.116		win-noreward	ImageDisplay1		0.0		
66	629.356	0.75	win-noreward	StartDisplay				
66	630.108		win-noreward	ImageDisplay2		0.0		
66	633.117	1.6	win-noreward	ChoiceDisplay	1	1.159	1	1
66	634.304	0.441	win-noreward	ChosenDisplay		0.0		
66	634.722	0.25	win-noreward	TurnDisplay				
66	634.972	0.75	win-noreward	OutcomeDisplay				
67	635.725		control-noreward	ImageDisplay1		0.0		
67	637.714	0.75	control-noreward	StartDisplay				
67	638.466		control-noreward	ImageDisplay2		0.0		
67	641.726	1.6	control-noreward	ChoiceDisplay	1	0.838	1	1
67	642.578	0.762	control-noreward	ChosenDisplay		0.0		
67	643.331	0.25	control-noreward	TurnDisplay				
67	643.581	0.75	control-noreward	OutcomeDisplay				
68	644.334		win-noreward	ImageDisplay1		0.0		
68	646.323	0.75	win-noreward	StartDisplay				
68	647.075		win-noreward	ImageDisplay2		0.0		
68	650.335	1.6	win-noreward	ChoiceDisplay	1	1.167	1	1
68	651.522	0.433	win-noreward	ChosenDisplay		0.0		
68	651.94	0.25	win-noreward	TurnDisplay				
68	652.19	0.75	win-noreward	OutcomeDisplay				
69	652.943		loss-reward	ImageDisplay1		0.0		
69	654.932	0.75	loss-reward	StartDisplay				
69	655.684		loss-reward	ImageDisplay2		0.0		
69	658.944	1.6	loss-reward	ChoiceDisplay	1	1.123	1	1
69	660.08	0.477	loss-reward	ChosenDisplay		0.0		
69	660.549	0.25	loss-reward	TurnDisplay				
69	660.799	0.75	loss-reward	OutcomeDisplay				
70	661.552		control-reward	ImageDisplay1		0.0		
70	663.541	0.75	control-reward	StartDisplay				
70	664.293		control-reward	ImageDisplay2		0.0		
70	667.553	1.6	control-reward	ChoiceDisplay	1	1.403	1	1
70	668.974	0.197	control-reward	ChosenDisplay		0.0		
70	669.157	0.25	control-reward	TurnDisplay				
70	669.408	0.75	control-reward	OutcomeDisplay				
71	670.16		loss-noreward	ImageDisplay1		0.0		
71	672.15	0.75	loss-noreward	StartDisplay				
71	672.902		loss-noreward	ImageDisplay2		0.0		
71	676.162	1.6	loss-noreward	ChoiceDisplay	1	0.998	1	1
71	677.181	0.602	loss-noreward	ChosenDisplay		0.0		
71	677.766	0.25	loss-noreward	TurnDisplay				
71	678.017	0.75	loss-noreward	OutcomeDisplay				
72	678.769		win-reward	ImageDisplay1		0.0		
72	680.759	0.75	win-reward	StartDisplay				
72	681.511		win-reward	ImageDisplay2		0.0		
72	684.771	1.6	win-reward	ChoiceDisplay	1	1.221	1	1
72	686.008	0.379	win-reward	ChosenDisplay		0.0		
72	686.375	0.25	win-reward	TurnDisplay				
72	686.626	0.75	win-reward	OutcomeDisplay				
73	687.378		loss-noreward	ImageDisplay1		0.0		
73	689.368	0.75	loss-noreward	StartDisplay				
73	690.12		loss-noreward	ImageDisplay2		0.0		
73	693.38	1.6	loss-noreward	ChoiceDisplay	1	0.898	1	1
73	694.299	0.702	loss-noreward	ChosenDisplay		0.0		
73	694.984	0.25	loss-noreward	TurnDisplay				
73	695.235	0.75	loss-noreward	OutcomeDisplay				
74	695.987		loss-noreward	ImageDisplay1		0.0		
74	697.977	0.75	loss-noreward	StartDisplay				
74	698.729		loss-noreward	ImageDisplay2		0.0		
74	701.989	1.6	loss-noreward	ChoiceDisplay	1	0.793	1	1
74	702.808	0.807	loss-noreward	ChosenDisplay		0.0		
74	703.593	0.25	loss-noreward	TurnDisplay				
74	703.844	0.75	loss-noreward	OutcomeDisplay				
75	704.596		control-noreward	ImageDisplay1		0.0		
75	706.586	0.75	control-noreward	StartDisplay				
75	707.338		control-noreward	ImageDisplay2		0.0		
75	710.598	1.6	control-noreward	ChoiceDisplay	1	0.32	1	1
75	710.932	1.28	control-noreward	ChosenDisplay		0.0		
75	712.202	0.25	control-noreward	TurnDisplay				
75	712.453	0.75	control-noreward	OutcomeDisplay				
76	713.205		win-noreward	ImageDisplay1		0.0		
76	715.195	0.75	win-noreward	StartDisplay				
76	715.947		win-noreward	ImageDisplay2		0.0		
76	719.207	1.6	win-noreward	ChoiceDisplay	1	0.629	1	1
76	719.858	0.971	win-noreward	ChosenDisplay		0.0		
76	720.811	0.25	win-noreward	TurnDisplay				
76	721.062	0.75	win-noreward	OutcomeDisplay				
77	721.814		loss-reward	ImageDisplay1		0.0		
77	723.804	0.75	loss-reward	StartDisplay				
77	724.556		loss-reward	ImageDisplay2		0.0		
77	727.815	1.6	loss-reward	ChoiceDisplay	1	0.891	1	1
77	728.735	0.709	loss-reward	ChosenDisplay		0.0		
77	729.42	0.25	loss-reward	TurnDisplay				
77	729.671	0.75	loss-reward	OutcomeDisplay				
78	730.423		control-reward	ImageDisplay1		0.0		
78	732.663	0.75	control-reward	StartDisplay				
78	733.415		control-reward	ImageDisplay2		0.0		
78	736.424	1.6	control-reward	ChoiceDisplay	1	0.234	1	1
78	736.675	1.366	control-reward	ChosenDisplay		0.0		
78	738.029	0.25	control-reward	TurnDisplay				
78	738.28	0.75	control-reward	OutcomeDisplay				
79	739.032		loss-reward	ImageDisplay1		0.0		
79	741.021	0.75	loss-reward	StartDisplay				
79	741.774		loss-reward	ImageDisplay2		0.0		
79	745.033	1.6	loss-reward	ChoiceDisplay	1	0.903	1	1
79	745.953	0.697	loss-reward	ChosenDisplay		0.0		
79	746.638	0.25	loss-reward	TurnDisplay				
79	746.889	0.75	loss-reward	OutcomeDisplay				
80	747.641		control-noreward	ImageDisplay1		0.0		
80	749.881	0.75	control-noreward	StartDisplay				
80	750.633		control-noreward	ImageDisplay2		0.0		
80	753.642	1.6	control-noreward	ChoiceDisplay	1	0.542	1	1
80	754.211	1.058	control-noreward	ChosenDisplay		0.0		
80	755.247	0.25	control-noreward	TurnDisplay				
80	755.498	0.75	control-noreward	OutcomeDisplay				
81	756.25		control-noreward	ImageDisplay1		0.0		
81	758.239	0.75	control-noreward	StartDisplay				
81	758.992		control-noreward	ImageDisplay2		0.0		
81	762.251	1.6	control-noreward	ChoiceDisplay	1	0.899	1	1
81	763.171	0.701	control-noreward	ChosenDisplay		0.0		
81	763.856	0.25	control-noreward	TurnDisplay				
81	764.107	0.75	control-noreward	OutcomeDisplay				
82	764.859		loss-reward	ImageDisplay1		0.0		
82	767.099	0.75	loss-reward	StartDisplay				
82	767.851		loss-reward	ImageDisplay2		0.0		
82	770.86	1.6	loss-reward	ChoiceDisplay	1	0.88	1	1
82	771.763	0.72	loss-reward	ChosenDisplay		0.0		
82	772.465	0.25	loss-reward	TurnDisplay				
82	772.716	0.75	loss-reward	OutcomeDisplay				
83	773.468		control-noreward	ImageDisplay1		0.0		
83	775.457	0.75	control-noreward	StartDisplay				
83	776.21		control-noreward	ImageDisplay2		0.0		
83	779.469	1.6	control-noreward	ChoiceDisplay	1	0.274	1	1
83	779.77	1.326	control-noreward	ChosenDisplay		0.0		
83	781.074	0.25	control-noreward	TurnDisplay				
83	781.325	0.75	control-noreward	OutcomeDisplay				
84	782.077		control-noreward	ImageDisplay1		0.0		
84	784.317	0.75	control-noreward	StartDisplay				
84	785.069		control-noreward	ImageDisplay2		0.0		
84	788.078	1.6	control-noreward	ChoiceDisplay		0.0		
84	789.666	0.0	control-noreward	ChosenDisplay		0.0		
84	789.683	0.25	control-noreward	TurnDisplay				
84	789.917	0.75	control-noreward	OutcomeDisplay				
85	790.669		control-noreward	ImageDisplay1		0.0		
85	792.926	0.75	control-noreward	StartDisplay				
85	793.678		control-noreward	ImageDisplay2		0.0		
85	796.671	1.6	control-noreward	ChoiceDisplay	1	0.348	1	1
85	797.038	1.252	control-noreward	ChosenDisplay		0.0		
85	798.275	0.25	control-noreward	TurnDisplay				
85	798.526	0.75	control-noreward	OutcomeDisplay				
86	799.278		win-noreward	ImageDisplay1		0.0		
86	801.268	0.75	win-noreward	StartDisplay				
86	802.02		win-noreward	ImageDisplay2		0.0		
86	805.279	1.6	win-noreward	ChoiceDisplay	1	0.849	1	1
86	806.149	0.751	win-noreward	ChosenDisplay		0.0		
86	806.884	0.25	win-noreward	TurnDisplay				
86	807.135	0.75	win-noreward	OutcomeDisplay				
87	807.887		control-noreward	ImageDisplay1		0.0		
87	810.127	0.75	control-noreward	StartDisplay				
87	810.879		control-noreward	ImageDisplay2		0.0		
87	813.888	1.6	control-noreward	ChoiceDisplay	1	0.673	1	1
87	814.574	0.927	control-noreward	ChosenDisplay		0.0		
87	815.493	0.25	control-noreward	TurnDisplay				
87	815.744	0.75	control-noreward	OutcomeDisplay				
88	816.496		control-reward	ImageDisplay1		0.0		
88	818.736	0.75	control-reward	StartDisplay				
88	819.488		control-reward	ImageDisplay2		0.0		
88	822.497	1.6	control-reward	ChoiceDisplay	1	0.901	1	1
88	823.417	0.699	control-reward	ChosenDisplay		0.0		
88	824.102	0.25	control-reward	TurnDisplay				
88	824.353	0.75	control-reward	OutcomeDisplay				
89	825.105		win-reward	ImageDisplay1		0.0		
89	827.345	0.75	win-reward	StartDisplay				
89	828.097		win-reward	ImageDisplay2		0.0		
89	831.106	1.6	win-reward	ChoiceDisplay	1	0.963	1	1
89	832.093	0.637	win-reward	ChosenDisplay		0.0		
89	832.711	0.25	win-reward	TurnDisplay				
89	832.962	0.75	win-reward	OutcomeDisplay				
90	833.714		loss-reward	ImageDisplay1		0.0		
90	835.703	0.75	loss-reward	StartDisplay				
90	836.456		loss-reward	ImageDisplay2		0.0		
90	839.715	1.6	loss-reward	ChoiceDisplay	1	1.025	1	1
90	840.752	0.575	loss-reward	ChosenDisplay		0.0		
90	841.32	0.25	loss-reward	TurnDisplay				
90	841.571	0.75	loss-reward	OutcomeDisplay				
91	842.323		win-reward	ImageDisplay1		0.0		
91	844.312	0.75	win-reward	StartDisplay				
91	845.065		win-reward	ImageDisplay2		0.0		
91	848.324	1.6	win-reward	ChoiceDisplay	1	1.001	1	1
91	849.344	0.599	win-reward	ChosenDisplay		0.0		
91	849.929	0.25	win-reward	TurnDisplay				
91	850.18	0.75	win-reward	OutcomeDisplay				
92	850.932		loss-noreward	ImageDisplay1		0.0		
92	853.172	0.75	loss-noreward	StartDisplay				
92	853.924		loss-noreward	ImageDisplay2		0.0		
92	856.933	1.6	loss-noreward	ChoiceDisplay	1	1.039	1	1
92	857.986	0.561	loss-noreward	ChosenDisplay		0.0		
92	858.538	0.25	loss-noreward	TurnDisplay				
92	858.789	0.75	loss-noreward	OutcomeDisplay				
93	859.541		win-reward	ImageDisplay1		0.0		
93	861.781	0.75	win-reward	StartDisplay				
93	862.533		win-reward	ImageDisplay2		0.0		
93	865.542	1.6	win-reward	ChoiceDisplay	1	1.408	1	1
93	866.963	0.192	win-reward	ChosenDisplay		0.0		
93	867.147	0.25	win-reward	TurnDisplay				
93	867.398	0.75	win-reward	OutcomeDisplay				
94	868.15		control-reward	ImageDisplay1		0.0		
94	870.139	0.75	control-reward	StartDisplay				
94	870.891		control-reward	ImageDisplay2		0.0		
94	874.151	1.6	control-reward	ChoiceDisplay	1	0.68	1	1
94	874.853	0.92	control-reward	ChosenDisplay		0.0		
94	875.756	0.25	control-reward	TurnDisplay				
94	876.007	0.75	control-reward	OutcomeDisplay				
95	876.759		loss-noreward	ImageDisplay1		0.0		
95	878.999	0.75	loss-noreward	StartDisplay				
95	879.751		loss-noreward	ImageDisplay2		0.0		
95	882.76	1.6	loss-noreward	ChoiceDisplay	1	1.072	1	1
95	883.847	0.528	loss-noreward	ChosenDisplay		0.0		
95	884.365	0.25	loss-noreward	TurnDisplay				
95	884.616	0.75	loss-noreward	OutcomeDisplay				
