onset	duration	trial_type	response_time	stim_file	accuracy
52.707	1.0	go	0.968	Go_X	1.0
55.298	1.0	go	0.384	Go_O	1.0
57.822	1.0	go	0.295	Go_X	1.0
60.346	1.0	go	0.597	Go_O	1.0
62.871	1.0	go	0.771	Go_O	1.0
65.395	1.0	go	0.771	Go_X	1.0
67.919	0.25	stop	0.0	Go_O	1.0
71.279	1.0	go	0.524	Go_X	1.0
73.803	0.3	stop	0.0	Go_X	1.0
76.327	1.0	go	0.473	Go_O	1.0
78.852	1.0	go	0.516	Go_X	1.0
81.376	1.0	go	0.641	Go_O	1.0
83.9	0.35	stop	0.448	Go_O	0.0
86.424	1.0	go	0.654	Go_O	1.0
88.948	1.0	go	0.527	Go_X	1.0
91.472	0.3	stop	0.0	Go_X	1.0
93.997	0.35	stop	0.525	Go_O	0.0
96.521	1.0	go	0.581	Go_X	1.0
99.045	1.0	go	0.606	Go_O	1.0
101.569	0.3	stop	0.0	Go_X	1.0
104.093	1.0	go	0.42	Go_X	1.0
106.618	1.0	go	0.593	Go_O	1.0
109.142	0.35	stop	0.429	Go_O	0.0
111.666	1.0	go	0.375	Go_X	1.0
114.19	1.0	go	0.809	Go_O	1.0
116.714	0.3	stop	0.0	Go_X	1.0
119.255	1.0	go	0.474	Go_O	1.0
121.779	1.0	go	0.691	Go_X	1.0
124.304	0.35	stop	0.377	Go_O	0.0
126.828	1.0	go	0.588	Go_X	1.0
129.352	1.0	go	0.619	Go_O	1.0
131.876	1.0	go	0.605	Go_O	1.0
134.4	1.0	go	0.798	Go_X	1.0
136.924	1.0	go	0.503	Go_O	1.0
139.449	0.3	stop	0.419	Go_X	0.0
141.973	1.0	go	0.765	Go_X	1.0
144.497	1.0	go	0.506	Go_X	1.0
147.021	1.0	go	0.71	Go_O	1.0
149.545	1.0	go	0.415	Go_X	1.0
152.07	1.0	go	0.301	Go_O	1.0
154.594	0.25	stop	0.364	Go_O	0.0
157.118	1.0	go	0.473	Go_X	1.0
159.642	1.0	go	0.348	Go_O	1.0
162.166	1.0	go	0.404	Go_O	1.0
164.69	1.0	go	0.322	Go_X	1.0
167.215	1.0	go	0.343	Go_X	1.0
169.739	1.0	go	0.464	Go_O	1.0
172.263	0.2	stop	0.0	Go_X	1.0
174.787	1.0	go	0.471	Go_X	1.0
177.311	1.0	go	0.59	Go_O	1.0
179.836	0.25	stop	0.0	Go_O	1.0
182.36	1.0	go	0.444	Go_O	1.0
184.884	0.3	stop	0.394	Go_X	0.0
187.425	0.25	stop	0.0	Go_O	1.0
189.949	1.0	go	0.47	Go_X	1.0
192.473	1.0	go	0.362	Go_O	1.0
194.997	1.0	go	0.432	Go_X	1.0
197.522	1.0	go	0.368	Go_O	1.0
200.046	0.3	stop	0.344	Go_X	0.0
202.57	1.0	go	0.703	Go_X	1.0
205.094	0.25	stop	0.0	Go_O	1.0
207.618	1.0	go	0.606	Go_O	1.0
210.142	1.0	go	0.581	Go_X	1.0
212.667	1.0	go	0.53	Go_X	1.0
215.191	1.0	go	0.531	Go_O	1.0
217.715	1.0	go	0.375	Go_O	1.0
220.239	1.0	go	0.49	Go_X	1.0
222.763	1.0	go	0.633	Go_O	1.0
225.288	1.0	go	0.595	Go_X	1.0
227.812	1.0	go	0.675	Go_O	1.0
230.336	0.3	stop	0.517	Go_X	0.0
232.86	1.0	go	0.57	Go_X	1.0
235.384	1.0	go	0.53	Go_O	1.0
237.908	1.0	go	0.33	Go_X	0.0
240.433	0.25	stop	0.39	Go_O	0.0
242.957	1.0	go	0.506	Go_X	1.0
245.481	1.0	go	0.599	Go_O	1.0
248.005	1.0	go	0.435	Go_O	1.0
250.529	1.0	go	0.392	Go_X	1.0
253.054	1.0	go	0.364	Go_O	1.0
255.578	1.0	go	0.322	Go_X	1.0
258.102	0.2	stop	0.392	Go_X	0.0
260.626	1.0	go	0.509	Go_O	1.0
263.15	1.0	go	0.382	Go_X	1.0
265.674	0.15	stop	0.0	Go_O	1.0
268.199	1.0	go	0.453	Go_O	1.0
270.723	1.0	go	0.439	Go_X	1.0
273.247	0.2	stop	0.475	Go_X	0.0
275.771	1.0	go	0.516	Go_O	1.0
278.295	0.15	stop	0.0	Go_O	1.0
280.82	1.0	go	0.537	Go_X	1.0
283.344	1.0	go	0.377	Go_O	1.0
285.868	1.0	go	0.397	Go_X	1.0
288.392	1.0	go	0.39	Go_O	1.0
290.916	1.0	go	0.369	Go_X	1.0
293.44	0.2	stop	0.519	Go_X	0.0
295.965	0.15	stop	0.0	Go_O	1.0
298.489	1.0	go	0.449	Go_X	1.0
301.013	1.0	go	0.414	Go_O	1.0
303.537	0.2	stop	0.0	Go_X	1.0
306.061	1.0	go	0.492	Go_X	1.0
308.586	1.0	go	0.388	Go_O	1.0
311.11	1.0	go	0.422	Go_O	1.0
313.634	1.0	go	0.396	Go_X	1.0
316.158	1.0	go	0.512	Go_O	1.0
318.682	1.0	go	0.47	Go_X	1.0
321.206	0.25	stop	0.0	Go_O	1.0
323.731	1.0	go	0.758	Go_O	1.0
326.255	1.0	go	0.77	Go_X	1.0
328.779	1.0	go	0.391	Go_X	1.0
331.303	1.0	go	0.45	Go_O	1.0
333.827	1.0	go	0.424	Go_O	1.0
336.352	0.3	stop	0.56	Go_X	0.0
338.876	1.0	go	0.533	Go_X	1.0
341.4	1.0	go	0.437	Go_O	1.0
343.924	1.0	go	0.55	Go_X	1.0
346.448	1.0	go	0.349	Go_O	1.0
348.972	0.25	stop	0.582	Go_O	0.0
351.497	1.0	go	0.269	Go_X	1.0
354.021	1.0	go	0.583	Go_O	1.0
356.545	0.2	stop	0.0	Go_X	1.0
359.069	1.0	go	0.479	Go_X	0.0
361.593	0.25	stop	0.515	Go_O	0.0
364.118	1.0	go	0.465	Go_O	1.0
366.642	1.0	go	0.404	Go_X	1.0
369.166	1.0	go	0.516	Go_X	1.0
371.69	1.0	go	0.399	Go_O	1.0
374.214	1.0	go	0.397	Go_O	1.0
376.738	1.0	go	0.275	Go_X	1.0
379.263	1.0	go	0.458	Go_X	1.0
381.787	0.2	stop	0.374	Go_X	0.0
384.311	1.0	go	0.518	Go_O	1.0
386.835	1.0	go	0.474	Go_X	1.0
389.359	1.0	go	0.409	Go_O	1.0
391.884	0.15	stop	0.443	Go_O	0.0
394.408	1.0	go	0.45	Go_X	1.0
396.932	1.0	go	0.516	Go_O	1.0
399.456	1.0	go	0.563	Go_O	1.0
401.98	1.0	go	0.634	Go_X	1.0
404.504	0.1	stop	0.0	Go_X	1.0
407.029	1.0	go	0.431	Go_O	1.0
409.553	1.0	go	0.392	Go_X	1.0
412.077	0.15	stop	0.45	Go_O	0.0
414.601	1.0	go	0.38	Go_O	1.0
417.125	1.0	go	0.394	Go_X	1.0
419.65	0.1	stop	0.0	Go_X	1.0
422.174	1.0	go	0.356	Go_X	1.0
424.698	1.0	go	0.362	Go_O	1.0
427.222	0.15	stop	0.0	Go_O	1.0
429.746	1.0	go	0.445	Go_X	1.0
432.271	1.0	go	0.571	Go_O	1.0
434.795	1.0	go	0.577	Go_O	1.0
437.319	1.0	go	0.399	Go_X	1.0
439.843	1.0	go	0.474	Go_O	1.0
442.367	1.0	go	0.476	Go_X	1.0
444.891	0.2	stop	0.0	Go_X	1.0
447.416	1.0	go	0.417	Go_X	1.0
449.94	0.25	stop	0.322	Go_O	0.0
452.464	1.0	go	0.877	Go_O	1.0
454.988	1.0	go	0.315	Go_X	1.0
457.512	1.0	go	0.532	Go_O	1.0
460.037	1.0	go	0.557	Go_O	1.0
462.561	1.0	go	0.57	Go_X	1.0
465.085	0.2	stop	0.0	Go_X	1.0
467.609	1.0	go	0.349	Go_X	1.0
470.133	1.0	go	0.33	Go_O	1.0
472.657	1.0	go	0.479	Go_X	1.0
475.182	0.25	stop	0.46	Go_O	0.0
477.706	0.2	stop	0.358	Go_X	0.0
480.23	0.15	stop	0.0	Go_O	1.0
482.754	1.0	go	0.614	Go_O	0.0
485.278	0.2	stop	0.0	Go_X	1.0
487.803	1.0	go	0.407	Go_O	1.0
490.327	1.0	go	0.0	Go_X	0.0
492.851	1.0	go	0.348	Go_O	1.0
495.375	1.0	go	0.312	Go_X	1.0
497.899	1.0	go	0.45	Go_X	1.0
500.423	1.0	go	0.602	Go_O	1.0
502.948	1.0	go	0.439	Go_O	1.0
505.472	1.0	go	0.681	Go_X	1.0
507.996	0.25	stop	0.0	Go_O	1.0
510.52	1.0	go	0.774	Go_X	1.0
513.044	1.0	go	0.904	Go_O	1.0
515.569	0.3	stop	0.378	Go_X	0.0
518.093	1.0	go	0.447	Go_X	1.0
520.617	1.0	go	0.585	Go_O	1.0
523.141	1.0	go	0.259	Go_X	1.0
525.665	1.0	go	0.395	Go_O	1.0
528.189	1.0	go	0.368	Go_X	1.0
530.714	0.25	stop	0.302	Go_O	0.0
533.238	1.0	go	0.362	Go_O	1.0
535.762	1.0	go	0.317	Go_O	1.0
538.286	1.0	go	0.354	Go_X	1.0
540.81	0.2	stop	0.37	Go_X	0.0
543.335	1.0	go	0.444	Go_O	1.0
545.859	0.15	stop	0.0	Go_O	1.0
548.383	1.0	go	0.505	Go_X	1.0
550.907	1.0	go	0.433	Go_O	0.0
553.431	1.0	go	0.41	Go_X	1.0
555.955	1.0	go	0.566	Go_X	1.0
558.48	1.0	go	0.354	Go_O	1.0
561.004	1.0	go	0.379	Go_X	1.0
563.528	1.0	go	0.453	Go_O	1.0
566.052	0.2	stop	0.0	Go_X	1.0
568.576	1.0	go	0.378	Go_O	1.0
571.101	1.0	go	0.547	Go_X	1.0
573.625	1.0	go	0.39	Go_X	1.0
576.149	1.0	go	0.32	Go_O	1.0
578.673	0.25	stop	0.266	Go_O	0.0
581.197	1.0	go	0.368	Go_O	1.0
583.721	0.2	stop	0.328	Go_X	0.0
586.246	1.0	go	0.406	Go_X	1.0
588.77	1.0	go	0.39	Go_O	1.0
591.294	0.15	stop	0.0	Go_O	1.0
593.818	1.0	go	0.432	Go_X	1.0
596.342	1.0	go	0.332	Go_O	1.0
598.867	1.0	go	0.369	Go_X	1.0
601.391	1.0	go	0.364	Go_O	1.0
603.915	1.0	go	0.66	Go_X	1.0
606.439	1.0	go	0.442	Go_X	1.0
608.963	1.0	go	0.511	Go_O	1.0
611.487	1.0	go	0.395	Go_O	1.0
614.012	1.0	go	0.591	Go_X	1.0
616.536	1.0	go	0.38	Go_O	1.0
619.06	0.2	stop	0.314	Go_X	0.0
621.584	1.0	go	0.387	Go_X	1.0
624.108	1.0	go	0.465	Go_X	1.0
626.633	0.15	stop	0.368	Go_O	0.0
629.157	1.0	go	0.478	Go_O	1.0
631.681	0.1	stop	0.0	Go_X	1.0
634.205	1.0	go	0.426	Go_X	1.0
636.729	1.0	go	0.503	Go_O	1.0
639.253	0.15	stop	0.0	Go_O	1.0
641.778	1.0	go	0.457	Go_X	1.0
644.302	0.2	stop	0.0	Go_X	1.0
646.826	1.0	go	0.407	Go_O	1.0
649.35	1.0	go	0.526	Go_X	1.0
651.874	1.0	go	0.53	Go_O	1.0
654.399	0.25	stop	0.409	Go_O	0.0
656.923	1.0	go	0.47	Go_O	1.0
659.447	1.0	go	0.469	Go_X	1.0
661.971	1.0	go	0.395	Go_X	1.0
664.495	1.0	go	0.451	Go_O	1.0
667.019	0.2	stop	0.54	Go_X	0.0
669.544	1.0	go	0.747	Go_X	1.0
672.068	1.0	go	0.535	Go_O	1.0
674.592	0.15	stop	0.0	Go_O	1.0
677.116	1.0	go	0.643	Go_O	1.0
679.64	1.0	go	0.492	Go_X	1.0
682.165	1.0	go	0.397	Go_O	1.0
684.689	1.0	go	0.859	Go_X	1.0
687.213	0.2	stop	0.486	Go_X	0.0
689.737	1.0	go	0.611	Go_O	1.0
692.261	0.15	stop	0.0	Go_O	1.0
694.785	1.0	go	0.568	Go_X	1.0
697.31	1.0	go	0.78	Go_X	0.0
699.834	0.2	stop	0.0	Go_X	1.0
702.358	1.0	go	0.42	Go_O	1.0
704.882	1.0	go	0.435	Go_O	1.0
707.406	1.0	go	0.478	Go_X	1.0
709.931	1.0	go	0.705	Go_O	1.0
712.455	0.25	stop	0.458	Go_O	0.0
714.979	1.0	go	0.469	Go_X	1.0
717.503	0.2	stop	0.369	Go_X	0.0
720.027	1.0	go	0.0	Go_O	0.0
722.552	1.0	go	0.403	Go_X	1.0
725.076	1.0	go	0.502	Go_X	1.0
727.6	1.0	go	0.375	Go_O	1.0
730.124	1.0	go	0.687	Go_X	1.0
732.648	1.0	go	0.666	Go_O	0.0
735.172	0.15	stop	0.0	Go_O	1.0
737.697	1.0	go	0.356	Go_X	1.0
740.221	1.0	go	0.394	Go_O	1.0
742.745	0.2	stop	0.622	Go_X	0.0
745.269	1.0	go	0.427	Go_O	1.0
747.793	1.0	go	0.503	Go_X	1.0
750.318	0.15	stop	0.0	Go_O	1.0
752.842	1.0	go	0.372	Go_X	1.0
755.366	1.0	go	0.333	Go_O	1.0
757.89	1.0	go	0.412	Go_O	1.0
760.414	1.0	go	0.337	Go_X	1.0
762.938	0.2	stop	0.445	Go_X	0.0
765.463	1.0	go	0.472	Go_X	1.0
767.987	0.15	stop	0.0	Go_O	1.0
770.511	1.0	go	0.51	Go_O	1.0
773.035	1.0	go	0.495	Go_O	0.0
775.559	1.0	go	0.722	Go_X	1.0
778.084	1.0	go	0.508	Go_X	1.0
780.608	1.0	go	0.757	Go_O	1.0
783.132	0.2	stop	0.0	Go_X	1.0
785.673	1.0	go	0.608	Go_O	1.0
788.197	1.0	go	0.7	Go_X	1.0
790.721	0.25	stop	0.0	Go_O	1.0
793.245	0.3	stop	0.465	Go_X	0.0
795.77	1.0	go	0.396	Go_O	1.0
798.294	1.0	go	0.483	Go_X	1.0
800.818	1.0	go	0.545	Go_O	1.0
803.342	1.0	go	0.421	Go_X	1.0
805.866	0.25	stop	0.648	Go_O	0.0
808.39	1.0	go	0.797	Go_X	1.0
