onset	duration	trial_type	response_time	stim_file	accuracy
101.389	1.0	go	0.681	Go_X	1.0
103.913	1.0	go	0.87	Go_O	1.0
106.438	1.0	go	0.446	Go_O	1.0
108.962	1.0	go	0.56	Go_X	1.0
111.486	1.0	go	0.662	Go_X	1.0
114.01	1.0	go	0.472	Go_O	1.0
116.534	0.25	stopsuccess	0.0	Go_O	1.0
119.058	1.0	go	0.515	Go_O	1.0
121.583	0.3	stopsuccess	0.0	Go_X	1.0
124.107	1.0	go	0.515	Go_X	1.0
126.631	1.0	go	0.677	Go_O	1.0
129.155	1.0	go	0.699	Go_X	1.0
131.679	0.35	stopsuccess	0.0	Go_O	1.0
134.203	1.0	go	0.583	Go_X	1.0
136.728	1.0	go	0.562	Go_O	1.0
139.252	0.4	stopfail	0.564	Go_X	0.0
141.776	0.35	stopfail	0.41	Go_O	0.0
144.3	1.0	go	0.601	Go_X	1.0
146.824	1.0	go	0.774	Go_O	1.0
149.348	0.3	stopsuccess	0.0	Go_X	1.0
151.873	1.0	go	0.661	Go_X	1.0
154.397	1.0	go	0.416	Go_O	1.0
156.921	0.35	stopfail	0.448	Go_O	0.0
159.445	1.0	go	0.859	Go_X	1.0
161.969	1.0	go	0.748	Go_O	1.0
164.493	0.3	stopsuccess	0.0	Go_X	1.0
167.018	1.0	go	0.788	Go_X	1.0
169.542	1.0	go	0.715	Go_O	1.0
172.066	0.35	stopsuccess	0.0	Go_O	1.0
174.59	1.0	go	0.6	Go_X	1.0
177.114	1.0	go	0.811	Go_O	1.0
179.638	1.0	go	0.954	Go_X	1.0
182.163	1.0	go	0.769	Go_O	1.0
184.687	1.0	go	0.734	Go_X	1.0
187.211	0.4	stopsuccess	0.0	Go_X	1.0
189.735	1.0	go	0.53	Go_O	1.0
192.259	1.0	go	0.55	Go_X	1.0
194.784	1.0	go	0.765	Go_O	1.0
197.308	1.0	go	0.828	Go_O	1.0
199.832	1.0	go	0.96	Go_X	1.0
202.356	0.45	stopfail	0.608	Go_O	0.0
204.88	1.0	go	0.364	Go_O	1.0
207.404	1.0	go	0.406	Go_X	1.0
209.929	1.0	go	0.527	Go_X	1.0
212.453	1.0	go	0.409	Go_O	1.0
214.977	1.0	go	0.434	Go_O	1.0
217.501	1.0	go	0.441	Go_X	1.0
220.025	0.4	stopsuccess	0.0	Go_X	1.0
222.549	1.0	go	0.467	Go_X	1.0
225.074	1.0	go	0.391	Go_O	1.0
227.598	0.45	stopfail	0.478	Go_O	0.0
230.139	1.0	go	0.401	Go_O	1.0
232.663	0.4	stopsuccess	0.0	Go_X	1.0
235.187	0.45	stopfail	0.72	Go_O	0.0
237.711	1.0	go	0.593	Go_X	1.0
240.235	1.0	go	0.751	Go_X	1.0
242.76	1.0	go	0.704	Go_O	1.0
245.284	1.0	go	0.657	Go_O	1.0
247.808	0.4	stopsuccess	0.0	Go_X	1.0
250.332	1.0	go	0.335	Go_X	1.0
252.856	0.45	stopfail	0.478	Go_O	0.0
255.38	1.0	go	0.588	Go_X	1.0
257.905	1.0	go	0.407	Go_O	1.0
260.429	1.0	go	0.659	Go_X	1.0
262.953	1.0	go	0.47	Go_O	1.0
265.477	1.0	go	0.71	Go_X	1.0
268.001	1.0	go	0.555	Go_O	1.0
270.525	1.0	go	0.666	Go_O	1.0
273.05	1.0	go	0.773	Go_X	1.0
275.574	1.0	go	0.0	Go_X	0.0
278.098	0.4	stopfail	0.521	Go_X	0.0
280.622	1.0	go	0.618	Go_O	1.0
283.146	1.0	go	0.622	Go_O	1.0
285.67	1.0	go	0.561	Go_X	1.0
288.195	0.35	stopfail	0.496	Go_O	0.0
290.719	1.0	go	0.688	Go_X	1.0
293.243	1.0	go	0.733	Go_O	1.0
295.767	1.0	go	0.562	Go_O	1.0
298.291	1.0	go	0.872	Go_X	1.0
300.815	1.0	go	0.421	Go_O	1.0
303.34	1.0	go	0.371	Go_X	1.0
305.864	0.3	stopsuccess	0.0	Go_X	1.0
308.388	1.0	go	0.785	Go_X	1.0
310.912	1.0	go	0.589	Go_O	1.0
313.436	0.35	stopsuccess	0.0	Go_O	1.0
315.96	1.0	go	0.512	Go_X	1.0
318.485	1.0	go	0.419	Go_O	1.0
321.009	0.4	stopsuccess	0.0	Go_X	1.0
323.533	1.0	go	0.757	Go_O	1.0
326.057	0.45	stopsuccess	0.0	Go_O	1.0
328.581	1.0	go	0.519	Go_X	1.0
331.106	1.0	go	0.438	Go_X	1.0
333.63	1.0	go	0.689	Go_O	1.0
336.154	1.0	go	0.785	Go_X	1.0
338.678	1.0	go	0.644	Go_O	1.0
341.202	0.5	stopfail	0.384	Go_X	0.0
343.726	0.45	stopsuccess	0.0	Go_O	1.0
346.251	1.0	go	0.634	Go_X	1.0
348.775	1.0	go	0.718	Go_O	1.0
351.299	0.5	stopsuccess	0.0	Go_X	1.0
353.823	1.0	go	0.587	Go_O	1.0
356.347	1.0	go	0.881	Go_X	1.0
358.871	1.0	go	0.908	Go_X	1.0
361.396	1.0	go	0.735	Go_O	1.0
363.92	1.0	go	0.493	Go_O	1.0
366.444	1.0	go	0.601	Go_X	1.0
368.968	0.55	stopfail	0.432	Go_O	0.0
371.492	1.0	go	0.543	Go_X	1.0
374.016	1.0	go	0.359	Go_O	1.0
376.541	1.0	go	0.756	Go_X	1.0
379.065	1.0	go	0.719	Go_O	1.0
381.589	1.0	go	0.897	Go_X	1.0
384.113	0.5	stopfail	0.669	Go_X	0.0
386.637	1.0	go	0.686	Go_O	1.0
389.161	1.0	go	0.689	Go_O	1.0
391.686	1.0	go	0.787	Go_X	1.0
394.21	1.0	go	0.694	Go_X	1.0
396.734	0.45	stopsuccess	0.0	Go_O	1.0
399.258	1.0	go	0.417	Go_O	1.0
401.782	1.0	go	0.527	Go_O	1.0
404.307	0.5	stopfail	0.446	Go_X	0.0
406.831	1.0	go	0.416	Go_X	1.0
409.355	0.45	stopfail	0.58	Go_O	0.0
411.879	1.0	go	0.5	Go_O	1.0
414.403	1.0	go	0.722	Go_X	1.0
416.927	1.0	go	0.0	Go_O	0.0
419.452	1.0	go	0.646	Go_X	1.0
421.976	1.0	go	0.459	Go_O	1.0
424.5	1.0	go	0.395	Go_X	1.0
427.024	1.0	go	0.337	Go_O	1.0
429.548	0.4	stopfail	0.543	Go_X	0.0
432.072	1.0	go	0.768	Go_X	1.0
434.597	1.0	go	0.645	Go_X	1.0
437.121	1.0	go	0.587	Go_O	1.0
439.645	0.35	stopsuccess	0.0	Go_O	1.0
442.169	1.0	go	0.603	Go_O	1.0
444.693	1.0	go	0.531	Go_X	1.0
447.217	1.0	go	0.86	Go_O	1.0
449.742	1.0	go	0.675	Go_X	1.0
452.266	0.4	stopsuccess	0.0	Go_X	1.0
454.79	1.0	go	0.499	Go_O	1.0
457.314	1.0	go	0.618	Go_X	1.0
459.838	0.45	stopsuccess	0.0	Go_O	1.0
462.362	1.0	go	0.44	Go_X	1.0
464.887	1.0	go	0.868	Go_O	1.0
467.411	0.5	stopsuccess	0.0	Go_X	1.0
469.935	1.0	go	0.758	Go_O	1.0
472.459	1.0	go	0.756	Go_X	1.0
474.983	0.55	stopfail	0.711	Go_O	0.0
477.507	1.0	go	0.785	Go_X	1.0
480.032	1.0	go	0.0	Go_O	0.0
482.556	1.0	go	0.0	Go_O	0.0
485.08	1.0	go	0.468	Go_X	1.0
487.604	1.0	go	0.389	Go_O	1.0
490.128	1.0	go	0.49	Go_X	1.0
492.653	0.5	stopfail	0.497	Go_X	0.0
495.177	1.0	go	0.575	Go_O	1.0
497.701	0.45	stopfail	0.475	Go_O	0.0
500.225	1.0	go	0.687	Go_X	1.0
502.749	1.0	go	0.477	Go_X	1.0
505.273	1.0	go	0.693	Go_O	1.0
507.798	1.0	go	0.69	Go_O	1.0
510.322	1.0	go	0.599	Go_X	1.0
512.846	0.4	stopsuccess	0.0	Go_X	1.0
515.37	1.0	go	0.657	Go_O	1.0
517.894	1.0	go	0.546	Go_X	1.0
520.418	1.0	go	0.645	Go_O	1.0
522.943	0.45	stopsuccess	0.0	Go_O	1.0
525.467	0.5	stopfail	0.548	Go_X	0.0
527.991	0.45	stopsuccess	0.0	Go_O	1.0
530.515	1.0	go	0.5	Go_X	1.0
533.039	0.5	stopfail	0.692	Go_X	0.0
535.563	1.0	go	0.592	Go_O	1.0
538.088	1.0	go	0.635	Go_X	1.0
540.612	1.0	go	0.55	Go_X	1.0
543.136	1.0	go	0.391	Go_O	1.0
545.66	1.0	go	0.632	Go_O	1.0
548.184	1.0	go	0.493	Go_X	1.0
550.708	1.0	go	0.558	Go_O	1.0
553.233	1.0	go	0.721	Go_X	1.0
555.757	0.45	stopsuccess	0.0	Go_O	1.0
558.281	1.0	go	0.442	Go_X	1.0
560.805	1.0	go	0.575	Go_O	1.0
563.329	0.5	stopsuccess	0.0	Go_X	1.0
565.853	1.0	go	0.525	Go_O	1.0
568.378	1.0	go	0.543	Go_X	1.0
570.902	1.0	go	0.531	Go_O	1.0
573.426	1.0	go	0.644	Go_X	1.0
575.95	1.0	go	0.743	Go_X	1.0
578.474	0.55	stopfail	0.535	Go_O	0.0
580.999	1.0	go	0.449	Go_O	1.0
583.523	1.0	go	0.836	Go_X	1.0
586.047	1.0	go	0.7	Go_O	1.0
588.571	0.5	stopfail	0.557	Go_X	0.0
591.095	1.0	go	0.451	Go_O	1.0
593.619	0.45	stopfail	0.448	Go_O	0.0
596.144	1.0	go	0.512	Go_X	1.0
598.668	1.0	go	0.603	Go_O	1.0
601.192	1.0	go	0.357	Go_X	1.0
603.716	1.0	go	0.687	Go_X	1.0
606.24	1.0	go	0.788	Go_O	1.0
608.764	1.0	go	0.642	Go_X	1.0
611.289	1.0	go	0.559	Go_O	1.0
613.813	0.4	stopsuccess	0.0	Go_X	1.0
616.337	1.0	go	0.443	Go_O	1.0
618.861	1.0	go	0.751	Go_X	1.0
621.385	1.0	go	0.681	Go_X	1.0
623.909	1.0	go	0.823	Go_O	1.0
626.434	0.45	stopsuccess	0.0	Go_O	1.0
628.958	1.0	go	0.673	Go_X	1.0
631.482	0.5	stopsuccess	0.0	Go_X	1.0
634.006	1.0	go	0.505	Go_O	1.0
636.53	1.0	go	0.839	Go_O	1.0
639.054	0.55	stopsuccess	0.0	Go_O	1.0
641.579	1.0	go	0.543	Go_X	1.0
644.103	1.0	go	0.735	Go_O	1.0
646.627	1.0	go	0.93	Go_X	1.0
649.151	1.0	go	0.684	Go_O	1.0
651.675	1.0	go	0.751	Go_X	1.0
654.199	1.0	go	0.792	Go_O	1.0
656.724	1.0	go	0.722	Go_X	1.0
659.248	1.0	go	0.723	Go_X	1.0
661.772	1.0	go	0.0	Go_O	0.0
664.296	1.0	go	0.78	Go_O	1.0
666.82	0.6	stopfail	0.554	Go_X	0.0
669.345	1.0	go	0.572	Go_X	1.0
671.869	1.0	go	0.438	Go_O	1.0
674.393	0.55	stopfail	0.497	Go_O	0.0
676.917	1.0	go	0.43	Go_X	1.0
679.441	0.5	stopfail	0.51	Go_X	0.0
681.965	1.0	go	0.741	Go_O	1.0
684.49	1.0	go	0.632	Go_X	1.0
687.014	0.45	stopfail	0.579	Go_O	0.0
689.538	1.0	go	0.0	Go_O	0.0
692.062	0.4	stopfail	0.508	Go_X	0.0
694.586	1.0	go	0.821	Go_X	1.0
697.11	1.0	go	0.764	Go_X	1.0
699.635	1.0	go	0.447	Go_O	1.0
702.159	0.35	stopsuccess	0.0	Go_O	1.0
704.683	1.0	go	0.507	Go_X	1.0
707.207	1.0	go	0.619	Go_O	1.0
709.731	1.0	go	0.748	Go_O	1.0
712.255	1.0	go	0.633	Go_X	1.0
714.78	0.4	stopfail	0.471	Go_X	0.0
717.304	1.0	go	0.924	Go_X	1.0
719.828	1.0	go	0.621	Go_O	1.0
722.352	0.35	stopsuccess	0.0	Go_O	1.0
724.876	1.0	go	0.638	Go_O	0.0
727.4	1.0	go	0.656	Go_X	1.0
729.925	1.0	go	0.643	Go_O	1.0
732.449	1.0	go	0.721	Go_X	1.0
734.973	0.4	stopsuccess	0.0	Go_X	1.0
737.497	1.0	go	0.522	Go_X	1.0
740.021	0.45	stopsuccess	0.0	Go_O	1.0
742.546	1.0	go	0.511	Go_O	1.0
745.07	1.0	go	0.0	Go_X	0.0
747.594	0.5	stopfail	0.585	Go_X	0.0
750.118	1.0	go	0.511	Go_O	1.0
752.642	1.0	go	0.508	Go_O	1.0
755.166	1.0	go	0.635	Go_X	1.0
757.691	1.0	go	0.767	Go_X	1.0
760.215	0.45	stopsuccess	0.0	Go_O	1.0
762.756	1.0	go	0.515	Go_O	1.0
765.28	0.5	stopsuccess	0.0	Go_X	1.0
767.804	1.0	go	0.597	Go_X	1.0
770.328	1.0	go	0.617	Go_O	1.0
772.852	1.0	go	0.869	Go_X	1.0
775.376	1.0	go	0.481	Go_O	1.0
777.901	1.0	go	0.498	Go_O	1.0
780.425	1.0	go	0.765	Go_X	1.0
782.949	0.55	stopsuccess	0.0	Go_O	1.0
785.473	1.0	go	0.431	Go_X	1.0
787.997	1.0	go	0.574	Go_O	1.0
790.521	0.6	stopfail	0.644	Go_X	0.0
793.046	1.0	go	0.575	Go_O	1.0
795.57	1.0	go	0.612	Go_X	1.0
798.094	0.55	stopfail	0.542	Go_O	0.0
800.618	1.0	go	0.731	Go_X	1.0
803.142	1.0	go	0.878	Go_O	1.0
805.667	1.0	go	0.632	Go_O	1.0
808.191	1.0	go	0.768	Go_X	1.0
810.715	0.5	stopsuccess	0.0	Go_X	1.0
813.239	1.0	go	0.647	Go_X	1.0
815.763	0.55	stopfail	0.566	Go_O	0.0
818.287	1.0	go	0.515	Go_O	1.0
820.812	1.0	go	0.506	Go_O	1.0
823.336	1.0	go	0.738	Go_X	1.0
825.86	1.0	go	0.962	Go_X	1.0
828.384	1.0	go	0.79	Go_O	1.0
830.908	0.5	stopsuccess	0.0	Go_X	1.0
833.432	1.0	go	0.596	Go_X	1.0
835.957	1.0	go	0.801	Go_O	1.0
838.481	0.55	stopfail	0.701	Go_O	0.0
841.005	0.5	stopfail	0.453	Go_X	0.0
843.529	1.0	go	0.715	Go_O	1.0
846.053	1.0	go	0.513	Go_X	1.0
848.577	1.0	go	0.667	Go_O	1.0
851.102	1.0	go	0.378	Go_X	1.0
853.626	0.45	stopfail	0.456	Go_O	0.0
856.15	1.0	go	0.578	Go_O	1.0
