onset	duration	trial_type	response_time	stim_file	accuracy
0.556999999999988	1.0	go	0.818	Go_X	1.0
3.131999999999991	1.0	go	0.251	Go_O	1.0
5.655999999999992	1.0	go	0.348	Go_O	1.0
8.179999999999993	1.0	go	0.685	Go_X	1.0
10.703999999999994	1.0	go	0.472	Go_X	1.0
13.227999999999994	1.0	go	0.314	Go_O	1.0
15.751999999999995	0.25	stopfail	0.33	Go_O	0.0
18.277	1.0	go	0.539	Go_X	1.0
20.800999999999988	0.2	stopfail	0.37	Go_X	0.0
23.32499999999999	1.0	go	0.255	Go_O	1.0
25.84899999999999	1.0	go	0.279	Go_O	1.0
28.37299999999999	1.0	go	0.187	Go_X	1.0
30.89699999999999	0.15	stopsuccess	0.0	Go_O	1.0
33.422	1.0	go	0.316	Go_O	1.0
35.946	1.0	go	0.236	Go_X	1.0
38.47	0.2	stopfail	0.316	Go_X	0.0
40.994	0.15	stopsuccess	0.0	Go_O	1.0
43.518	1.0	go	0.35	Go_X	1.0
46.04199999999999	1.0	go	0.297	Go_O	1.0
48.56699999999999	0.2	stopfail	0.364	Go_X	0.0
51.10799999999999	1.0	go	0.483	Go_O	1.0
53.63199999999999	1.0	go	0.383	Go_X	1.0
56.15599999999999	0.15	stopsuccess	0.0	Go_O	1.0
58.67999999999999	1.0	go	0.442	Go_O	1.0
61.20399999999999	1.0	go	0.359	Go_X	1.0
63.727999999999994	0.2	stopsuccess	0.0	Go_X	1.0
66.253	1.0	go	0.404	Go_O	1.0
68.777	1.0	go	0.223	Go_X	1.0
71.301	0.25	stopfail	0.408	Go_O	0.0
73.825	1.0	go	0.27	Go_X	1.0
76.349	1.0	go	0.357	Go_O	1.0
78.873	1.0	go	0.425	Go_O	1.0
81.39799999999998	1.0	go	0.412	Go_X	1.0
83.92199999999998	1.0	go	0.359	Go_O	1.0
86.44599999999998	0.2	stopfail	0.35	Go_X	0.0
88.96999999999998	1.0	go	0.311	Go_X	0.0
91.49399999999999	1.0	go	0.334	Go_X	1.0
94.01799999999999	1.0	go	0.321	Go_O	1.0
96.54299999999999	1.0	go	0.234	Go_X	1.0
99.067	1.0	go	0.209	Go_O	1.0
101.591	0.15	stopfail	0.361	Go_O	0.0
104.115	1.0	go	0.178	Go_O	0.0
106.639	1.0	go	0.294	Go_X	1.0
109.163	1.0	go	0.288	Go_X	1.0
111.688	1.0	go	0.222	Go_O	1.0
114.212	1.0	go	0.439	Go_O	1.0
116.736	1.0	go	0.407	Go_X	1.0
119.26	0.1	stopsuccess	0.0	Go_X	1.0
121.784	1.0	go	0.366	Go_X	1.0
124.308	1.0	go	0.368	Go_O	1.0
126.83299999999998	0.15	stopfail	0.344	Go_O	0.0
129.37399999999997	1.0	go	0.386	Go_O	1.0
131.89799999999997	0.1	stopfail	0.237	Go_X	0.0
134.42199999999997	0.05	stopsuccess	0.0	Go_O	1.0
136.94599999999997	1.0	go	0.245	Go_X	1.0
139.46999999999997	1.0	go	0.273	Go_O	1.0
141.99399999999997	1.0	go	0.333	Go_X	1.0
144.519	1.0	go	0.314	Go_O	1.0
147.043	0.1	stopsuccess	0.0	Go_X	1.0
149.567	1.0	go	0.47	Go_X	1.0
152.091	0.15	stopfail	0.254	Go_O	0.0
154.615	1.0	go	0.436	Go_O	1.0
157.139	1.0	go	0.235	Go_X	1.0
159.664	1.0	go	0.212	Go_X	1.0
162.188	1.0	go	0.05	Go_O	1.0
164.712	1.0	go	0.357	Go_O	1.0
167.236	1.0	go	0.441	Go_X	1.0
169.76	1.0	go	0.429	Go_O	1.0
172.284	1.0	go	0.417	Go_X	1.0
174.80899999999997	1.0	go	0.339	Go_O	1.0
177.33299999999997	0.1	stopsuccess	0.0	Go_X	1.0
179.85699999999997	1.0	go	0.447	Go_X	1.0
182.38099999999997	1.0	go	0.283	Go_O	1.0
184.90499999999997	1.0	go	0.334	Go_X	0.0
187.42899999999997	0.15	stopsuccess	0.0	Go_O	1.0
189.954	1.0	go	0.567	Go_X	1.0
192.47799999999995	1.0	go	0.251	Go_O	1.0
195.00199999999995	1.0	go	0.534	Go_X	1.0
197.52599999999995	1.0	go	0.345	Go_O	1.0
200.04999999999995	1.0	go	0.308	Go_X	1.0
202.575	1.0	go	0.329	Go_O	1.0
205.099	0.2	stopfail	0.2	Go_X	0.0
207.623	1.0	go	0.403	Go_X	0.0
210.147	1.0	go	0.374	Go_O	0.0
212.671	0.15	stopfail	0.505	Go_O	0.0
215.195	1.0	go	0.268	Go_O	1.0
217.71999999999997	1.0	go	0.276	Go_X	1.0
220.24399999999997	0.1	stopsuccess	0.0	Go_X	1.0
222.78499999999997	1.0	go	0.341	Go_X	1.0
225.30899999999997	0.15	stopfail	0.338	Go_O	0.0
227.83299999999997	1.0	go	0.321	Go_O	1.0
230.35699999999997	1.0	go	0.391	Go_X	1.0
232.88099999999997	1.0	go	0.307	Go_O	1.0
235.40499999999997	1.0	go	0.338	Go_O	1.0
237.93	1.0	go	0.384	Go_X	1.0
240.454	0.1	stopfail	0.242	Go_X	0.0
242.97799999999995	0.05	stopsuccess	0.0	Go_O	1.0
245.50199999999995	1.0	go	0.398	Go_O	1.0
248.02599999999995	1.0	go	0.272	Go_X	1.0
250.54999999999995	0.1	stopsuccess	0.0	Go_X	1.0
253.075	1.0	go	0.378	Go_O	1.0
255.599	1.0	go	0.328	Go_X	1.0
258.123	1.0	go	0.26	Go_X	0.0
260.647	1.0	go	0.354	Go_O	1.0
263.171	1.0	go	0.325	Go_O	1.0
265.69599999999997	1.0	go	0.318	Go_X	1.0
268.21999999999997	0.15	stopsuccess	0.0	Go_O	1.0
270.74399999999997	1.0	go	0.577	Go_O	1.0
273.268	1.0	go	0.471	Go_X	1.0
275.792	1.0	go	0.145	Go_O	1.0
278.316	1.0	go	0.16	Go_X	1.0
280.841	1.0	go	0.166	Go_X	1.0
283.36499999999995	0.2	stopfail	0.079	Go_X	0.0
285.88899999999995	1.0	go	0.12	Go_O	1.0
288.41299999999995	1.0	go	0.307	Go_X	1.0
290.93699999999995	1.0	go	0.16	Go_O	0.0
293.46099999999996	1.0	go	0.0	Go_O	0.0
295.986	0.15	stopfail	0.237	Go_O	0.0
298.51	1.0	go	0.361	Go_X	1.0
301.034	1.0	go	0.221	Go_O	1.0
303.558	0.1	stopfail	0.184	Go_X	0.0
306.082	1.0	go	0.183	Go_X	0.0
308.606	0.05	stopfail	0.148	Go_O	0.0
311.131	1.0	go	0.241	Go_O	1.0
313.655	1.0	go	0.208	Go_X	1.0
316.179	1.0	go	0.256	Go_O	1.0
318.703	1.0	go	0.19	Go_X	1.0
321.227	1.0	go	0.15	Go_X	1.0
323.751	1.0	go	0.292	Go_O	1.0
326.27599999999995	1.0	go	0.316	Go_O	1.0
328.79999999999995	0.0	stopsuccess	0.0	Go_X	1.0
331.341	1.0	go	0.46	Go_X	1.0
333.86499999999995	1.0	go	0.145	Go_O	1.0
336.38899999999995	1.0	go	0.072	Go_X	0.0
338.91299999999995	0.05	stopsuccess	0.0	Go_O	1.0
341.43699999999995	1.0	go	0.357	Go_X	1.0
343.962	1.0	go	0.247	Go_O	1.0
346.486	1.0	go	0.356	Go_X	1.0
349.01	1.0	go	0.33	Go_O	1.0
351.534	0.1	stopsuccess	0.0	Go_X	1.0
354.058	1.0	go	0.357	Go_X	1.0
356.582	1.0	go	0.228	Go_O	1.0
359.10699999999997	0.15	stopfail	0.336	Go_O	0.0
361.631	1.0	go	0.334	Go_X	1.0
364.155	1.0	go	0.359	Go_O	1.0
366.679	0.1	stopfail	0.234	Go_X	0.0
369.203	1.0	go	0.317	Go_O	1.0
371.727	1.0	go	0.077	Go_X	1.0
374.25199999999995	0.05	stopfail	0.219	Go_O	0.0
376.77599999999995	1.0	go	0.296	Go_X	1.0
379.29999999999995	1.0	go	0.149	Go_O	1.0
381.82399999999996	1.0	go	0.068	Go_X	0.0
384.34799999999996	1.0	go	0.527	Go_O	1.0
386.87199999999996	1.0	go	0.313	Go_O	1.0
389.397	1.0	go	0.343	Go_X	1.0
391.921	0.0	stopsuccess	0.0	Go_X	1.0
394.462	1.0	go	0.275	Go_X	0.0
396.986	0.05	stopsuccess	0.0	Go_O	1.0
399.51	1.0	go	0.279	Go_O	1.0
402.034	1.0	go	0.343	Go_X	1.0
404.558	1.0	go	0.424	Go_O	1.0
407.08299999999997	1.0	go	0.501	Go_X	1.0
409.60699999999997	1.0	go	0.304	Go_O	1.0
412.131	0.1	stopsuccess	0.0	Go_X	1.0
414.655	1.0	go	0.445	Go_X	1.0
417.179	1.0	go	0.259	Go_O	1.0
419.703	1.0	go	0.501	Go_X	1.0
422.22799999999995	0.15	stopfail	0.341	Go_O	0.0
424.75199999999995	0.1	stopsuccess	0.0	Go_X	1.0
427.27599999999995	0.15	stopsuccess	0.0	Go_O	1.0
429.79999999999995	1.0	go	0.439	Go_O	1.0
432.32399999999996	0.2	stopfail	0.326	Go_X	0.0
434.84799999999996	1.0	go	0.507	Go_X	1.0
437.373	1.0	go	0.393	Go_O	1.0
439.897	1.0	go	0.786	Go_X	1.0
442.42099999999994	1.0	go	0.318	Go_O	1.0
444.94499999999994	1.0	go	0.292	Go_X	1.0
447.46899999999994	1.0	go	0.319	Go_O	1.0
449.99299999999994	1.0	go	0.921	Go_X	1.0
452.51800000000003	1.0	go	0.529	Go_O	1.0
455.04200000000003	0.15	stopsuccess	0.0	Go_O	1.0
457.56600000000003	1.0	go	0.456	Go_O	1.0
460.09000000000003	1.0	go	0.392	Go_X	1.0
462.631	0.2	stopsuccess	0.0	Go_X	1.0
465.155	1.0	go	0.338	Go_O	1.0
467.679	1.0	go	0.336	Go_X	1.0
470.20399999999995	1.0	go	0.535	Go_X	1.0
472.72799999999995	1.0	go	0.363	Go_O	1.0
475.25199999999995	1.0	go	0.352	Go_O	1.0
477.77599999999995	0.25	stopfail	0.364	Go_O	0.0
480.29999999999995	1.0	go	0.396	Go_X	1.0
482.82399999999996	1.0	go	0.5	Go_O	1.0
485.34899999999993	1.0	go	0.508	Go_X	1.0
487.87299999999993	0.2	stopsuccess	0.0	Go_X	1.0
490.39699999999993	1.0	go	0.525	Go_X	1.0
492.92099999999994	0.25	stopfail	0.357	Go_O	0.0
495.44499999999994	1.0	go	0.574	Go_O	1.0
497.96899999999994	1.0	go	0.162	Go_O	0.0
500.494	1.0	go	0.399	Go_X	1.0
503.01800000000003	1.0	go	0.362	Go_X	1.0
505.54200000000003	1.0	go	0.353	Go_O	1.0
508.06600000000003	1.0	go	0.269	Go_X	1.0
510.59000000000003	1.0	go	0.426	Go_O	1.0
513.115	0.2	stopsuccess	0.0	Go_X	1.0
515.639	1.0	go	0.42	Go_X	1.0
518.163	1.0	go	0.365	Go_O	1.0
520.687	1.0	go	0.39	Go_O	1.0
523.211	1.0	go	0.313	Go_X	1.0
525.735	0.25	stopfail	0.339	Go_O	0.0
528.26	1.0	go	0.351	Go_O	1.0
530.784	0.2	stopfail	0.362	Go_X	0.0
533.308	1.0	go	0.426	Go_X	1.0
535.832	1.0	go	0.438	Go_X	1.0
538.356	0.15	stopfail	0.269	Go_O	0.0
540.88	1.0	go	0.475	Go_O	1.0
543.405	1.0	go	0.362	Go_X	1.0
545.929	1.0	go	0.346	Go_O	1.0
548.453	1.0	go	0.393	Go_O	1.0
550.977	1.0	go	0.606	Go_X	1.0
553.501	1.0	go	0.457	Go_O	1.0
556.025	1.0	go	0.454	Go_X	1.0
558.55	1.0	go	0.367	Go_X	1.0
561.074	1.0	go	0.359	Go_O	1.0
563.598	1.0	go	0.523	Go_X	1.0
566.122	0.1	stopsuccess	0.0	Go_X	1.0
568.646	1.0	go	0.325	Go_O	1.0
571.17	1.0	go	0.425	Go_O	1.0
573.6949999999999	0.15	stopfail	0.28	Go_O	0.0
576.2189999999999	1.0	go	0.317	Go_X	1.0
578.7429999999999	0.1	stopsuccess	0.0	Go_X	1.0
581.2669999999999	1.0	go	0.374	Go_O	1.0
583.7909999999999	1.0	go	0.327	Go_X	1.0
586.3149999999999	0.15	stopfail	0.209	Go_O	0.0
588.84	1.0	go	0.395	Go_X	1.0
591.364	0.1	stopsuccess	0.0	Go_X	1.0
593.888	1.0	go	0.491	Go_O	1.0
596.412	1.0	go	0.414	Go_X	1.0
598.936	1.0	go	0.368	Go_O	1.0
601.461	0.15	stopsuccess	0.0	Go_O	1.0
603.985	1.0	go	0.316	Go_X	0.0
606.509	1.0	go	0.438	Go_O	1.0
609.033	1.0	go	0.525	Go_O	1.0
611.557	1.0	go	0.579	Go_X	1.0
614.081	0.2	stopsuccess	0.0	Go_X	1.0
616.606	1.0	go	0.399	Go_O	1.0
619.13	1.0	go	0.47	Go_X	1.0
621.654	0.25	stopfail	0.367	Go_O	0.0
624.178	1.0	go	0.689	Go_O	1.0
626.702	1.0	go	0.55	Go_X	0.0
629.226	1.0	go	0.415	Go_X	1.0
631.751	1.0	go	0.472	Go_O	1.0
634.275	0.2	stopfail	0.249	Go_X	0.0
636.799	1.0	go	0.424	Go_X	1.0
639.323	0.15	stopfail	0.323	Go_O	0.0
641.847	1.0	go	0.602	Go_O	1.0
644.371	1.0	go	0.757	Go_O	1.0
646.896	0.1	stopsuccess	0.0	Go_X	1.0
649.42	1.0	go	0.458	Go_X	1.0
651.944	1.0	go	0.291	Go_O	1.0
654.468	1.0	go	0.559	Go_X	0.0
656.992	1.0	go	0.63	Go_O	1.0
659.516	0.15	stopsuccess	0.0	Go_O	1.0
662.0409999999999	1.0	go	0.412	Go_X	1.0
664.5649999999999	0.2	stopsuccess	0.0	Go_X	1.0
667.0889999999999	1.0	go	0.448	Go_O	1.0
669.6129999999999	1.0	go	0.542	Go_X	1.0
672.137	1.0	go	0.489	Go_O	1.0
674.662	1.0	go	0.426	Go_X	0.0
677.186	1.0	go	0.35	Go_O	1.0
679.71	1.0	go	0.407	Go_X	1.0
682.2339999999999	0.25	stopfail	0.339	Go_O	0.0
684.7579999999999	1.0	go	0.399	Go_O	1.0
687.2819999999999	1.0	go	0.356	Go_X	1.0
689.807	0.2	stopsuccess	0.0	Go_X	1.0
692.331	1.0	go	0.727	Go_X	1.0
694.855	1.0	go	0.287	Go_O	1.0
697.379	0.25	stopfail	0.511	Go_O	0.0
699.903	1.0	go	0.472	Go_O	1.0
702.427	1.0	go	0.69	Go_X	1.0
704.952	1.0	go	0.517	Go_O	1.0
707.476	1.0	go	0.341	Go_X	1.0
710.0	0.2	stopsuccess	0.0	Go_X	1.0
712.524	1.0	go	0.562	Go_X	1.0
715.048	0.25	stopfail	0.257	Go_O	0.0
717.572	1.0	go	0.0	Go_O	0.0
720.097	1.0	go	0.33	Go_X	1.0
722.621	1.0	go	0.253	Go_O	1.0
725.145	1.0	go	0.341	Go_X	1.0
727.669	1.0	go	0.342	Go_O	1.0
730.193	0.2	stopfail	0.365	Go_X	0.0
732.717	1.0	go	0.286	Go_O	1.0
735.242	1.0	go	0.27	Go_X	1.0
737.766	0.15	stopfail	0.181	Go_O	0.0
740.29	0.1	stopsuccess	0.0	Go_X	1.0
742.814	1.0	go	0.444	Go_O	1.0
745.338	1.0	go	0.465	Go_X	0.0
747.862	1.0	go	0.672	Go_X	1.0
750.387	1.0	go	0.361	Go_O	1.0
752.911	0.15	stopsuccess	0.0	Go_O	1.0
755.435	1.0	go	0.406	Go_X	1.0
