onset	duration	trial_type	response_time	stim_file	accuracy
108.867	1.0	go	0.497	Go_O	1.0
111.391	1.0	go	0.33	Go_X	1.0
113.915	1.0	go	0.282	Go_O	1.0
116.439	1.0	go	0.721	Go_X	1.0
118.964	1.0	go	0.484	Go_O	1.0
121.488	1.0	go	0.205	Go_X	1.0
124.012	0.25	stopfail	0.233	Go_O	0.0
126.536	1.0	go	0.26	Go_O	0.0
129.06	0.2	stopfail	0.207	Go_X	0.0
131.585	1.0	go	0.422	Go_X	1.0
134.109	1.0	go	0.368	Go_X	1.0
136.633	1.0	go	0.239	Go_O	1.0
139.157	0.15	stopsuccess	0.0	Go_O	1.0
141.681	1.0	go	0.363	Go_O	1.0
144.206	1.0	go	0.425	Go_X	0.0
146.73	0.2	stopsuccess	0.0	Go_X	1.0
149.254	0.25	stopfail	0.334	Go_O	0.0
151.778	1.0	go	0.342	Go_O	1.0
154.302	1.0	go	0.746	Go_X	1.0
156.827	0.2	stopsuccess	0.0	Go_X	1.0
159.351	1.0	go	0.438	Go_X	1.0
161.875	1.0	go	0.418	Go_O	1.0
164.399	0.25	stopfail	0.329	Go_O	0.0
166.94	1.0	go	0.299	Go_X	1.0
169.464	1.0	go	0.421	Go_O	1.0
171.989	0.2	stopsuccess	0.0	Go_X	1.0
174.513	1.0	go	0.435	Go_X	1.0
177.037	1.0	go	0.64	Go_O	1.0
179.561	0.25	stopfail	0.389	Go_O	0.0
182.102	1.0	go	0.414	Go_O	1.0
184.626	1.0	go	0.368	Go_X	1.0
187.15	1.0	go	0.43	Go_X	1.0
189.675	1.0	go	0.347	Go_O	1.0
192.199	1.0	go	0.368	Go_X	1.0
194.723	0.2	stopsuccess	0.0	Go_X	1.0
197.247	1.0	go	0.34	Go_O	1.0
199.771	1.0	go	0.356	Go_O	1.0
202.296	1.0	go	0.378	Go_X	1.0
204.82	1.0	go	0.376	Go_X	1.0
207.344	1.0	go	0.366	Go_O	1.0
209.868	0.25	stopfail	0.378	Go_O	0.0
212.392	1.0	go	0.312	Go_X	1.0
214.917	1.0	go	0.305	Go_O	1.0
217.441	1.0	go	0.276	Go_O	0.0
219.965	1.0	go	0.386	Go_X	1.0
222.489	1.0	go	0.368	Go_O	1.0
225.013	1.0	go	0.359	Go_X	1.0
227.538	0.2	stopsuccess	0.0	Go_X	1.0
230.062	1.0	go	0.345	Go_O	1.0
232.586	1.0	go	0.3	Go_X	1.0
235.11	0.25	stopfail	0.381	Go_O	0.0
237.635	1.0	go	0.382	Go_X	1.0
240.159	0.2	stopfail	0.326	Go_X	0.0
242.683	0.15	stopfail	0.301	Go_O	0.0
245.207	1.0	go	0.33	Go_O	1.0
247.731	1.0	go	0.384	Go_X	1.0
250.256	1.0	go	0.321	Go_O	1.0
252.78	1.0	go	0.297	Go_X	1.0
255.304	0.1	stopsuccess	0.0	Go_X	1.0
257.828	1.0	go	0.0	Go_O	0.0
260.352	0.15	stopsuccess	0.0	Go_O	1.0
262.877	1.0	go	0.431	Go_O	1.0
265.401	1.0	go	0.419	Go_X	1.0
267.925	1.0	go	0.457	Go_O	1.0
270.449	1.0	go	0.606	Go_X	1.0
272.973	1.0	go	0.483	Go_O	1.0
275.498	1.0	go	0.384	Go_X	1.0
278.022	1.0	go	0.4	Go_X	1.0
280.546	1.0	go	0.449	Go_O	1.0
283.07	1.0	go	0.295	Go_O	1.0
285.594	0.2	stopsuccess	0.0	Go_X	1.0
288.119	1.0	go	0.377	Go_X	1.0
290.643	1.0	go	0.201	Go_O	1.0
293.167	1.0	go	0.735	Go_X	1.0
295.691	0.25	stopsuccess	0.0	Go_O	1.0
298.215	1.0	go	0.873	Go_O	1.0
300.74	1.0	go	0.301	Go_X	1.0
303.264	1.0	go	0.455	Go_X	1.0
305.788	1.0	go	0.391	Go_O	1.0
308.312	1.0	go	0.352	Go_X	0.0
310.836	1.0	go	0.307	Go_O	1.0
313.361	0.3	stopfail	0.463	Go_X	0.0
315.885	1.0	go	0.388	Go_O	1.0
318.409	1.0	go	0.378	Go_X	1.0
320.933	0.25	stopfail	0.507	Go_O	0.0
323.457	1.0	go	0.32	Go_X	1.0
325.982	1.0	go	0.412	Go_O	1.0
328.506	0.2	stopsuccess	0.0	Go_X	1.0
331.03	1.0	go	0.37	Go_X	1.0
333.554	0.25	stopsuccess	0.0	Go_O	1.0
336.078	1.0	go	0.417	Go_O	1.0
338.603	1.0	go	0.445	Go_X	1.0
341.127	1.0	go	0.412	Go_O	1.0
343.651	1.0	go	0.577	Go_O	1.0
346.175	1.0	go	0.365	Go_X	1.0
348.699	0.3	stopsuccess	0.0	Go_X	1.0
351.224	0.35	stopfail	0.352	Go_O	0.0
353.748	1.0	go	0.452	Go_X	1.0
356.272	1.0	go	0.453	Go_O	1.0
358.796	0.3	stopsuccess	0.0	Go_X	1.0
361.32	1.0	go	0.304	Go_O	1.0
363.845	1.0	go	0.464	Go_X	1.0
366.369	1.0	go	0.415	Go_X	1.0
368.893	1.0	go	0.29	Go_O	1.0
371.417	1.0	go	0.536	Go_X	0.0
373.941	1.0	go	0.343	Go_O	1.0
376.466	0.35	stopfail	0.506	Go_O	0.0
378.99	1.0	go	0.37	Go_X	1.0
381.514	1.0	go	0.418	Go_O	1.0
384.038	1.0	go	0.414	Go_X	1.0
386.562	1.0	go	0.709	Go_O	1.0
389.087	1.0	go	0.362	Go_O	1.0
391.611	0.3	stopfail	0.375	Go_X	0.0
394.135	1.0	go	0.413	Go_X	1.0
396.659	1.0	go	0.41	Go_X	1.0
399.183	1.0	go	0.252	Go_O	1.0
401.708	1.0	go	0.199	Go_X	0.0
404.232	0.25	stopsuccess	0.0	Go_O	1.0
406.756	1.0	go	0.352	Go_O	1.0
409.28	1.0	go	0.31	Go_X	1.0
411.805	0.3	stopfail	0.406	Go_X	0.0
414.329	1.0	go	0.337	Go_O	1.0
416.853	0.25	stopfail	0.38	Go_O	0.0
419.377	1.0	go	0.337	Go_O	1.0
421.901	1.0	go	0.318	Go_X	1.0
424.426	1.0	go	0.344	Go_O	1.0
426.95	1.0	go	0.381	Go_X	1.0
429.474	1.0	go	0.36	Go_X	1.0
431.998	1.0	go	0.333	Go_O	1.0
434.522	1.0	go	0.376	Go_O	1.0
437.047	0.2	stopsuccess	0.0	Go_X	1.0
439.571	1.0	go	0.474	Go_X	1.0
442.095	1.0	go	0.294	Go_O	1.0
444.619	1.0	go	0.319	Go_X	1.0
447.143	0.25	stopfail	0.365	Go_O	0.0
449.668	1.0	go	0.479	Go_X	1.0
452.192	1.0	go	0.511	Go_O	0.0
454.716	1.0	go	0.385	Go_X	1.0
457.24	1.0	go	0.53	Go_O	1.0
459.764	0.2	stopfail	0.377	Go_X	0.0
462.289	1.0	go	0.295	Go_O	1.0
464.813	1.0	go	0.474	Go_X	1.0
467.337	0.15	stopsuccess	0.0	Go_O	1.0
469.861	1.0	go	0.507	Go_O	0.0
472.385	1.0	go	0.342	Go_X	1.0
474.91	0.2	stopsuccess	0.0	Go_X	1.0
477.434	1.0	go	0.671	Go_X	0.0
479.958	1.0	go	0.427	Go_O	1.0
482.482	0.25	stopfail	0.401	Go_O	0.0
485.006	1.0	go	0.398	Go_X	1.0
487.531	1.0	go	0.425	Go_O	1.0
490.055	1.0	go	0.461	Go_X	1.0
492.579	1.0	go	0.387	Go_O	1.0
495.103	1.0	go	0.452	Go_X	1.0
497.627	1.0	go	0.464	Go_O	1.0
500.152	0.2	stopsuccess	0.0	Go_X	1.0
502.676	1.0	go	0.395	Go_O	1.0
505.2	0.25	stopsuccess	0.0	Go_O	1.0
507.724	1.0	go	0.342	Go_X	1.0
510.248	1.0	go	0.39	Go_X	1.0
512.773	1.0	go	0.358	Go_O	1.0
515.297	1.0	go	0.462	Go_O	1.0
517.821	1.0	go	0.373	Go_X	1.0
520.345	0.3	stopfail	0.307	Go_X	0.0
522.869	1.0	go	0.345	Go_O	1.0
525.394	1.0	go	0.368	Go_X	1.0
527.918	1.0	go	0.468	Go_O	1.0
530.442	0.25	stopsuccess	0.0	Go_O	1.0
532.966	0.3	stopfail	0.308	Go_X	0.0
535.49	0.25	stopfail	0.375	Go_O	0.0
538.015	1.0	go	0.485	Go_X	1.0
540.539	0.2	stopsuccess	0.0	Go_X	1.0
543.063	1.0	go	0.369	Go_O	1.0
545.587	1.0	go	0.489	Go_X	1.0
548.111	1.0	go	0.398	Go_O	1.0
550.636	1.0	go	0.457	Go_X	1.0
553.16	1.0	go	0.605	Go_X	1.0
555.684	1.0	go	0.236	Go_O	1.0
558.208	1.0	go	0.422	Go_O	1.0
560.732	1.0	go	0.545	Go_X	1.0
563.257	0.25	stopsuccess	0.0	Go_O	1.0
565.781	1.0	go	0.608	Go_O	1.0
568.305	1.0	go	0.0	Go_X	0.0
570.829	0.3	stopfail	0.566	Go_X	0.0
573.354	1.0	go	0.525	Go_X	1.0
575.878	1.0	go	0.603	Go_O	1.0
578.402	1.0	go	0.42	Go_O	0.0
580.926	1.0	go	0.416	Go_X	1.0
583.45	1.0	go	0.399	Go_X	1.0
585.975	0.25	stopfail	0.349	Go_O	0.0
588.499	1.0	go	0.45	Go_O	1.0
591.023	1.0	go	0.387	Go_O	1.0
593.547	1.0	go	0.48	Go_X	1.0
596.071	0.2	stopsuccess	0.0	Go_X	1.0
598.596	1.0	go	0.467	Go_X	1.0
601.12	0.25	stopfail	0.374	Go_O	0.0
603.644	1.0	go	0.282	Go_O	1.0
606.168	1.0	go	0.322	Go_O	1.0
608.692	1.0	go	0.424	Go_X	1.0
611.217	1.0	go	0.398	Go_X	1.0
613.741	1.0	go	0.415	Go_O	1.0
616.265	1.0	go	0.347	Go_X	1.0
618.789	1.0	go	0.326	Go_O	1.0
621.313	0.2	stopfail	0.305	Go_X	0.0
623.838	1.0	go	0.555	Go_O	1.0
626.362	1.0	go	0.332	Go_X	1.0
628.886	1.0	go	0.709	Go_O	1.0
631.41	1.0	go	0.431	Go_X	1.0
633.934	0.15	stopfail	0.39	Go_O	0.0
636.459	1.0	go	0.607	Go_X	1.0
638.983	0.1	stopsuccess	0.0	Go_X	1.0
641.507	1.0	go	0.286	Go_O	1.0
644.031	1.0	go	0.418	Go_X	1.0
646.555	0.15	stopsuccess	0.0	Go_O	1.0
649.08	1.0	go	0.359	Go_O	1.0
651.604	1.0	go	0.504	Go_X	1.0
654.128	1.0	go	0.301	Go_O	1.0
656.652	1.0	go	0.347	Go_O	1.0
659.176	1.0	go	0.603	Go_X	1.0
661.701	1.0	go	0.57	Go_X	1.0
664.225	1.0	go	0.442	Go_O	1.0
666.749	1.0	go	0.67	Go_X	1.0
669.273	1.0	go	0.529	Go_O	1.0
671.797	1.0	go	0.559	Go_O	1.0
674.322	0.2	stopsuccess	0.0	Go_X	1.0
676.846	1.0	go	0.49	Go_X	0.0
679.37	1.0	go	0.465	Go_O	1.0
681.894	0.25	stopsuccess	0.0	Go_O	1.0
684.418	1.0	go	0.702	Go_X	1.0
686.943	0.3	stopfail	0.442	Go_X	0.0
689.467	1.0	go	0.379	Go_O	1.0
691.991	1.0	go	0.461	Go_X	1.0
694.515	0.25	stopfail	0.541	Go_O	0.0
697.039	1.0	go	0.502	Go_X	1.0
699.564	0.2	stopsuccess	0.0	Go_X	1.0
702.088	1.0	go	0.295	Go_O	1.0
704.612	1.0	go	0.548	Go_O	0.0
707.136	1.0	go	0.34	Go_X	1.0
709.66	0.25	stopsuccess	0.0	Go_O	1.0
712.185	1.0	go	0.838	Go_O	1.0
714.709	1.0	go	0.465	Go_X	1.0
717.233	1.0	go	0.465	Go_X	1.0
719.757	1.0	go	0.555	Go_O	1.0
722.281	0.3	stopfail	0.576	Go_X	0.0
724.806	1.0	go	0.384	Go_X	1.0
727.33	1.0	go	0.457	Go_O	1.0
729.854	0.25	stopfail	0.378	Go_O	0.0
732.378	1.0	go	0.449	Go_O	1.0
734.903	1.0	go	0.41	Go_X	1.0
737.427	1.0	go	0.469	Go_O	1.0
739.951	1.0	go	0.304	Go_X	1.0
742.475	0.2	stopsuccess	0.0	Go_X	1.0
744.999	1.0	go	0.447	Go_X	1.0
747.524	0.25	stopfail	0.495	Go_O	0.0
750.048	1.0	go	0.405	Go_O	1.0
752.572	1.0	go	0.293	Go_X	1.0
755.096	0.2	stopsuccess	0.0	Go_X	1.0
757.62	1.0	go	0.329	Go_O	1.0
760.145	1.0	go	0.508	Go_X	1.0
762.669	1.0	go	0.403	Go_O	1.0
765.193	1.0	go	0.474	Go_X	1.0
767.717	0.25	stopfail	0.229	Go_O	0.0
770.241	1.0	go	0.521	Go_O	1.0
772.766	0.2	stopsuccess	0.0	Go_X	1.0
775.29	1.0	go	0.634	Go_O	1.0
777.814	1.0	go	0.707	Go_X	1.0
780.338	1.0	go	0.408	Go_O	1.0
782.862	1.0	go	0.785	Go_X	1.0
785.387	1.0	go	0.0	Go_O	0.0
787.911	1.0	go	0.392	Go_X	1.0
790.435	0.25	stopfail	0.343	Go_O	0.0
792.959	1.0	go	0.402	Go_X	1.0
795.483	1.0	go	0.37	Go_O	1.0
798.008	0.2	stopfail	0.346	Go_X	0.0
800.532	1.0	go	0.489	Go_X	1.0
803.056	1.0	go	0.644	Go_O	1.0
805.58	0.15	stopsuccess	0.0	Go_O	1.0
808.104	1.0	go	0.472	Go_O	0.0
810.629	1.0	go	0.482	Go_X	0.0
813.153	1.0	go	0.326	Go_O	1.0
815.677	1.0	go	0.428	Go_X	1.0
818.201	0.2	stopsuccess	0.0	Go_X	1.0
820.725	1.0	go	0.466	Go_X	1.0
823.25	0.25	stopfail	0.392	Go_O	0.0
825.774	1.0	go	0.536	Go_O	1.0
828.298	1.0	go	0.291	Go_X	1.0
830.822	1.0	go	0.336	Go_O	1.0
833.346	1.0	go	0.525	Go_X	1.0
835.871	1.0	go	0.504	Go_O	1.0
838.395	0.2	stopsuccess	0.0	Go_X	1.0
840.919	1.0	go	0.862	Go_O	1.0
843.443	1.0	go	0.511	Go_X	1.0
845.967	0.25	stopsuccess	0.0	Go_O	1.0
848.492	0.3	stopfail	0.427	Go_X	0.0
851.016	1.0	go	0.474	Go_X	1.0
853.54	1.0	go	0.389	Go_O	1.0
856.064	1.0	go	0.364	Go_O	0.0
858.588	1.0	go	0.444	Go_X	1.0
861.113	0.25	stopfail	0.299	Go_O	0.0
863.637	1.0	go	0.566	Go_O	1.0
