onset	duration	trial_type	response_time	stim_file	accuracy
92.741	1.0	go	0.752	Go_X	1.0
95.315	1.0	go	0.389	Go_O	1.0
97.84	1.0	go	0.359	Go_X	1.0
100.364	1.0	go	0.421	Go_O	1.0
102.888	1.0	go	0.428	Go_X	1.0
105.412	1.0	go	0.522	Go_O	1.0
107.936	0.25	stopsuccess	0.0	Go_O	1.0
110.461	1.0	go	0.391	Go_X	1.0
112.985	0.3	stopfail	0.417	Go_X	0.0
115.509	1.0	go	0.54	Go_O	1.0
118.033	1.0	go	0.422	Go_X	1.0
120.557	1.0	go	0.44	Go_O	1.0
123.082	0.25	stopsuccess	0.0	Go_O	1.0
125.606	1.0	go	0.314	Go_X	1.0
128.13	1.0	go	0.373	Go_O	1.0
130.654	0.3	stopsuccess	0.0	Go_X	1.0
133.179	0.35	stopfail	0.387	Go_O	0.0
135.703	1.0	go	0.582	Go_X	1.0
138.227	1.0	go	0.324	Go_O	1.0
140.751	0.3	stopsuccess	0.0	Go_X	1.0
143.275	1.0	go	0.553	Go_X	1.0
145.8	1.0	go	0.411	Go_O	1.0
148.324	0.35	stopsuccess	0.0	Go_O	1.0
150.848	1.0	go	0.398	Go_O	1.0
153.372	1.0	go	0.336	Go_X	1.0
155.896	0.4	stopsuccess	0.0	Go_X	1.0
158.421	1.0	go	0.527	Go_X	1.0
160.945	1.0	go	0.32	Go_O	1.0
163.469	0.45	stopfail	0.659	Go_O	0.0
165.993	1.0	go	0.541	Go_O	1.0
168.518	1.0	go	0.394	Go_X	1.0
171.042	1.0	go	0.778	Go_X	1.0
173.566	1.0	go	0.697	Go_O	1.0
176.09	1.0	go	0.422	Go_O	1.0
178.614	0.4	stopfail	0.435	Go_X	0.0
181.139	1.0	go	0.501	Go_X	1.0
183.663	1.0	go	0.359	Go_O	1.0
186.187	1.0	go	0.456	Go_X	1.0
188.711	1.0	go	0.62	Go_O	1.0
191.235	1.0	go	0.764	Go_X	1.0
193.76	0.35	stopfail	0.542	Go_O	0.0
196.284	1.0	go	0.376	Go_X	1.0
198.808	1.0	go	0.427	Go_O	1.0
201.332	1.0	go	0.453	Go_O	1.0
203.857	1.0	go	0.515	Go_X	1.0
206.381	1.0	go	0.347	Go_O	1.0
208.905	1.0	go	0.252	Go_X	1.0
211.429	0.3	stopfail	0.427	Go_X	0.0
213.953	1.0	go	0.352	Go_X	0.0
216.478	1.0	go	0.448	Go_O	1.0
219.002	0.25	stopsuccess	0.0	Go_O	1.0
221.526	1.0	go	0.609	Go_O	1.0
224.05	0.3	stopsuccess	0.0	Go_X	1.0
226.574	0.35	stopsuccess	0.0	Go_O	1.0
229.099	1.0	go	0.455	Go_X	0.0
231.623	1.0	go	0.341	Go_O	1.0
234.147	1.0	go	0.584	Go_X	1.0
236.671	1.0	go	0.594	Go_O	1.0
239.196	0.4	stopfail	0.545	Go_X	0.0
241.72	1.0	go	0.596	Go_X	1.0
244.244	0.35	stopfail	0.369	Go_O	0.0
246.768	1.0	go	0.402	Go_O	1.0
249.292	1.0	go	0.498	Go_X	1.0
251.817	1.0	go	0.481	Go_X	1.0
254.341	1.0	go	0.44	Go_O	1.0
256.865	1.0	go	0.449	Go_X	1.0
259.389	1.0	go	0.432	Go_O	1.0
261.913	1.0	go	0.479	Go_X	1.0
264.438	1.0	go	0.564	Go_O	1.0
266.962	1.0	go	0.481	Go_O	1.0
269.486	0.3	stopsuccess	0.0	Go_X	1.0
272.01	1.0	go	0.362	Go_X	1.0
274.535	1.0	go	0.411	Go_O	1.0
277.059	1.0	go	0.573	Go_X	1.0
279.583	0.35	stopfail	0.423	Go_O	0.0
282.107	1.0	go	0.457	Go_O	1.0
284.631	1.0	go	0.353	Go_X	1.0
287.156	1.0	go	0.589	Go_O	1.0
289.68	1.0	go	0.411	Go_X	1.0
292.204	1.0	go	0.451	Go_X	1.0
294.728	1.0	go	0.436	Go_O	1.0
297.252	0.3	stopsuccess	0.0	Go_X	1.0
299.777	1.0	go	0.414	Go_O	1.0
302.301	1.0	go	0.373	Go_X	1.0
304.825	0.35	stopsuccess	0.0	Go_O	1.0
307.349	1.0	go	0.517	Go_O	1.0
309.874	1.0	go	0.749	Go_X	1.0
312.398	0.4	stopfail	0.459	Go_X	0.0
314.922	1.0	go	0.399	Go_O	1.0
317.446	0.35	stopfail	0.412	Go_O	0.0
319.97	1.0	go	0.563	Go_X	1.0
322.495	1.0	go	0.603	Go_O	1.0
325.019	1.0	go	0.443	Go_X	1.0
327.543	1.0	go	0.341	Go_O	1.0
330.067	1.0	go	0.601	Go_X	1.0
332.591	0.3	stopsuccess	0.0	Go_X	1.0
335.116	0.35	stopfail	0.413	Go_O	0.0
337.64	1.0	go	0.519	Go_O	1.0
340.164	1.0	go	0.441	Go_X	1.0
342.688	0.3	stopsuccess	0.0	Go_X	1.0
345.213	1.0	go	0.46	Go_X	1.0
347.737	1.0	go	0.54	Go_O	1.0
350.261	1.0	go	0.887	Go_X	1.0
352.785	1.0	go	0.507	Go_O	1.0
355.309	1.0	go	0.443	Go_O	1.0
357.834	1.0	go	0.469	Go_X	1.0
360.358	0.35	stopfail	0.551	Go_O	0.0
362.882	1.0	go	0.656	Go_O	1.0
365.406	1.0	go	0.512	Go_X	1.0
367.93	1.0	go	0.56	Go_O	1.0
370.455	1.0	go	0.752	Go_X	1.0
372.979	1.0	go	0.439	Go_O	1.0
375.503	0.3	stopsuccess	0.0	Go_X	1.0
378.027	1.0	go	0.557	Go_X	0.0
380.552	1.0	go	0.493	Go_X	1.0
383.076	1.0	go	0.488	Go_O	1.0
385.6	1.0	go	0.441	Go_X	1.0
388.124	0.35	stopfail	0.418	Go_O	0.0
390.648	1.0	go	0.507	Go_O	1.0
393.173	1.0	go	0.599	Go_X	1.0
395.697	0.3	stopsuccess	0.0	Go_X	1.0
398.221	1.0	go	0.507	Go_O	1.0
400.745	0.35	stopfail	0.463	Go_O	0.0
403.269	1.0	go	0.521	Go_X	1.0
405.794	1.0	go	0.823	Go_O	1.0
408.318	1.0	go	0.403	Go_O	1.0
410.842	1.0	go	0.457	Go_X	1.0
413.366	1.0	go	0.454	Go_X	1.0
415.891	1.0	go	0.671	Go_O	1.0
418.415	1.0	go	0.565	Go_O	1.0
420.939	0.3	stopsuccess	0.0	Go_X	1.0
423.463	1.0	go	0.637	Go_X	0.0
425.987	1.0	go	0.496	Go_X	1.0
428.512	1.0	go	0.47	Go_O	1.0
431.036	0.35	stopfail	0.436	Go_O	0.0
433.56	1.0	go	0.688	Go_O	1.0
436.084	1.0	go	0.455	Go_X	1.0
438.608	1.0	go	0.339	Go_X	0.0
441.133	1.0	go	0.607	Go_O	0.0
443.657	0.3	stopfail	0.318	Go_X	0.0
446.181	1.0	go	0.458	Go_X	1.0
448.705	1.0	go	0.331	Go_O	1.0
451.23	0.25	stopfail	0.419	Go_O	0.0
453.754	1.0	go	0.456	Go_O	1.0
456.278	1.0	go	0.473	Go_X	1.0
458.802	0.2	stopsuccess	0.0	Go_X	1.0
461.326	1.0	go	0.555	Go_X	1.0
463.851	1.0	go	0.492	Go_O	1.0
466.375	0.25	stopfail	0.37	Go_O	0.0
468.899	1.0	go	0.568	Go_X	1.0
471.423	1.0	go	0.514	Go_O	1.0
473.947	1.0	go	0.478	Go_X	1.0
476.472	1.0	go	0.426	Go_O	1.0
478.996	1.0	go	0.343	Go_O	1.0
481.52	1.0	go	0.673	Go_X	1.0
484.044	0.2	stopsuccess	0.0	Go_X	1.0
486.568	1.0	go	0.575	Go_O	1.0
489.093	0.25	stopsuccess	0.0	Go_O	1.0
491.617	1.0	go	0.49	Go_X	1.0
494.141	1.0	go	0.708	Go_X	1.0
496.665	1.0	go	0.738	Go_O	1.0
499.19	1.0	go	0.589	Go_O	1.0
501.714	1.0	go	0.533	Go_X	1.0
504.238	0.3	stopfail	0.527	Go_X	0.0
506.762	1.0	go	0.532	Go_O	1.0
509.286	1.0	go	0.549	Go_X	1.0
511.811	1.0	go	0.563	Go_X	1.0
514.335	0.25	stopfail	0.569	Go_O	0.0
516.859	0.2	stopfail	0.383	Go_X	0.0
519.383	0.15	stopsuccess	0.0	Go_O	1.0
521.907	1.0	go	0.653	Go_O	1.0
524.432	0.2	stopsuccess	0.0	Go_X	1.0
526.956	1.0	go	0.417	Go_O	1.0
529.48	1.0	go	0.543	Go_X	1.0
532.004	1.0	go	0.511	Go_X	1.0
534.529	1.0	go	0.522	Go_O	1.0
537.053	1.0	go	0.394	Go_O	1.0
539.577	1.0	go	0.536	Go_X	1.0
542.101	1.0	go	0.443	Go_O	1.0
544.625	1.0	go	0.333	Go_X	1.0
547.15	0.25	stopfail	0.39	Go_O	0.0
549.674	1.0	go	0.604	Go_X	1.0
552.198	1.0	go	0.467	Go_O	1.0
554.722	0.2	stopsuccess	0.0	Go_X	1.0
557.246	1.0	go	0.594	Go_X	1.0
559.771	1.0	go	0.628	Go_O	1.0
562.295	1.0	go	0.447	Go_O	1.0
564.819	1.0	go	0.446	Go_X	1.0
567.343	1.0	go	0.416	Go_X	1.0
569.868	0.25	stopsuccess	0.0	Go_O	1.0
572.392	1.0	go	0.508	Go_O	1.0
574.916	1.0	go	0.555	Go_X	1.0
577.44	1.0	go	0.592	Go_O	1.0
579.964	0.3	stopsuccess	0.0	Go_X	1.0
582.489	1.0	go	0.392	Go_X	1.0
585.013	0.35	stopsuccess	0.0	Go_O	1.0
587.537	1.0	go	0.483	Go_O	1.0
590.061	1.0	go	0.576	Go_X	1.0
592.585	1.0	go	0.738	Go_O	1.0
595.11	1.0	go	0.517	Go_O	1.0
597.634	1.0	go	0.611	Go_X	1.0
600.158	1.0	go	0.538	Go_X	1.0
602.682	1.0	go	0.572	Go_O	1.0
605.207	0.4	stopfail	0.435	Go_X	0.0
607.731	1.0	go	0.669	Go_O	1.0
610.255	1.0	go	0.826	Go_X	1.0
612.779	1.0	go	0.526	Go_X	1.0
615.303	1.0	go	0.544	Go_O	1.0
617.828	0.35	stopsuccess	0.0	Go_O	1.0
620.352	1.0	go	0.514	Go_X	1.0
622.876	0.4	stopfail	0.484	Go_X	0.0
625.4	1.0	go	0.451	Go_O	1.0
627.924	1.0	go	0.635	Go_X	0.0
630.449	0.35	stopfail	0.463	Go_O	0.0
632.99	1.0	go	0.557	Go_O	1.0
635.514	1.0	go	0.439	Go_O	1.0
638.038	1.0	go	0.394	Go_X	1.0
640.562	1.0	go	0.478	Go_O	1.0
643.086	1.0	go	0.561	Go_X	1.0
645.611	1.0	go	0.47	Go_O	1.0
648.135	1.0	go	0.724	Go_X	1.0
650.659	1.0	go	0.553	Go_O	1.0
653.2	1.0	go	0.545	Go_X	1.0
655.724	1.0	go	0.43	Go_O	1.0
658.248	0.3	stopfail	0.378	Go_X	0.0
660.773	1.0	go	0.549	Go_X	1.0
663.297	1.0	go	0.492	Go_O	1.0
665.821	0.25	stopsuccess	0.0	Go_O	1.0
668.345	1.0	go	0.464	Go_X	1.0
670.87	0.3	stopsuccess	0.0	Go_X	1.0
673.41	1.0	go	0.477	Go_O	1.0
675.935	1.0	go	0.64	Go_X	1.0
678.459	0.35	stopsuccess	0.0	Go_O	1.0
680.983	1.0	go	0.723	Go_X	1.0
683.524	0.4	stopfail	0.491	Go_X	0.0
686.048	1.0	go	0.411	Go_O	1.0
688.572	1.0	go	0.418	Go_O	1.0
691.097	1.0	go	0.431	Go_X	1.0
693.621	0.35	stopfail	0.409	Go_O	0.0
696.162	1.0	go	0.495	Go_O	1.0
698.686	1.0	go	0.409	Go_X	1.0
701.21	1.0	go	0.441	Go_X	0.0
703.734	1.0	go	0.471	Go_O	1.0
706.259	0.3	stopfail	0.353	Go_X	0.0
708.783	1.0	go	0.477	Go_O	1.0
711.307	1.0	go	0.434	Go_X	1.0
713.831	0.25	stopsuccess	0.0	Go_O	1.0
716.356	1.0	go	0.442	Go_X	1.0
718.88	1.0	go	0.391	Go_O	1.0
721.404	1.0	go	0.625	Go_O	1.0
723.928	1.0	go	0.676	Go_X	1.0
726.452	0.3	stopsuccess	0.0	Go_X	1.0
728.977	1.0	go	0.484	Go_O	1.0
731.501	0.35	stopfail	0.499	Go_O	0.0
734.025	1.0	go	0.72	Go_X	1.0
736.549	1.0	go	0.642	Go_X	1.0
739.073	0.3	stopsuccess	0.0	Go_X	1.0
741.598	1.0	go	0.483	Go_O	1.0
744.122	1.0	go	0.613	Go_X	1.0
746.646	1.0	go	0.636	Go_O	1.0
749.17	1.0	go	0.62	Go_X	1.0
751.695	0.35	stopsuccess	0.0	Go_O	1.0
754.219	1.0	go	0.498	Go_O	1.0
756.743	0.4	stopfail	0.443	Go_X	0.0
759.267	1.0	go	0.559	Go_O	1.0
761.791	1.0	go	0.579	Go_X	1.0
764.316	1.0	go	0.622	Go_X	1.0
766.84	1.0	go	0.819	Go_O	1.0
769.364	1.0	go	0.513	Go_O	1.0
771.888	1.0	go	0.561	Go_X	1.0
774.412	0.35	stopsuccess	0.0	Go_O	1.0
776.937	1.0	go	0.481	Go_X	1.0
779.461	1.0	go	0.685	Go_O	1.0
781.985	0.4	stopfail	0.509	Go_X	0.0
784.509	1.0	go	0.485	Go_O	1.0
787.034	1.0	go	0.427	Go_X	1.0
789.558	0.35	stopfail	0.36	Go_O	0.0
792.082	1.0	go	0.636	Go_O	1.0
794.606	1.0	go	0.575	Go_X	1.0
797.13	1.0	go	0.659	Go_X	1.0
799.655	1.0	go	0.421	Go_O	1.0
802.179	0.3	stopsuccess	0.0	Go_X	1.0
804.703	1.0	go	0.717	Go_X	1.0
807.227	0.35	stopsuccess	0.0	Go_O	1.0
809.751	1.0	go	0.421	Go_O	1.0
812.276	1.0	go	0.435	Go_O	1.0
814.8	1.0	go	0.565	Go_X	1.0
817.324	1.0	go	0.442	Go_O	1.0
819.848	1.0	go	0.408	Go_X	1.0
822.373	0.4	stopfail	0.691	Go_X	0.0
824.897	1.0	go	0.553	Go_X	1.0
827.421	1.0	go	0.438	Go_O	1.0
829.945	0.35	stopfail	0.49	Go_O	0.0
832.469	0.3	stopsuccess	0.0	Go_X	1.0
834.994	1.0	go	0.676	Go_O	1.0
837.518	1.0	go	0.575	Go_X	1.0
840.042	1.0	go	0.92	Go_O	1.0
842.566	1.0	go	0.578	Go_X	1.0
845.09	0.35	stopfail	0.531	Go_O	0.0
847.615	1.0	go	0.54	Go_X	1.0
