onset	duration	trial_type	response_time	stim_file	accuracy
73.727	1.0	go	0.664	Go_X	0.0
76.261	1.0	go	0.392	Go_O	0.0
78.81	1.0	go	0.0	Go_X	0.0
81.344	1.0	go	0.282	Go_O	0.0
83.877	1.0	go	0.391	Go_X	0.0
86.41	1.0	go	0.363	Go_O	0.0
88.943	0.25	stopfail	0.256	Go_O	0.0
91.477	1.0	go	0.251	Go_O	0.0
94.01	0.2	stopfail	0.271	Go_X	0.0
96.543	1.0	go	0.538	Go_X	0.0
99.076	1.0	go	0.307	Go_X	1.0
101.61	1.0	go	0.302	Go_O	1.0
104.159	0.15	stopsuccess	0.0	Go_O	1.0
106.693	1.0	go	0.539	Go_O	0.0
109.226	1.0	go	0.0	Go_X	0.0
111.759	0.2	stopsuccess	0.0	Go_X	1.0
114.292	0.25	stopfail	0.27	Go_O	0.0
116.826	1.0	go	0.403	Go_O	1.0
119.359	1.0	go	0.359	Go_X	0.0
121.892	0.2	stopsuccess	0.0	Go_X	1.0
124.425	1.0	go	0.328	Go_O	1.0
126.958	1.0	go	0.621	Go_X	1.0
129.492	0.25	stopfail	0.334	Go_O	0.0
132.025	1.0	go	0.336	Go_X	0.0
134.558	1.0	go	0.325	Go_O	0.0
137.091	0.2	stopfail	0.295	Go_X	0.0
139.625	1.0	go	0.384	Go_O	1.0
142.158	1.0	go	0.495	Go_X	0.0
144.691	0.15	stopfail	0.307	Go_O	0.0
147.224	1.0	go	0.302	Go_X	0.0
149.758	1.0	go	0.299	Go_O	0.0
152.291	1.0	go	0.241	Go_O	1.0
154.824	1.0	go	0.259	Go_X	1.0
157.357	1.0	go	0.284	Go_O	1.0
159.891	0.1	stopsuccess	0.0	Go_X	1.0
162.44	1.0	go	0.449	Go_X	1.0
164.974	1.0	go	0.49	Go_O	1.0
167.507	1.0	go	0.582	Go_X	1.0
170.04	1.0	go	0.417	Go_O	1.0
172.573	1.0	go	0.369	Go_X	1.0
175.107	0.15	stopfail	0.277	Go_O	0.0
177.64	1.0	go	0.482	Go_X	1.0
180.173	1.0	go	0.399	Go_O	1.0
182.706	1.0	go	0.0	Go_X	0.0
185.24	1.0	go	0.331	Go_O	0.0
187.789	1.0	go	0.444	Go_O	1.0
190.323	1.0	go	0.314	Go_X	1.0
192.856	0.1	stopsuccess	0.0	Go_X	1.0
195.389	1.0	go	0.309	Go_X	0.0
197.922	1.0	go	0.324	Go_O	0.0
200.456	0.15	stopsuccess	0.0	Go_O	1.0
202.989	1.0	go	0.415	Go_O	1.0
205.522	0.2	stopfail	0.277	Go_X	0.0
208.055	0.15	stopsuccess	0.0	Go_O	1.0
210.588	1.0	go	0.87	Go_X	1.0
213.122	1.0	go	0.0	Go_X	0.0
215.655	1.0	go	0.0	Go_O	0.0
218.188	1.0	go	0.447	Go_O	0.0
220.721	0.2	stopsuccess	0.0	Go_X	1.0
223.255	1.0	go	0.301	Go_X	0.0
225.788	0.25	stopfail	0.419	Go_O	0.0
228.321	1.0	go	0.656	Go_O	0.0
230.854	1.0	go	0.406	Go_X	0.0
233.388	1.0	go	0.408	Go_O	0.0
235.921	1.0	go	0.348	Go_X	0.0
238.454	1.0	go	0.359	Go_X	1.0
240.987	1.0	go	0.539	Go_O	0.0
243.521	1.0	go	0.266	Go_X	0.0
246.07	1.0	go	0.289	Go_O	0.0
248.604	1.0	go	0.475	Go_O	1.0
251.137	0.2	stopfail	0.374	Go_X	0.0
253.67	1.0	go	0.691	Go_X	0.0
256.203	1.0	go	0.554	Go_X	0.0
258.737	1.0	go	0.433	Go_O	0.0
261.27	0.15	stopfail	0.212	Go_O	0.0
263.803	1.0	go	0.315	Go_X	0.0
266.336	1.0	go	0.485	Go_O	0.0
268.869	1.0	go	0.459	Go_O	1.0
271.403	1.0	go	0.501	Go_X	0.0
273.936	1.0	go	0.695	Go_X	0.0
276.469	1.0	go	0.392	Go_O	0.0
279.002	0.1	stopsuccess	0.0	Go_X	1.0
281.536	1.0	go	0.428	Go_O	1.0
284.069	1.0	go	0.718	Go_X	1.0
286.602	0.15	stopsuccess	0.0	Go_O	1.0
289.135	1.0	go	0.654	Go_O	1.0
291.669	1.0	go	0.529	Go_X	0.0
294.202	0.2	stopfail	0.36	Go_X	0.0
296.735	1.0	go	0.0	Go_X	0.0
299.268	0.15	stopsuccess	0.0	Go_O	1.0
301.802	1.0	go	0.353	Go_O	1.0
304.351	1.0	go	0.375	Go_X	1.0
306.885	1.0	go	0.428	Go_O	1.0
309.418	1.0	go	0.453	Go_O	0.0
311.951	1.0	go	0.346	Go_X	0.0
314.484	0.2	stopsuccess	0.0	Go_X	1.0
317.018	0.25	stopsuccess	0.0	Go_O	1.0
319.551	1.0	go	0.341	Go_O	0.0
322.084	1.0	go	0.35	Go_X	0.0
324.617	0.3	stopfail	0.376	Go_X	0.0
327.151	1.0	go	0.581	Go_X	1.0
329.7	1.0	go	0.813	Go_O	0.0
332.234	1.0	go	0.332	Go_X	0.0
334.767	1.0	go	0.797	Go_O	1.0
337.3	1.0	go	0.767	Go_X	1.0
339.833	1.0	go	0.543	Go_O	0.0
342.367	0.25	stopsuccess	0.0	Go_O	1.0
344.9	1.0	go	0.505	Go_X	0.0
347.433	1.0	go	0.571	Go_O	0.0
349.966	1.0	go	0.309	Go_O	1.0
352.499	1.0	go	0.599	Go_X	0.0
355.033	1.0	go	0.505	Go_O	0.0
357.566	0.3	stopfail	0.315	Go_X	0.0
360.099	1.0	go	0.561	Go_X	0.0
362.632	1.0	go	0.531	Go_O	0.0
365.166	1.0	go	0.685	Go_X	0.0
367.699	1.0	go	0.563	Go_X	1.0
370.232	0.25	stopfail	0.395	Go_O	0.0
372.765	1.0	go	0.713	Go_O	0.0
375.299	1.0	go	0.731	Go_X	0.0
377.832	0.2	stopsuccess	0.0	Go_X	1.0
380.365	1.0	go	0.371	Go_O	1.0
382.898	0.25	stopsuccess	0.0	Go_O	1.0
385.432	1.0	go	0.419	Go_X	0.0
387.981	1.0	go	0.631	Go_O	0.0
390.515	1.0	go	0.502	Go_O	1.0
393.048	1.0	go	0.661	Go_X	0.0
395.581	1.0	go	0.393	Go_O	0.0
398.114	1.0	go	0.724	Go_X	0.0
400.648	1.0	go	0.612	Go_O	0.0
403.181	0.3	stopfail	0.565	Go_X	0.0
405.714	1.0	go	0.529	Go_X	1.0
408.247	1.0	go	0.476	Go_O	0.0
410.78	1.0	go	0.322	Go_X	0.0
413.314	0.25	stopfail	0.335	Go_O	0.0
415.847	1.0	go	0.698	Go_O	0.0
418.38	1.0	go	0.496	Go_X	0.0
420.913	1.0	go	0.277	Go_O	0.0
423.447	1.0	go	0.245	Go_X	0.0
425.98	0.2	stopfail	0.283	Go_X	0.0
428.513	1.0	go	0.389	Go_O	0.0
431.046	1.0	go	0.273	Go_X	0.0
433.58	0.15	stopsuccess	0.0	Go_O	1.0
436.113	1.0	go	0.441	Go_X	0.0
438.646	1.0	go	0.485	Go_O	0.0
441.179	0.2	stopfail	0.361	Go_X	0.0
443.713	1.0	go	0.391	Go_X	0.0
446.262	1.0	go	0.254	Go_O	0.0
448.796	0.15	stopsuccess	0.0	Go_O	1.0
451.329	1.0	go	0.502	Go_O	0.0
453.862	1.0	go	0.252	Go_X	0.0
456.395	1.0	go	0.0	Go_X	0.0
458.929	1.0	go	0.492	Go_O	0.0
461.462	1.0	go	0.798	Go_O	1.0
463.995	1.0	go	0.0	Go_X	0.0
466.528	0.2	stopfail	0.631	Go_X	0.0
469.061	1.0	go	0.517	Go_X	0.0
471.595	0.15	stopsuccess	0.0	Go_O	1.0
474.128	1.0	go	0.325	Go_O	0.0
476.661	1.0	go	0.516	Go_O	0.0
479.194	1.0	go	0.916	Go_X	0.0
481.728	1.0	go	0.72	Go_X	0.0
484.261	1.0	go	0.788	Go_O	0.0
486.794	0.2	stopsuccess	0.0	Go_X	1.0
489.327	1.0	go	0.847	Go_X	0.0
491.861	1.0	go	0.556	Go_O	0.0
494.394	1.0	go	0.493	Go_X	1.0
496.927	0.25	stopfail	0.347	Go_O	0.0
499.46	0.2	stopfail	0.29	Go_X	0.0
501.994	0.15	stopsuccess	0.0	Go_O	1.0
504.543	1.0	go	0.521	Go_O	0.0
507.077	0.2	stopsuccess	0.0	Go_X	1.0
509.61	1.0	go	0.593	Go_X	0.0
512.143	1.0	go	0.531	Go_O	0.0
514.676	1.0	go	0.29	Go_O	1.0
517.21	1.0	go	0.49	Go_X	0.0
519.743	1.0	go	0.491	Go_O	0.0
522.276	1.0	go	0.492	Go_X	0.0
524.809	1.0	go	0.522	Go_X	1.0
527.343	1.0	go	0.826	Go_O	0.0
529.892	0.25	stopfail	0.319	Go_O	0.0
532.426	1.0	go	0.593	Go_O	0.0
534.959	1.0	go	0.289	Go_X	0.0
537.492	0.2	stopsuccess	0.0	Go_X	1.0
540.025	1.0	go	0.638	Go_O	0.0
542.559	1.0	go	0.0	Go_X	0.0
545.092	1.0	go	0.0	Go_O	0.0
547.625	1.0	go	0.905	Go_X	0.0
550.158	1.0	go	0.679	Go_O	0.0
552.691	0.25	stopsuccess	0.0	Go_O	1.0
555.225	1.0	go	0.433	Go_X	0.0
557.758	1.0	go	0.414	Go_O	0.0
560.291	1.0	go	0.36	Go_X	0.0
562.824	0.3	stopfail	0.283	Go_X	0.0
565.358	1.0	go	0.635	Go_O	0.0
567.891	0.25	stopfail	0.37	Go_O	0.0
570.424	1.0	go	0.449	Go_X	0.0
572.957	1.0	go	0.556	Go_X	0.0
575.491	1.0	go	0.448	Go_O	0.0
578.024	1.0	go	0.704	Go_X	0.0
580.557	1.0	go	0.361	Go_O	0.0
583.09	1.0	go	0.51	Go_X	0.0
585.624	1.0	go	0.281	Go_O	0.0
588.173	0.2	stopsuccess	0.0	Go_X	1.0
590.707	1.0	go	0.537	Go_X	0.0
593.24	1.0	go	0.4	Go_O	0.0
595.773	1.0	go	0.7	Go_X	0.0
598.306	1.0	go	0.407	Go_O	0.0
600.84	0.25	stopfail	0.293	Go_O	0.0
603.373	1.0	go	0.518	Go_O	0.0
605.906	0.2	stopsuccess	0.0	Go_X	1.0
608.439	1.0	go	0.754	Go_X	1.0
610.972	1.0	go	0.712	Go_X	0.0
613.506	0.25	stopsuccess	0.0	Go_O	1.0
616.039	1.0	go	0.397	Go_O	0.0
618.572	1.0	go	0.475	Go_X	0.0
621.105	1.0	go	0.446	Go_O	0.0
623.639	1.0	go	0.492	Go_O	1.0
626.172	1.0	go	0.568	Go_X	1.0
628.705	1.0	go	0.503	Go_O	0.0
631.238	1.0	go	0.674	Go_X	0.0
633.772	1.0	go	0.534	Go_X	0.0
636.305	1.0	go	0.423	Go_O	0.0
638.838	1.0	go	0.321	Go_X	0.0
641.371	0.3	stopfail	0.525	Go_X	0.0
643.905	1.0	go	0.483	Go_O	0.0
646.454	1.0	go	0.0	Go_X	0.0
648.988	0.25	stopfail	0.453	Go_O	0.0
651.521	1.0	go	0.454	Go_O	0.0
654.054	0.2	stopfail	0.434	Go_X	0.0
656.587	1.0	go	0.721	Go_X	0.0
659.121	1.0	go	0.551	Go_O	0.0
661.654	0.15	stopsuccess	0.0	Go_O	1.0
664.187	1.0	go	0.521	Go_X	0.0
666.72	0.2	stopsuccess	0.0	Go_X	1.0
669.253	1.0	go	0.835	Go_O	0.0
671.787	1.0	go	0.394	Go_O	1.0
674.32	1.0	go	0.347	Go_X	0.0
676.853	0.25	stopsuccess	0.0	Go_O	1.0
679.386	1.0	go	0.489	Go_O	1.0
681.92	1.0	go	0.701	Go_X	0.0
684.453	1.0	go	0.384	Go_O	0.0
686.986	1.0	go	0.48	Go_X	1.0
689.519	0.3	stopsuccess	0.0	Go_X	1.0
692.053	1.0	go	0.801	Go_X	0.0
694.586	1.0	go	0.39	Go_O	0.0
697.119	0.35	stopsuccess	0.0	Go_O	1.0
699.652	1.0	go	0.514	Go_O	1.0
702.186	1.0	go	0.6	Go_X	1.0
704.735	1.0	go	0.949	Go_O	1.0
707.269	1.0	go	0.0	Go_X	0.0
709.802	0.4	stopfail	0.512	Go_X	0.0
712.335	1.0	go	0.412	Go_O	0.0
714.868	0.35	stopfail	0.503	Go_O	0.0
717.402	1.0	go	0.568	Go_X	0.0
719.935	1.0	go	0.901	Go_O	1.0
722.468	0.3	stopsuccess	0.0	Go_X	1.0
725.001	1.0	go	0.625	Go_X	0.0
727.535	1.0	go	0.601	Go_O	0.0
730.084	1.0	go	0.737	Go_X	0.0
732.618	1.0	go	0.517	Go_X	0.0
735.151	0.35	stopfail	0.636	Go_O	0.0
737.684	1.0	go	0.857	Go_O	1.0
740.217	0.3	stopsuccess	0.0	Go_X	1.0
742.751	1.0	go	0.762	Go_X	0.0
745.284	1.0	go	0.688	Go_O	1.0
747.817	1.0	go	0.0	Go_X	0.0
750.35	1.0	go	0.759	Go_O	0.0
752.884	1.0	go	0.413	Go_X	0.0
755.433	1.0	go	0.595	Go_O	0.0
757.967	0.35	stopsuccess	0.0	Go_O	1.0
760.5	1.0	go	0.479	Go_O	0.0
763.033	1.0	go	0.329	Go_X	0.0
765.566	0.4	stopfail	0.625	Go_X	0.0
768.1	1.0	go	0.491	Go_X	0.0
770.649	1.0	go	0.43	Go_O	0.0
773.183	0.35	stopsuccess	0.0	Go_O	1.0
775.716	1.0	go	0.762	Go_X	0.0
778.249	1.0	go	0.377	Go_O	0.0
780.782	1.0	go	0.0	Go_O	0.0
783.316	1.0	go	0.966	Go_X	0.0
785.849	0.4	stopfail	0.546	Go_X	0.0
788.382	1.0	go	0.414	Go_X	1.0
790.915	0.35	stopfail	0.506	Go_O	0.0
793.449	1.0	go	0.392	Go_O	1.0
795.998	1.0	go	0.596	Go_X	0.0
798.532	1.0	go	0.474	Go_O	0.0
801.065	1.0	go	0.548	Go_X	0.0
803.598	1.0	go	0.532	Go_O	0.0
806.131	0.3	stopfail	0.477	Go_X	0.0
808.665	1.0	go	0.0	Go_X	0.0
811.198	1.0	go	0.716	Go_O	0.0
813.731	0.25	stopsuccess	0.0	Go_O	1.0
816.264	0.3	stopfail	0.37	Go_X	0.0
818.798	1.0	go	0.512	Go_O	0.0
821.347	1.0	go	0.447	Go_X	0.0
823.881	1.0	go	0.668	Go_X	0.0
826.414	1.0	go	0.0	Go_O	0.0
828.947	0.25	stopsuccess	0.0	Go_O	1.0
831.48	1.0	go	0.0	Go_O	0.0
