onset	duration	trial_type	response_time	stim_file	accuracy
94.88	1.0	go	0.724	Go_X	1.0
97.404	1.0	go	0.383	Go_O	1.0
99.928	1.0	go	0.454	Go_O	1.0
102.452	1.0	go	0.615	Go_X	1.0
104.977	1.0	go	0.78	Go_X	1.0
107.501	1.0	go	0.46	Go_O	1.0
110.025	0.25	stopsuccess	0.0	Go_O	1.0
112.549	1.0	go	0.725	Go_O	1.0
115.074	0.3	stopsuccess	0.0	Go_X	1.0
117.598	1.0	go	0.633	Go_X	0.0
120.122	1.0	go	0.78	Go_X	1.0
122.646	1.0	go	0.62	Go_O	1.0
125.17	0.35	stopsuccess	0.0	Go_O	1.0
127.695	1.0	go	0.601	Go_X	1.0
130.219	1.0	go	0.574	Go_O	1.0
132.743	0.4	stopsuccess	0.0	Go_X	1.0
135.267	0.45	stopfail	0.593	Go_O	0.0
137.791	1.0	go	0.711	Go_X	1.0
140.316	1.0	go	0.711	Go_O	1.0
142.84	0.4	stopsuccess	0.0	Go_X	1.0
145.364	1.0	go	0.69	Go_X	1.0
147.888	1.0	go	0.689	Go_O	1.0
150.412	0.45	stopsuccess	0.0	Go_O	1.0
152.937	1.0	go	0.41	Go_X	1.0
155.461	1.0	go	0.603	Go_O	1.0
157.985	0.5	stopfail	0.588	Go_X	0.0
160.509	1.0	go	0.667	Go_X	1.0
163.033	1.0	go	0.629	Go_O	1.0
165.558	0.45	stopsuccess	0.0	Go_O	1.0
168.082	1.0	go	0.734	Go_X	1.0
170.606	1.0	go	0.545	Go_O	1.0
173.13	1.0	go	0.479	Go_O	1.0
175.654	1.0	go	0.531	Go_X	1.0
178.179	1.0	go	0.541	Go_X	1.0
180.703	0.5	stopsuccess	0.0	Go_X	1.0
183.227	1.0	go	0.616	Go_O	1.0
185.751	1.0	go	0.745	Go_X	1.0
188.275	1.0	go	0.777	Go_O	1.0
190.8	1.0	go	0.826	Go_X	1.0
193.324	1.0	go	0.829	Go_O	1.0
195.848	0.55	stopfail	0.741	Go_O	0.0
198.372	1.0	go	0.659	Go_X	1.0
200.896	1.0	go	0.65	Go_O	1.0
203.421	1.0	go	0.737	Go_O	1.0
205.945	1.0	go	0.833	Go_X	1.0
208.469	1.0	go	0.686	Go_X	1.0
210.993	1.0	go	0.586	Go_O	1.0
213.517	0.5	stopfail	0.575	Go_X	0.0
216.042	1.0	go	0.637	Go_O	1.0
218.566	1.0	go	0.581	Go_X	1.0
221.09	0.45	stopfail	0.513	Go_O	0.0
223.614	1.0	go	0.706	Go_O	1.0
226.138	0.4	stopfail	0.596	Go_X	0.0
228.663	0.35	stopsuccess	0.0	Go_O	1.0
231.187	1.0	go	0.612	Go_X	1.0
233.711	1.0	go	0.508	Go_O	1.0
236.235	1.0	go	0.622	Go_X	1.0
238.759	1.0	go	0.685	Go_X	1.0
241.284	0.4	stopsuccess	0.0	Go_X	1.0
243.808	1.0	go	0.497	Go_O	1.0
246.332	0.45	stopsuccess	0.0	Go_O	1.0
248.856	1.0	go	0.581	Go_X	1.0
251.38	1.0	go	0.474	Go_O	1.0
253.905	1.0	go	0.351	Go_X	1.0
256.429	1.0	go	0.404	Go_O	1.0
258.953	1.0	go	0.0	Go_O	0.0
261.477	1.0	go	0.395	Go_X	1.0
264.001	1.0	go	0.597	Go_X	1.0
266.526	1.0	go	0.351	Go_O	1.0
269.05	1.0	go	0.334	Go_X	1.0
271.574	0.5	stopfail	0.566	Go_X	0.0
274.098	1.0	go	0.497	Go_O	1.0
276.623	1.0	go	0.609	Go_X	1.0
279.147	1.0	go	0.488	Go_O	1.0
281.671	0.45	stopfail	0.395	Go_O	0.0
284.195	1.0	go	0.601	Go_O	1.0
286.719	1.0	go	0.452	Go_X	1.0
289.244	1.0	go	0.316	Go_X	0.0
291.768	1.0	go	0.612	Go_O	1.0
294.292	1.0	go	0.458	Go_O	1.0
296.816	1.0	go	0.351	Go_X	1.0
299.34	0.4	stopfail	0.44	Go_X	0.0
301.865	1.0	go	0.546	Go_X	1.0
304.389	1.0	go	0.45	Go_O	1.0
306.913	0.35	stopfail	0.574	Go_O	0.0
309.437	1.0	go	0.515	Go_O	1.0
311.961	1.0	go	0.507	Go_X	1.0
314.486	0.3	stopsuccess	0.0	Go_X	1.0
317.01	1.0	go	0.555	Go_O	1.0
319.534	0.35	stopsuccess	0.0	Go_O	1.0
322.058	1.0	go	0.567	Go_X	1.0
324.582	1.0	go	0.487	Go_O	1.0
327.107	1.0	go	0.514	Go_X	1.0
329.631	1.0	go	0.555	Go_O	1.0
332.155	1.0	go	0.319	Go_X	1.0
334.679	0.4	stopfail	0.338	Go_X	0.0
337.203	0.35	stopsuccess	0.0	Go_O	1.0
339.728	1.0	go	0.378	Go_O	1.0
342.252	1.0	go	0.452	Go_X	1.0
344.776	0.4	stopfail	0.433	Go_X	0.0
347.3	1.0	go	0.667	Go_X	0.0
349.824	1.0	go	0.519	Go_O	1.0
352.349	1.0	go	0.648	Go_O	1.0
354.873	1.0	go	0.777	Go_X	1.0
357.397	1.0	go	0.494	Go_O	1.0
359.921	1.0	go	0.514	Go_X	1.0
362.445	0.35	stopfail	0.399	Go_O	0.0
364.97	1.0	go	0.714	Go_O	1.0
367.494	1.0	go	0.615	Go_X	1.0
370.018	1.0	go	0.518	Go_O	1.0
372.542	1.0	go	0.57	Go_X	1.0
375.066	1.0	go	0.652	Go_O	1.0
377.591	0.3	stopsuccess	0.0	Go_X	1.0
380.115	1.0	go	0.514	Go_X	1.0
382.639	1.0	go	0.562	Go_X	1.0
385.163	1.0	go	0.49	Go_O	1.0
387.687	1.0	go	0.653	Go_X	0.0
390.212	0.35	stopsuccess	0.0	Go_O	1.0
392.736	1.0	go	0.572	Go_O	1.0
395.26	1.0	go	0.635	Go_X	1.0
397.784	0.4	stopsuccess	0.0	Go_X	1.0
400.308	1.0	go	0.508	Go_O	1.0
402.833	0.45	stopfail	0.442	Go_O	0.0
405.357	1.0	go	0.698	Go_O	1.0
407.881	1.0	go	0.539	Go_X	1.0
410.405	1.0	go	0.704	Go_X	1.0
412.929	1.0	go	0.631	Go_O	1.0
415.454	1.0	go	0.731	Go_X	1.0
417.978	1.0	go	0.548	Go_O	1.0
420.502	1.0	go	0.588	Go_X	1.0
423.026	0.4	stopsuccess	0.0	Go_X	1.0
425.55	1.0	go	0.505	Go_O	1.0
428.075	1.0	go	0.704	Go_X	1.0
430.599	1.0	go	0.517	Go_O	1.0
433.123	0.45	stopfail	0.573	Go_O	0.0
435.647	1.0	go	0.581	Go_X	1.0
438.172	1.0	go	0.562	Go_O	1.0
440.696	1.0	go	0.708	Go_O	1.0
443.22	1.0	go	0.656	Go_X	1.0
445.744	0.4	stopsuccess	0.0	Go_X	1.0
448.268	1.0	go	0.728	Go_O	1.0
450.793	1.0	go	0.612	Go_X	1.0
453.317	0.45	stopfail	0.48	Go_O	0.0
455.841	1.0	go	0.687	Go_O	1.0
458.365	1.0	go	0.0	Go_X	0.0
460.889	0.4	stopsuccess	0.0	Go_X	1.0
463.414	1.0	go	0.626	Go_X	1.0
465.938	1.0	go	0.634	Go_O	1.0
468.462	0.45	stopfail	0.566	Go_O	0.0
470.986	1.0	go	0.946	Go_X	1.0
473.51	1.0	go	0.599	Go_O	1.0
476.035	1.0	go	0.605	Go_O	1.0
478.559	1.0	go	0.562	Go_X	1.0
481.083	1.0	go	0.43	Go_O	1.0
483.607	1.0	go	0.423	Go_X	1.0
486.131	0.4	stopfail	0.499	Go_X	0.0
488.656	1.0	go	0.575	Go_X	1.0
491.18	0.35	stopfail	0.479	Go_O	0.0
493.704	1.0	go	0.679	Go_O	1.0
496.228	1.0	go	0.557	Go_O	1.0
498.752	1.0	go	0.541	Go_X	1.0
501.277	1.0	go	0.676	Go_X	1.0
503.801	1.0	go	0.64	Go_O	1.0
506.325	0.3	stopsuccess	0.0	Go_X	1.0
508.849	1.0	go	0.673	Go_O	1.0
511.373	1.0	go	0.624	Go_X	1.0
513.898	1.0	go	0.513	Go_X	1.0
516.422	0.35	stopsuccess	0.0	Go_O	1.0
518.946	0.4	stopfail	0.524	Go_X	0.0
521.47	0.35	stopsuccess	0.0	Go_O	1.0
523.994	1.0	go	0.483	Go_O	1.0
526.519	0.4	stopsuccess	0.0	Go_X	1.0
529.043	1.0	go	0.591	Go_X	1.0
531.567	1.0	go	0.645	Go_O	1.0
534.091	1.0	go	0.723	Go_O	1.0
536.615	1.0	go	0.492	Go_X	1.0
539.14	1.0	go	0.648	Go_X	1.0
541.664	1.0	go	0.48	Go_O	1.0
544.188	1.0	go	0.572	Go_O	1.0
546.712	1.0	go	0.508	Go_X	1.0
549.236	0.45	stopfail	0.585	Go_O	0.0
551.761	1.0	go	0.448	Go_O	1.0
554.285	1.0	go	0.994	Go_X	1.0
556.809	0.4	stopfail	0.524	Go_X	0.0
559.333	1.0	go	0.433	Go_O	1.0
561.857	1.0	go	0.576	Go_X	1.0
564.382	1.0	go	0.529	Go_X	1.0
566.906	1.0	go	0.597	Go_O	1.0
569.43	1.0	go	0.488	Go_O	1.0
571.954	0.35	stopfail	0.61	Go_O	0.0
574.478	1.0	go	0.507	Go_X	1.0
577.003	1.0	go	0.496	Go_O	1.0
579.527	1.0	go	0.667	Go_X	0.0
582.051	0.3	stopfail	0.514	Go_X	0.0
584.575	1.0	go	0.592	Go_X	0.0
587.099	0.25	stopsuccess	0.0	Go_O	1.0
589.624	1.0	go	0.569	Go_O	1.0
592.148	1.0	go	0.711	Go_O	1.0
594.672	1.0	go	0.585	Go_X	1.0
597.196	1.0	go	0.6	Go_O	1.0
599.72	1.0	go	0.594	Go_X	1.0
602.245	1.0	go	0.793	Go_O	1.0
604.769	1.0	go	0.638	Go_X	1.0
607.293	0.3	stopsuccess	0.0	Go_X	1.0
609.817	1.0	go	0.653	Go_X	1.0
612.342	1.0	go	0.566	Go_O	1.0
614.866	1.0	go	0.593	Go_X	1.0
617.39	1.0	go	0.479	Go_O	1.0
619.914	0.35	stopfail	0.512	Go_O	0.0
622.438	1.0	go	0.554	Go_X	1.0
624.963	0.3	stopsuccess	0.0	Go_X	1.0
627.487	1.0	go	0.625	Go_O	1.0
630.011	1.0	go	0.575	Go_O	1.0
632.535	0.35	stopfail	0.552	Go_O	0.0
635.059	1.0	go	0.622	Go_X	1.0
637.584	1.0	go	0.0	Go_X	0.0
640.108	1.0	go	0.926	Go_O	1.0
642.632	1.0	go	0.906	Go_X	1.0
645.156	1.0	go	0.525	Go_O	1.0
647.68	1.0	go	0.559	Go_X	1.0
650.205	1.0	go	0.748	Go_O	1.0
652.729	1.0	go	0.615	Go_X	1.0
655.253	1.0	go	0.548	Go_O	1.0
657.777	1.0	go	0.507	Go_O	1.0
660.301	0.3	stopsuccess	0.0	Go_X	1.0
662.826	1.0	go	0.574	Go_X	1.0
665.35	1.0	go	0.593	Go_X	1.0
667.874	0.35	stopsuccess	0.0	Go_O	1.0
670.398	1.0	go	0.606	Go_O	1.0
672.922	0.4	stopsuccess	0.0	Go_X	1.0
675.447	1.0	go	0.636	Go_X	1.0
677.971	1.0	go	0.615	Go_O	1.0
680.495	0.45	stopsuccess	0.0	Go_O	1.0
683.019	1.0	go	0.583	Go_X	1.0
685.543	0.5	stopfail	0.777	Go_X	0.0
688.068	1.0	go	0.613	Go_O	1.0
690.592	1.0	go	0.715	Go_O	1.0
693.116	1.0	go	0.663	Go_X	1.0
695.64	0.45	stopfail	0.419	Go_O	0.0
698.164	1.0	go	0.559	Go_X	1.0
700.689	1.0	go	0.674	Go_O	1.0
703.213	1.0	go	0.563	Go_O	1.0
705.737	1.0	go	0.569	Go_X	1.0
708.261	0.4	stopfail	0.374	Go_X	0.0
710.785	1.0	go	0.624	Go_X	1.0
713.31	1.0	go	0.552	Go_O	1.0
715.834	0.35	stopsuccess	0.0	Go_O	1.0
718.358	1.0	go	0.848	Go_O	1.0
720.882	1.0	go	0.804	Go_X	1.0
723.406	1.0	go	0.621	Go_O	1.0
725.931	1.0	go	0.546	Go_X	1.0
728.455	0.4	stopsuccess	0.0	Go_X	1.0
730.979	1.0	go	0.649	Go_X	1.0
733.503	0.45	stopfail	0.651	Go_O	0.0
736.027	1.0	go	0.661	Go_O	1.0
738.552	1.0	go	0.889	Go_O	1.0
741.076	0.4	stopsuccess	0.0	Go_X	1.0
743.6	1.0	go	0.541	Go_X	1.0
746.124	1.0	go	0.811	Go_X	1.0
748.648	1.0	go	0.522	Go_O	1.0
751.173	1.0	go	0.613	Go_O	1.0
753.697	0.45	stopfail	0.731	Go_O	0.0
756.221	1.0	go	0.673	Go_X	1.0
758.745	0.4	stopsuccess	0.0	Go_X	1.0
761.269	1.0	go	0.706	Go_X	1.0
763.794	1.0	go	0.44	Go_O	1.0
766.318	1.0	go	0.793	Go_X	1.0
768.842	1.0	go	0.456	Go_O	1.0
771.366	1.0	go	0.57	Go_O	1.0
773.891	1.0	go	0.689	Go_X	1.0
776.415	0.45	stopfail	0.632	Go_O	0.0
778.939	1.0	go	0.532	Go_X	1.0
781.463	1.0	go	0.581	Go_O	1.0
783.987	0.4	stopfail	0.61	Go_X	0.0
786.512	1.0	go	0.668	Go_O	1.0
789.036	1.0	go	0.713	Go_X	1.0
791.56	0.35	stopsuccess	0.0	Go_O	1.0
794.084	1.0	go	0.577	Go_X	1.0
796.608	1.0	go	0.49	Go_O	1.0
799.133	1.0	go	0.548	Go_X	1.0
801.657	1.0	go	0.567	Go_O	1.0
804.181	0.4	stopfail	0.528	Go_X	0.0
806.705	1.0	go	0.733	Go_O	1.0
809.229	0.35	stopsuccess	0.0	Go_O	1.0
811.754	1.0	go	0.413	Go_X	1.0
814.278	1.0	go	0.649	Go_O	1.0
816.802	1.0	go	0.387	Go_X	1.0
819.326	1.0	go	0.412	Go_O	1.0
821.85	1.0	go	0.464	Go_X	1.0
824.375	0.4	stopfail	0.65	Go_X	0.0
826.899	1.0	go	0.475	Go_O	1.0
829.423	1.0	go	0.531	Go_X	1.0
831.947	0.35	stopsuccess	0.0	Go_O	1.0
834.471	0.4	stopfail	0.677	Go_X	0.0
836.996	1.0	go	0.647	Go_O	1.0
839.52	1.0	go	0.673	Go_X	1.0
842.044	1.0	go	0.607	Go_O	1.0
844.568	1.0	go	0.0	Go_X	0.0
847.092	0.35	stopsuccess	0.0	Go_O	1.0
849.617	1.0	go	0.697	Go_X	1.0
