onset	duration	trial_type	response_time	stim_file	accuracy
0.5330000000000013	1.0	go	0.724	Go_X	1.0
3.057000000000002	1.0	go	0.383	Go_O	1.0
5.581000000000003	1.0	go	0.454	Go_O	1.0
8.105000000000004	1.0	go	0.615	Go_X	1.0
10.63000000000001	1.0	go	0.78	Go_X	1.0
13.15400000000001	1.0	go	0.46	Go_O	1.0
15.678000000000011	0.25	stopsuccess	0.0	Go_O	1.0
18.202000000000012	1.0	go	0.725	Go_O	1.0
20.727000000000004	0.3	stopsuccess	0.0	Go_X	1.0
23.251000000000005	1.0	go	0.633	Go_X	0.0
25.775000000000006	1.0	go	0.78	Go_X	1.0
28.299000000000007	1.0	go	0.62	Go_O	1.0
30.823000000000008	0.35	stopsuccess	0.0	Go_O	1.0
33.348	1.0	go	0.601	Go_X	1.0
35.872	1.0	go	0.574	Go_O	1.0
38.396	0.4	stopsuccess	0.0	Go_X	1.0
40.92	0.45	stopfail	0.593	Go_O	0.0
43.444	1.0	go	0.711	Go_X	1.0
45.96900000000001	1.0	go	0.711	Go_O	1.0
48.49300000000001	0.4	stopsuccess	0.0	Go_X	1.0
51.01700000000001	1.0	go	0.69	Go_X	1.0
53.54100000000001	1.0	go	0.689	Go_O	1.0
56.06500000000001	0.45	stopsuccess	0.0	Go_O	1.0
58.59000000000002	1.0	go	0.41	Go_X	1.0
61.11400000000002	1.0	go	0.603	Go_O	1.0
63.63800000000002	0.5	stopfail	0.588	Go_X	0.0
66.16199999999999	1.0	go	0.667	Go_X	1.0
68.68599999999999	1.0	go	0.629	Go_O	1.0
71.211	0.45	stopsuccess	0.0	Go_O	1.0
73.735	1.0	go	0.734	Go_X	1.0
76.259	1.0	go	0.545	Go_O	1.0
78.783	1.0	go	0.479	Go_O	1.0
81.307	1.0	go	0.531	Go_X	1.0
83.83200000000001	1.0	go	0.541	Go_X	1.0
86.35600000000001	0.5	stopsuccess	0.0	Go_X	1.0
88.88000000000001	1.0	go	0.616	Go_O	1.0
91.40400000000001	1.0	go	0.745	Go_X	1.0
93.92800000000001	1.0	go	0.777	Go_O	1.0
96.45300000000002	1.0	go	0.826	Go_X	1.0
98.97700000000002	1.0	go	0.829	Go_O	1.0
101.50100000000002	0.55	stopfail	0.741	Go_O	0.0
104.02500000000002	1.0	go	0.659	Go_X	1.0
106.54899999999999	1.0	go	0.65	Go_O	1.0
109.074	1.0	go	0.737	Go_O	1.0
111.598	1.0	go	0.833	Go_X	1.0
114.122	1.0	go	0.686	Go_X	1.0
116.646	1.0	go	0.586	Go_O	1.0
119.17	0.5	stopfail	0.575	Go_X	0.0
121.69500000000001	1.0	go	0.637	Go_O	1.0
124.21900000000001	1.0	go	0.581	Go_X	1.0
126.74300000000001	0.45	stopfail	0.513	Go_O	0.0
129.267	1.0	go	0.706	Go_O	1.0
131.791	0.4	stopfail	0.596	Go_X	0.0
134.31600000000003	0.35	stopsuccess	0.0	Go_O	1.0
136.84000000000003	1.0	go	0.612	Go_X	1.0
139.36400000000003	1.0	go	0.508	Go_O	1.0
141.88800000000003	1.0	go	0.622	Go_X	1.0
144.41199999999998	1.0	go	0.685	Go_X	1.0
146.937	0.4	stopsuccess	0.0	Go_X	1.0
149.461	1.0	go	0.497	Go_O	1.0
151.985	0.45	stopsuccess	0.0	Go_O	1.0
154.50900000000001	1.0	go	0.581	Go_X	1.0
157.03300000000002	1.0	go	0.474	Go_O	1.0
159.558	1.0	go	0.351	Go_X	1.0
162.082	1.0	go	0.404	Go_O	1.0
164.606	1.0	go	0.0	Go_O	0.0
167.13	1.0	go	0.395	Go_X	1.0
169.654	1.0	go	0.597	Go_X	1.0
172.17900000000003	1.0	go	0.351	Go_O	1.0
174.70300000000003	1.0	go	0.334	Go_X	1.0
177.22700000000003	0.5	stopfail	0.566	Go_X	0.0
179.75100000000003	1.0	go	0.497	Go_O	1.0
182.276	1.0	go	0.609	Go_X	1.0
184.8	1.0	go	0.488	Go_O	1.0
187.324	0.45	stopfail	0.395	Go_O	0.0
189.848	1.0	go	0.601	Go_O	1.0
192.372	1.0	go	0.452	Go_X	1.0
194.89700000000005	1.0	go	0.316	Go_X	0.0
197.421	1.0	go	0.612	Go_O	1.0
199.945	1.0	go	0.458	Go_O	1.0
202.469	1.0	go	0.351	Go_X	1.0
204.993	0.4	stopfail	0.44	Go_X	0.0
207.51800000000003	1.0	go	0.546	Go_X	1.0
210.04200000000003	1.0	go	0.45	Go_O	1.0
212.56600000000003	0.35	stopfail	0.574	Go_O	0.0
215.09000000000003	1.0	go	0.515	Go_O	1.0
217.61400000000003	1.0	go	0.507	Go_X	1.0
220.139	0.3	stopsuccess	0.0	Go_X	1.0
222.663	1.0	go	0.555	Go_O	1.0
225.187	0.35	stopsuccess	0.0	Go_O	1.0
227.711	1.0	go	0.567	Go_X	1.0
230.235	1.0	go	0.487	Go_O	1.0
232.76000000000005	1.0	go	0.514	Go_X	1.0
235.284	1.0	go	0.555	Go_O	1.0
237.808	1.0	go	0.319	Go_X	1.0
240.332	0.4	stopfail	0.338	Go_X	0.0
242.856	0.35	stopsuccess	0.0	Go_O	1.0
245.38100000000003	1.0	go	0.378	Go_O	1.0
247.90500000000003	1.0	go	0.452	Go_X	1.0
250.42900000000003	0.4	stopfail	0.433	Go_X	0.0
252.95300000000003	1.0	go	0.667	Go_X	0.0
255.47700000000003	1.0	go	0.519	Go_O	1.0
258.002	1.0	go	0.648	Go_O	1.0
260.526	1.0	go	0.777	Go_X	1.0
263.05	1.0	go	0.494	Go_O	1.0
265.574	1.0	go	0.514	Go_X	1.0
268.098	0.35	stopfail	0.399	Go_O	0.0
270.62300000000005	1.0	go	0.714	Go_O	1.0
273.14700000000005	1.0	go	0.615	Go_X	1.0
275.671	1.0	go	0.518	Go_O	1.0
278.195	1.0	go	0.57	Go_X	1.0
280.719	1.0	go	0.652	Go_O	1.0
283.244	0.3	stopsuccess	0.0	Go_X	1.0
285.76800000000003	1.0	go	0.514	Go_X	1.0
288.29200000000003	1.0	go	0.562	Go_X	1.0
290.81600000000003	1.0	go	0.49	Go_O	1.0
293.34000000000003	1.0	go	0.653	Go_X	0.0
295.865	0.35	stopsuccess	0.0	Go_O	1.0
298.389	1.0	go	0.572	Go_O	1.0
300.913	1.0	go	0.635	Go_X	1.0
303.437	0.4	stopsuccess	0.0	Go_X	1.0
305.961	1.0	go	0.508	Go_O	1.0
308.48600000000005	0.45	stopfail	0.442	Go_O	0.0
311.01000000000005	1.0	go	0.698	Go_O	1.0
313.534	1.0	go	0.539	Go_X	1.0
316.058	1.0	go	0.704	Go_X	1.0
318.582	1.0	go	0.631	Go_O	1.0
321.107	1.0	go	0.731	Go_X	1.0
323.63100000000003	1.0	go	0.548	Go_O	1.0
326.15500000000003	1.0	go	0.588	Go_X	1.0
328.67900000000003	0.4	stopsuccess	0.0	Go_X	1.0
331.20300000000003	1.0	go	0.505	Go_O	1.0
333.728	1.0	go	0.704	Go_X	1.0
336.252	1.0	go	0.517	Go_O	1.0
338.776	0.45	stopfail	0.573	Go_O	0.0
341.3	1.0	go	0.581	Go_X	1.0
343.82500000000005	1.0	go	0.562	Go_O	1.0
346.34900000000005	1.0	go	0.708	Go_O	1.0
348.87300000000005	1.0	go	0.656	Go_X	1.0
351.39700000000005	0.4	stopsuccess	0.0	Go_X	1.0
353.921	1.0	go	0.728	Go_O	1.0
356.446	1.0	go	0.612	Go_X	1.0
358.97	0.45	stopfail	0.48	Go_O	0.0
361.494	1.0	go	0.687	Go_O	1.0
364.01800000000003	1.0	go	0.0	Go_X	0.0
366.54200000000003	0.4	stopsuccess	0.0	Go_X	1.0
369.067	1.0	go	0.626	Go_X	1.0
371.591	1.0	go	0.634	Go_O	1.0
374.115	0.45	stopfail	0.566	Go_O	0.0
376.639	1.0	go	0.946	Go_X	1.0
379.163	1.0	go	0.599	Go_O	1.0
381.68800000000005	1.0	go	0.605	Go_O	1.0
384.21200000000005	1.0	go	0.562	Go_X	1.0
386.73600000000005	1.0	go	0.43	Go_O	1.0
389.26000000000005	1.0	go	0.423	Go_X	1.0
391.784	0.4	stopfail	0.499	Go_X	0.0
394.309	1.0	go	0.575	Go_X	1.0
396.833	0.35	stopfail	0.479	Go_O	0.0
399.357	1.0	go	0.679	Go_O	1.0
401.88100000000003	1.0	go	0.557	Go_O	1.0
404.40500000000003	1.0	go	0.541	Go_X	1.0
406.93	1.0	go	0.676	Go_X	1.0
409.454	1.0	go	0.64	Go_O	1.0
411.978	0.3	stopsuccess	0.0	Go_X	1.0
414.502	1.0	go	0.673	Go_O	1.0
417.026	1.0	go	0.624	Go_X	1.0
419.55100000000004	1.0	go	0.513	Go_X	1.0
422.07500000000005	0.35	stopsuccess	0.0	Go_O	1.0
424.59900000000005	0.4	stopfail	0.524	Go_X	0.0
427.12300000000005	0.35	stopsuccess	0.0	Go_O	1.0
429.64700000000005	1.0	go	0.483	Go_O	1.0
432.172	0.4	stopsuccess	0.0	Go_X	1.0
434.696	1.0	go	0.591	Go_X	1.0
437.22	1.0	go	0.645	Go_O	1.0
439.744	1.0	go	0.723	Go_O	1.0
442.26800000000003	1.0	go	0.492	Go_X	1.0
444.793	1.0	go	0.648	Go_X	1.0
447.317	1.0	go	0.48	Go_O	1.0
449.841	1.0	go	0.572	Go_O	1.0
452.365	1.0	go	0.508	Go_X	1.0
454.889	0.45	stopfail	0.585	Go_O	0.0
457.414	1.0	go	0.448	Go_O	1.0
459.938	1.0	go	0.994	Go_X	1.0
462.462	0.4	stopfail	0.524	Go_X	0.0
464.986	1.0	go	0.433	Go_O	1.0
467.51	1.0	go	0.576	Go_X	1.0
470.03499999999997	1.0	go	0.529	Go_X	1.0
472.55899999999997	1.0	go	0.597	Go_O	1.0
475.08299999999997	1.0	go	0.488	Go_O	1.0
477.60699999999997	0.35	stopfail	0.61	Go_O	0.0
480.131	1.0	go	0.507	Go_X	1.0
482.65600000000006	1.0	go	0.496	Go_O	1.0
485.18000000000006	1.0	go	0.667	Go_X	0.0
487.70400000000006	0.3	stopfail	0.514	Go_X	0.0
490.22800000000007	1.0	go	0.592	Go_X	0.0
492.75200000000007	0.25	stopsuccess	0.0	Go_O	1.0
495.27700000000004	1.0	go	0.569	Go_O	1.0
497.80100000000004	1.0	go	0.711	Go_O	1.0
500.32500000000005	1.0	go	0.585	Go_X	1.0
502.84900000000005	1.0	go	0.6	Go_O	1.0
505.37300000000005	1.0	go	0.594	Go_X	1.0
507.898	1.0	go	0.793	Go_O	1.0
510.422	1.0	go	0.638	Go_X	1.0
512.946	0.3	stopsuccess	0.0	Go_X	1.0
515.47	1.0	go	0.653	Go_X	1.0
517.995	1.0	go	0.566	Go_O	1.0
520.519	1.0	go	0.593	Go_X	1.0
523.043	1.0	go	0.479	Go_O	1.0
525.567	0.35	stopfail	0.512	Go_O	0.0
528.091	1.0	go	0.554	Go_X	1.0
530.616	0.3	stopsuccess	0.0	Go_X	1.0
533.14	1.0	go	0.625	Go_O	1.0
535.664	1.0	go	0.575	Go_O	1.0
538.188	0.35	stopfail	0.552	Go_O	0.0
540.712	1.0	go	0.622	Go_X	1.0
543.237	1.0	go	0.0	Go_X	0.0
545.761	1.0	go	0.926	Go_O	1.0
548.285	1.0	go	0.906	Go_X	1.0
550.809	1.0	go	0.525	Go_O	1.0
553.333	1.0	go	0.559	Go_X	1.0
555.8580000000001	1.0	go	0.748	Go_O	1.0
558.3820000000001	1.0	go	0.615	Go_X	1.0
560.9060000000001	1.0	go	0.548	Go_O	1.0
563.4300000000001	1.0	go	0.507	Go_O	1.0
565.9540000000001	0.3	stopsuccess	0.0	Go_X	1.0
568.479	1.0	go	0.574	Go_X	1.0
571.003	1.0	go	0.593	Go_X	1.0
573.527	0.35	stopsuccess	0.0	Go_O	1.0
576.051	1.0	go	0.606	Go_O	1.0
578.575	0.4	stopsuccess	0.0	Go_X	1.0
581.1	1.0	go	0.636	Go_X	1.0
583.624	1.0	go	0.615	Go_O	1.0
586.148	0.45	stopsuccess	0.0	Go_O	1.0
588.672	1.0	go	0.583	Go_X	1.0
591.196	0.5	stopfail	0.777	Go_X	0.0
593.721	1.0	go	0.613	Go_O	1.0
596.245	1.0	go	0.715	Go_O	1.0
598.769	1.0	go	0.663	Go_X	1.0
601.293	0.45	stopfail	0.419	Go_O	0.0
603.817	1.0	go	0.559	Go_X	1.0
606.342	1.0	go	0.674	Go_O	1.0
608.866	1.0	go	0.563	Go_O	1.0
611.39	1.0	go	0.569	Go_X	1.0
613.914	0.4	stopfail	0.374	Go_X	0.0
616.438	1.0	go	0.624	Go_X	1.0
618.963	1.0	go	0.552	Go_O	1.0
621.487	0.35	stopsuccess	0.0	Go_O	1.0
624.011	1.0	go	0.848	Go_O	1.0
626.535	1.0	go	0.804	Go_X	1.0
629.059	1.0	go	0.621	Go_O	1.0
631.5840000000001	1.0	go	0.546	Go_X	1.0
634.1080000000001	0.4	stopsuccess	0.0	Go_X	1.0
636.6320000000001	1.0	go	0.649	Go_X	1.0
639.1560000000001	0.45	stopfail	0.651	Go_O	0.0
641.6800000000001	1.0	go	0.661	Go_O	1.0
644.205	1.0	go	0.889	Go_O	1.0
646.729	0.4	stopsuccess	0.0	Go_X	1.0
649.253	1.0	go	0.541	Go_X	1.0
651.777	1.0	go	0.811	Go_X	1.0
654.301	1.0	go	0.522	Go_O	1.0
656.826	1.0	go	0.613	Go_O	1.0
659.35	0.45	stopfail	0.731	Go_O	0.0
661.874	1.0	go	0.673	Go_X	1.0
664.398	0.4	stopsuccess	0.0	Go_X	1.0
666.922	1.0	go	0.706	Go_X	1.0
669.447	1.0	go	0.44	Go_O	1.0
671.971	1.0	go	0.793	Go_X	1.0
674.495	1.0	go	0.456	Go_O	1.0
677.019	1.0	go	0.57	Go_O	1.0
679.544	1.0	go	0.689	Go_X	1.0
682.068	0.45	stopfail	0.632	Go_O	0.0
684.592	1.0	go	0.532	Go_X	1.0
687.116	1.0	go	0.581	Go_O	1.0
689.64	0.4	stopfail	0.61	Go_X	0.0
692.165	1.0	go	0.668	Go_O	1.0
694.689	1.0	go	0.713	Go_X	1.0
697.213	0.35	stopsuccess	0.0	Go_O	1.0
699.737	1.0	go	0.577	Go_X	1.0
702.261	1.0	go	0.49	Go_O	1.0
704.7860000000001	1.0	go	0.548	Go_X	1.0
707.3100000000001	1.0	go	0.567	Go_O	1.0
709.8340000000001	0.4	stopfail	0.528	Go_X	0.0
712.3580000000001	1.0	go	0.733	Go_O	1.0
714.8820000000001	0.35	stopsuccess	0.0	Go_O	1.0
717.407	1.0	go	0.413	Go_X	1.0
719.931	1.0	go	0.649	Go_O	1.0
722.455	1.0	go	0.387	Go_X	1.0
724.979	1.0	go	0.412	Go_O	1.0
727.503	1.0	go	0.464	Go_X	1.0
730.028	0.4	stopfail	0.65	Go_X	0.0
732.552	1.0	go	0.475	Go_O	1.0
735.076	1.0	go	0.531	Go_X	1.0
737.6	0.35	stopsuccess	0.0	Go_O	1.0
740.124	0.4	stopfail	0.677	Go_X	0.0
742.649	1.0	go	0.647	Go_O	1.0
745.173	1.0	go	0.673	Go_X	1.0
747.697	1.0	go	0.607	Go_O	1.0
750.221	1.0	go	0.0	Go_X	0.0
752.745	0.35	stopsuccess	0.0	Go_O	1.0
755.27	1.0	go	0.697	Go_X	1.0
