onset	duration	trial_type	response_time	stim_file	accuracy
0.5210000000000008	1.0	go	0.901	Go_X	1.0
3.0549999999999997	1.0	go	0.583	Go_O	1.0
5.588000000000001	1.0	go	0.646	Go_X	1.0
8.121000000000002	1.0	go	0.713	Go_O	1.0
10.654000000000003	1.0	go	0.818	Go_X	1.0
13.187999999999995	1.0	go	0.888	Go_O	1.0
15.720999999999997	0.25	stopsuccess	0.0	Go_O	1.0
18.253999999999998	1.0	go	0.414	Go_O	1.0
20.787	0.3	stopfail	0.559	Go_X	0.0
23.321000000000005	1.0	go	0.504	Go_X	1.0
25.854000000000006	1.0	go	0.421	Go_O	1.0
28.387000000000008	1.0	go	0.452	Go_X	1.0
30.919999999999995	0.25	stopsuccess	0.0	Go_O	1.0
33.454	1.0	go	0.444	Go_X	1.0
35.987	1.0	go	0.506	Go_O	1.0
38.52	0.3	stopsuccess	0.0	Go_X	1.0
41.053999999999995	0.35	stopfail	0.445	Go_O	0.0
43.603	1.0	go	0.627	Go_X	1.0
46.13700000000001	1.0	go	0.398	Go_O	1.0
48.669999999999995	0.3	stopsuccess	0.0	Go_X	1.0
51.202999999999996	1.0	go	0.704	Go_O	1.0
53.736	1.0	go	0.431	Go_X	1.0
56.27	0.35	stopfail	0.37	Go_O	0.0
58.803000000000004	1.0	go	0.489	Go_O	1.0
61.336000000000006	1.0	go	0.707	Go_X	1.0
63.86900000000001	0.3	stopsuccess	0.0	Go_X	1.0
66.40299999999999	1.0	go	0.505	Go_X	1.0
68.936	1.0	go	0.511	Go_O	1.0
71.469	0.35	stopfail	0.474	Go_O	0.0
74.00199999999998	1.0	go	0.338	Go_O	1.0
76.536	1.0	go	0.591	Go_X	1.0
79.06899999999999	1.0	go	0.686	Go_X	1.0
81.602	1.0	go	0.836	Go_O	1.0
84.13499999999999	1.0	go	0.913	Go_O	1.0
86.66899999999998	0.3	stopsuccess	0.0	Go_X	1.0
89.202	1.0	go	0.382	Go_X	1.0
91.73499999999999	1.0	go	0.389	Go_O	1.0
94.268	1.0	go	0.427	Go_X	1.0
96.80199999999999	1.0	go	0.457	Go_X	1.0
99.33500000000001	1.0	go	0.491	Go_O	1.0
101.868	0.35	stopsuccess	0.0	Go_O	1.0
104.40099999999998	1.0	go	0.44	Go_O	1.0
106.935	1.0	go	0.61	Go_X	1.0
109.46799999999999	1.0	go	0.601	Go_O	1.0
112.001	1.0	go	0.681	Go_X	1.0
114.53399999999999	1.0	go	0.908	Go_X	1.0
117.06799999999998	1.0	go	0.749	Go_O	1.0
119.601	0.4	stopsuccess	0.0	Go_X	1.0
122.13399999999999	1.0	go	0.292	Go_X	1.0
124.668	1.0	go	0.498	Go_O	1.0
127.21699999999998	0.45	stopfail	0.457	Go_O	0.0
129.751	1.0	go	0.394	Go_X	1.0
132.284	0.4	stopfail	0.506	Go_X	0.0
134.817	0.35	stopfail	0.481	Go_O	0.0
137.35	1.0	go	0.632	Go_O	1.0
139.884	1.0	go	0.512	Go_O	1.0
142.417	1.0	go	0.973	Go_X	1.0
144.95	1.0	go	0.415	Go_O	1.0
147.483	0.3	stopfail	0.401	Go_X	0.0
150.017	1.0	go	0.394	Go_X	1.0
152.54999999999998	0.25	stopfail	0.314	Go_O	0.0
155.083	1.0	go	0.379	Go_X	1.0
157.61599999999999	1.0	go	0.421	Go_O	1.0
160.15	1.0	go	0.429	Go_X	1.0
162.683	1.0	go	0.457	Go_O	1.0
165.216	1.0	go	0.645	Go_O	1.0
167.749	1.0	go	0.58	Go_X	1.0
170.283	1.0	go	0.793	Go_X	1.0
172.816	1.0	go	0.484	Go_O	0.0
175.349	1.0	go	0.834	Go_O	1.0
177.882	0.2	stopsuccess	0.0	Go_X	1.0
180.416	1.0	go	0.537	Go_X	1.0
182.94899999999998	1.0	go	0.589	Go_O	1.0
185.482	1.0	go	0.993	Go_X	0.0
188.015	0.25	stopfail	0.362	Go_O	0.0
190.549	1.0	go	0.523	Go_X	1.0
193.082	1.0	go	0.576	Go_O	1.0
195.61499999999998	1.0	go	0.597	Go_O	1.0
198.148	1.0	go	0.695	Go_X	0.0
200.68200000000002	1.0	go	0.549	Go_O	1.0
203.21499999999997	1.0	go	0.0	Go_X	0.0
205.748	0.2	stopsuccess	0.0	Go_X	1.0
208.28199999999998	1.0	go	0.5	Go_X	1.0
210.83100000000002	1.0	go	0.688	Go_O	1.0
213.365	0.25	stopsuccess	0.0	Go_O	1.0
215.89799999999997	1.0	go	0.353	Go_X	1.0
218.43099999999998	1.0	go	0.677	Go_O	0.0
220.964	0.3	stopfail	0.481	Go_X	0.0
223.498	1.0	go	0.371	Go_O	1.0
226.031	0.25	stopsuccess	0.0	Go_O	1.0
228.56400000000002	1.0	go	0.652	Go_X	1.0
231.09699999999998	1.0	go	0.0	Go_X	0.0
233.63099999999997	1.0	go	0.372	Go_O	1.0
236.164	1.0	go	0.357	Go_X	1.0
238.697	1.0	go	0.443	Go_O	1.0
241.23000000000002	0.3	stopfail	0.408	Go_X	0.0
243.764	0.25	stopfail	0.342	Go_O	0.0
246.29699999999997	1.0	go	0.462	Go_O	1.0
248.82999999999998	1.0	go	0.745	Go_X	1.0
251.363	0.2	stopsuccess	0.0	Go_X	1.0
253.897	1.0	go	0.736	Go_O	1.0
256.43	1.0	go	0.501	Go_X	1.0
258.963	1.0	go	0.875	Go_X	1.0
261.496	1.0	go	0.506	Go_O	1.0
264.03	1.0	go	0.466	Go_X	0.0
266.563	1.0	go	0.579	Go_O	1.0
269.096	0.25	stopsuccess	0.0	Go_O	1.0
271.629	1.0	go	0.474	Go_O	1.0
274.163	1.0	go	0.427	Go_X	1.0
276.69599999999997	1.0	go	0.587	Go_O	1.0
279.229	1.0	go	0.68	Go_X	1.0
281.763	1.0	go	0.512	Go_X	1.0
284.312	0.3	stopsuccess	0.0	Go_X	1.0
286.846	1.0	go	0.593	Go_O	1.0
289.379	1.0	go	0.4	Go_X	1.0
291.912	1.0	go	0.475	Go_O	1.0
294.445	1.0	go	0.442	Go_O	0.0
296.979	0.35	stopfail	0.481	Go_O	0.0
299.512	1.0	go	0.427	Go_X	1.0
302.045	1.0	go	0.386	Go_O	1.0
304.578	0.3	stopfail	0.517	Go_X	0.0
307.11199999999997	1.0	go	0.61	Go_X	1.0
309.645	0.25	stopsuccess	0.0	Go_O	1.0
312.178	1.0	go	0.655	Go_X	1.0
314.711	1.0	go	0.327	Go_O	1.0
317.245	1.0	go	0.612	Go_X	1.0
319.778	1.0	go	0.586	Go_O	1.0
322.311	1.0	go	0.501	Go_X	1.0
324.844	1.0	go	0.501	Go_O	1.0
327.378	1.0	go	0.49	Go_X	1.0
329.911	0.3	stopfail	0.526	Go_X	0.0
332.444	1.0	go	0.117	Go_O	1.0
334.977	1.0	go	0.028	Go_X	0.0
337.51099999999997	1.0	go	0.204	Go_O	1.0
340.044	0.25	stopsuccess	0.0	Go_O	1.0
342.577	1.0	go	0.0	Go_O	0.0
345.11	1.0	go	0.246	Go_X	0.0
347.644	1.0	go	0.453	Go_O	1.0
350.177	1.0	go	0.677	Go_X	1.0
352.71	0.3	stopfail	0.281	Go_X	0.0
355.243	1.0	go	0.397	Go_X	0.0
357.777	1.0	go	0.669	Go_O	1.0
360.31	0.25	stopfail	0.46	Go_O	0.0
362.843	1.0	go	0.327	Go_X	1.0
365.377	1.0	go	0.518	Go_O	1.0
367.926	0.2	stopfail	0.7	Go_X	0.0
370.46	1.0	go	0.0	Go_X	0.0
372.993	1.0	go	0.0	Go_O	0.0
375.526	0.15	stopsuccess	0.0	Go_O	1.0
378.05899999999997	1.0	go	0.394	Go_O	1.0
380.593	1.0	go	0.417	Go_X	1.0
383.126	1.0	go	0.549	Go_X	1.0
385.659	1.0	go	0.542	Go_O	1.0
388.192	1.0	go	0.336	Go_O	1.0
390.726	1.0	go	0.288	Go_X	1.0
393.259	0.2	stopsuccess	0.0	Go_X	1.0
395.792	1.0	go	0.405	Go_X	0.0
398.325	0.25	stopsuccess	0.0	Go_O	1.0
400.859	1.0	go	0.794	Go_O	0.0
403.392	1.0	go	0.698	Go_O	1.0
405.925	1.0	go	0.52	Go_X	1.0
408.45799999999997	1.0	go	0.58	Go_X	0.0
410.992	1.0	go	0.232	Go_O	0.0
413.525	0.3	stopfail	0.607	Go_X	0.0
416.058	1.0	go	0.669	Go_X	1.0
418.591	1.0	go	0.389	Go_O	1.0
421.125	1.0	go	0.371	Go_O	1.0
423.658	0.25	stopfail	0.467	Go_O	0.0
426.191	0.2	stopfail	0.499	Go_X	0.0
428.724	0.15	stopsuccess	0.0	Go_O	1.0
431.258	1.0	go	0.453	Go_X	1.0
433.791	0.2	stopsuccess	0.0	Go_X	1.0
436.324	1.0	go	0.458	Go_O	1.0
438.85699999999997	1.0	go	0.0	Go_X	0.0
441.391	1.0	go	0.873	Go_X	1.0
443.924	1.0	go	0.0	Go_O	0.0
446.457	1.0	go	0.445	Go_X	1.0
448.991	1.0	go	0.474	Go_O	1.0
451.54	1.0	go	0.531	Go_X	1.0
454.074	1.0	go	0.389	Go_O	1.0
456.60699999999997	0.25	stopfail	0.517	Go_O	0.0
459.14	1.0	go	0.735	Go_X	1.0
461.673	1.0	go	0.49	Go_O	1.0
464.207	0.2	stopfail	0.553	Go_X	0.0
466.74	1.0	go	0.569	Go_O	1.0
469.273	1.0	go	0.272	Go_X	1.0
471.80600000000004	1.0	go	0.361	Go_X	1.0
474.34000000000003	1.0	go	0.432	Go_O	1.0
476.87300000000005	1.0	go	0.941	Go_X	1.0
479.40599999999995	0.15	stopfail	0.401	Go_O	0.0
481.93899999999996	1.0	go	0.476	Go_O	1.0
484.47299999999996	1.0	go	0.0	Go_O	0.0
487.006	1.0	go	0.655	Go_X	1.0
489.539	0.1	stopsuccess	0.0	Go_X	1.0
492.072	1.0	go	0.0	Go_O	0.0
494.606	0.15	stopsuccess	0.0	Go_O	1.0
497.139	1.0	go	0.542	Go_X	1.0
499.672	1.0	go	0.67	Go_O	1.0
502.20500000000004	1.0	go	0.0	Go_X	0.0
504.73900000000003	1.0	go	0.52	Go_O	1.0
507.27200000000005	1.0	go	0.468	Go_X	1.0
509.80499999999995	1.0	go	0.426	Go_O	1.0
512.338	1.0	go	0.544	Go_X	1.0
514.872	0.2	stopfail	0.47	Go_X	0.0
517.405	1.0	go	0.709	Go_O	1.0
519.938	1.0	go	0.427	Go_X	1.0
522.472	1.0	go	0.527	Go_O	0.0
525.021	1.0	go	0.601	Go_X	1.0
527.555	0.15	stopsuccess	0.0	Go_O	1.0
530.088	1.0	go	0.384	Go_X	1.0
532.621	0.2	stopfail	0.33	Go_X	0.0
535.154	1.0	go	0.591	Go_O	0.0
537.688	1.0	go	0.411	Go_O	0.0
540.221	0.15	stopfail	0.265	Go_O	0.0
542.754	1.0	go	0.416	Go_X	0.0
545.287	1.0	go	0.464	Go_X	1.0
547.821	1.0	go	0.58	Go_O	1.0
550.354	1.0	go	0.879	Go_X	0.0
552.887	1.0	go	0.466	Go_O	1.0
555.42	1.0	go	0.58	Go_X	1.0
557.954	1.0	go	0.543	Go_O	1.0
560.487	1.0	go	0.59	Go_O	1.0
563.02	1.0	go	0.654	Go_X	1.0
565.553	1.0	go	0.0	Go_O	0.0
568.087	0.1	stopsuccess	0.0	Go_X	1.0
570.62	1.0	go	0.785	Go_X	1.0
573.153	1.0	go	0.467	Go_O	1.0
575.686	0.15	stopsuccess	0.0	Go_O	1.0
578.22	1.0	go	0.477	Go_X	1.0
580.753	0.2	stopsuccess	0.0	Go_X	1.0
583.286	1.0	go	0.458	Go_O	1.0
585.819	1.0	go	0.0	Go_X	0.0
588.353	0.25	stopsuccess	0.0	Go_O	1.0
590.886	1.0	go	0.0	Go_O	0.0
593.419	0.3	stopfail	0.431	Go_X	0.0
595.953	1.0	go	0.063	Go_X	1.0
598.502	1.0	go	0.397	Go_X	1.0
601.036	1.0	go	0.506	Go_O	1.0
603.569	0.25	stopfail	0.708	Go_O	0.0
606.102	1.0	go	0.472	Go_X	1.0
608.635	1.0	go	0.682	Go_O	1.0
611.169	1.0	go	0.215	Go_X	0.0
613.702	1.0	go	0.084	Go_O	1.0
616.235	0.2	stopsuccess	0.0	Go_X	1.0
618.768	1.0	go	0.508	Go_X	1.0
621.302	1.0	go	0.299	Go_O	1.0
623.835	0.25	stopsuccess	0.0	Go_O	1.0
626.3679999999999	1.0	go	0.402	Go_X	1.0
628.901	1.0	go	0.302	Go_O	1.0
631.435	1.0	go	0.404	Go_O	1.0
633.968	1.0	go	0.485	Go_X	1.0
636.501	0.3	stopfail	0.415	Go_X	0.0
639.034	1.0	go	0.78	Go_O	1.0
641.568	0.25	stopfail	0.36	Go_O	0.0
644.101	1.0	go	0.0	Go_X	0.0
646.634	1.0	go	0.473	Go_X	1.0
649.167	0.2	stopfail	0.512	Go_X	0.0
651.701	1.0	go	0.46	Go_O	0.0
654.234	1.0	go	0.248	Go_X	0.0
656.7669999999999	1.0	go	0.301	Go_O	1.0
659.3	1.0	go	0.648	Go_X	1.0
661.834	0.15	stopsuccess	0.0	Go_O	1.0
664.367	1.0	go	0.0	Go_O	0.0
666.9	0.2	stopsuccess	0.0	Go_X	1.0
669.434	1.0	go	0.456	Go_X	0.0
671.983	1.0	go	0.0	Go_O	0.0
674.5169999999999	1.0	go	0.0	Go_X	0.0
677.05	1.0	go	0.0	Go_O	0.0
679.583	1.0	go	0.335	Go_X	1.0
682.116	1.0	go	0.742	Go_O	1.0
684.65	0.25	stopfail	0.535	Go_O	0.0
687.183	1.0	go	0.0	Go_X	0.0
689.716	1.0	go	0.486	Go_O	1.0
692.249	0.2	stopsuccess	0.0	Go_X	1.0
694.783	1.0	go	0.0	Go_O	0.0
697.316	1.0	go	0.084	Go_X	0.0
699.849	0.25	stopfail	0.091	Go_O	0.0
702.382	1.0	go	0.265	Go_O	1.0
704.9159999999999	1.0	go	0.42	Go_X	1.0
707.449	1.0	go	0.528	Go_O	1.0
709.982	1.0	go	0.0	Go_X	0.0
712.515	0.2	stopsuccess	0.0	Go_X	1.0
715.049	1.0	go	0.0	Go_X	0.0
717.582	0.25	stopsuccess	0.0	Go_O	1.0
720.115	1.0	go	0.576	Go_O	1.0
722.648	1.0	go	0.558	Go_X	1.0
725.182	1.0	go	0.345	Go_O	1.0
727.715	1.0	go	0.364	Go_X	1.0
730.248	1.0	go	0.588	Go_O	1.0
732.781	0.3	stopsuccess	0.0	Go_X	1.0
735.3149999999999	1.0	go	0.476	Go_O	1.0
737.848	1.0	go	0.453	Go_X	0.0
740.381	0.35	stopfail	0.434	Go_O	0.0
742.914	0.3	stopfail	0.413	Go_X	0.0
745.448	1.0	go	0.394	Go_O	1.0
747.981	1.0	go	0.738	Go_X	1.0
750.514	1.0	go	0.475	Go_O	1.0
753.047	1.0	go	0.624	Go_X	1.0
755.581	0.25	stopsuccess	0.0	Go_O	1.0
758.114	1.0	go	0.395	Go_O	1.0
