onset	duration	trial_type	response_time	stim_file	accuracy
56.79	1.0	go	0.901	Go_X	1.0
59.324	1.0	go	0.583	Go_O	1.0
61.857	1.0	go	0.646	Go_X	1.0
64.39	1.0	go	0.713	Go_O	1.0
66.923	1.0	go	0.818	Go_X	1.0
69.457	1.0	go	0.888	Go_O	1.0
71.99	0.25	stopsuccess	0.0	Go_O	1.0
74.523	1.0	go	0.414	Go_O	1.0
77.056	0.3	stopfail	0.559	Go_X	0.0
79.59	1.0	go	0.504	Go_X	1.0
82.123	1.0	go	0.421	Go_O	1.0
84.656	1.0	go	0.452	Go_X	1.0
87.189	0.25	stopsuccess	0.0	Go_O	1.0
89.723	1.0	go	0.444	Go_X	1.0
92.256	1.0	go	0.506	Go_O	1.0
94.789	0.3	stopsuccess	0.0	Go_X	1.0
97.323	0.35	stopfail	0.445	Go_O	0.0
99.872	1.0	go	0.627	Go_X	1.0
102.406	1.0	go	0.398	Go_O	1.0
104.939	0.3	stopsuccess	0.0	Go_X	1.0
107.472	1.0	go	0.704	Go_O	1.0
110.005	1.0	go	0.431	Go_X	1.0
112.539	0.35	stopfail	0.37	Go_O	0.0
115.072	1.0	go	0.489	Go_O	1.0
117.605	1.0	go	0.707	Go_X	1.0
120.138	0.3	stopsuccess	0.0	Go_X	1.0
122.672	1.0	go	0.505	Go_X	1.0
125.205	1.0	go	0.511	Go_O	1.0
127.738	0.35	stopfail	0.474	Go_O	0.0
130.271	1.0	go	0.338	Go_O	1.0
132.805	1.0	go	0.591	Go_X	1.0
135.338	1.0	go	0.686	Go_X	1.0
137.871	1.0	go	0.836	Go_O	1.0
140.404	1.0	go	0.913	Go_O	1.0
142.938	0.3	stopsuccess	0.0	Go_X	1.0
145.471	1.0	go	0.382	Go_X	1.0
148.004	1.0	go	0.389	Go_O	1.0
150.537	1.0	go	0.427	Go_X	1.0
153.071	1.0	go	0.457	Go_X	1.0
155.604	1.0	go	0.491	Go_O	1.0
158.137	0.35	stopsuccess	0.0	Go_O	1.0
160.67	1.0	go	0.44	Go_O	1.0
163.204	1.0	go	0.61	Go_X	1.0
165.737	1.0	go	0.601	Go_O	1.0
168.27	1.0	go	0.681	Go_X	1.0
170.803	1.0	go	0.908	Go_X	1.0
173.337	1.0	go	0.749	Go_O	1.0
175.87	0.4	stopsuccess	0.0	Go_X	1.0
178.403	1.0	go	0.292	Go_X	1.0
180.937	1.0	go	0.498	Go_O	1.0
183.486	0.45	stopfail	0.457	Go_O	0.0
186.02	1.0	go	0.394	Go_X	1.0
188.553	0.4	stopfail	0.506	Go_X	0.0
191.086	0.35	stopfail	0.481	Go_O	0.0
193.619	1.0	go	0.632	Go_O	1.0
196.153	1.0	go	0.512	Go_O	1.0
198.686	1.0	go	0.973	Go_X	1.0
201.219	1.0	go	0.415	Go_O	1.0
203.752	0.3	stopfail	0.401	Go_X	0.0
206.286	1.0	go	0.394	Go_X	1.0
208.819	0.25	stopfail	0.314	Go_O	0.0
211.352	1.0	go	0.379	Go_X	1.0
213.885	1.0	go	0.421	Go_O	1.0
216.419	1.0	go	0.429	Go_X	1.0
218.952	1.0	go	0.457	Go_O	1.0
221.485	1.0	go	0.645	Go_O	1.0
224.018	1.0	go	0.58	Go_X	1.0
226.552	1.0	go	0.793	Go_X	1.0
229.085	1.0	go	0.484	Go_O	0.0
231.618	1.0	go	0.834	Go_O	1.0
234.151	0.2	stopsuccess	0.0	Go_X	1.0
236.685	1.0	go	0.537	Go_X	1.0
239.218	1.0	go	0.589	Go_O	1.0
241.751	1.0	go	0.993	Go_X	0.0
244.284	0.25	stopfail	0.362	Go_O	0.0
246.818	1.0	go	0.523	Go_X	1.0
249.351	1.0	go	0.576	Go_O	1.0
251.884	1.0	go	0.597	Go_O	1.0
254.417	1.0	go	0.695	Go_X	0.0
256.951	1.0	go	0.549	Go_O	1.0
259.484	1.0	go	0.0	Go_X	0.0
262.017	0.2	stopsuccess	0.0	Go_X	1.0
264.551	1.0	go	0.5	Go_X	1.0
267.1	1.0	go	0.688	Go_O	1.0
269.634	0.25	stopsuccess	0.0	Go_O	1.0
272.167	1.0	go	0.353	Go_X	1.0
274.7	1.0	go	0.677	Go_O	0.0
277.233	0.3	stopfail	0.481	Go_X	0.0
279.767	1.0	go	0.371	Go_O	1.0
282.3	0.25	stopsuccess	0.0	Go_O	1.0
284.833	1.0	go	0.652	Go_X	1.0
287.366	1.0	go	0.0	Go_X	0.0
289.9	1.0	go	0.372	Go_O	1.0
292.433	1.0	go	0.357	Go_X	1.0
294.966	1.0	go	0.443	Go_O	1.0
297.499	0.3	stopfail	0.408	Go_X	0.0
300.033	0.25	stopfail	0.342	Go_O	0.0
302.566	1.0	go	0.462	Go_O	1.0
305.099	1.0	go	0.745	Go_X	1.0
307.632	0.2	stopsuccess	0.0	Go_X	1.0
310.166	1.0	go	0.736	Go_O	1.0
312.699	1.0	go	0.501	Go_X	1.0
315.232	1.0	go	0.875	Go_X	1.0
317.765	1.0	go	0.506	Go_O	1.0
320.299	1.0	go	0.466	Go_X	0.0
322.832	1.0	go	0.579	Go_O	1.0
325.365	0.25	stopsuccess	0.0	Go_O	1.0
327.898	1.0	go	0.474	Go_O	1.0
330.432	1.0	go	0.427	Go_X	1.0
332.965	1.0	go	0.587	Go_O	1.0
335.498	1.0	go	0.68	Go_X	1.0
338.032	1.0	go	0.512	Go_X	1.0
340.581	0.3	stopsuccess	0.0	Go_X	1.0
343.115	1.0	go	0.593	Go_O	1.0
345.648	1.0	go	0.4	Go_X	1.0
348.181	1.0	go	0.475	Go_O	1.0
350.714	1.0	go	0.442	Go_O	0.0
353.248	0.35	stopfail	0.481	Go_O	0.0
355.781	1.0	go	0.427	Go_X	1.0
358.314	1.0	go	0.386	Go_O	1.0
360.847	0.3	stopfail	0.517	Go_X	0.0
363.381	1.0	go	0.61	Go_X	1.0
365.914	0.25	stopsuccess	0.0	Go_O	1.0
368.447	1.0	go	0.655	Go_X	1.0
370.98	1.0	go	0.327	Go_O	1.0
373.514	1.0	go	0.612	Go_X	1.0
376.047	1.0	go	0.586	Go_O	1.0
378.58	1.0	go	0.501	Go_X	1.0
381.113	1.0	go	0.501	Go_O	1.0
383.647	1.0	go	0.49	Go_X	1.0
386.18	0.3	stopfail	0.526	Go_X	0.0
388.713	1.0	go	0.117	Go_O	1.0
391.246	1.0	go	0.028	Go_X	0.0
393.78	1.0	go	0.204	Go_O	1.0
396.313	0.25	stopsuccess	0.0	Go_O	1.0
398.846	1.0	go	0.0	Go_O	0.0
401.379	1.0	go	0.246	Go_X	0.0
403.913	1.0	go	0.453	Go_O	1.0
406.446	1.0	go	0.677	Go_X	1.0
408.979	0.3	stopfail	0.281	Go_X	0.0
411.512	1.0	go	0.397	Go_X	0.0
414.046	1.0	go	0.669	Go_O	1.0
416.579	0.25	stopfail	0.46	Go_O	0.0
419.112	1.0	go	0.327	Go_X	1.0
421.646	1.0	go	0.518	Go_O	1.0
424.195	0.2	stopfail	0.7	Go_X	0.0
426.729	1.0	go	0.0	Go_X	0.0
429.262	1.0	go	0.0	Go_O	0.0
431.795	0.15	stopsuccess	0.0	Go_O	1.0
434.328	1.0	go	0.394	Go_O	1.0
436.862	1.0	go	0.417	Go_X	1.0
439.395	1.0	go	0.549	Go_X	1.0
441.928	1.0	go	0.542	Go_O	1.0
444.461	1.0	go	0.336	Go_O	1.0
446.995	1.0	go	0.288	Go_X	1.0
449.528	0.2	stopsuccess	0.0	Go_X	1.0
452.061	1.0	go	0.405	Go_X	0.0
454.594	0.25	stopsuccess	0.0	Go_O	1.0
457.128	1.0	go	0.794	Go_O	0.0
459.661	1.0	go	0.698	Go_O	1.0
462.194	1.0	go	0.52	Go_X	1.0
464.727	1.0	go	0.58	Go_X	0.0
467.261	1.0	go	0.232	Go_O	0.0
469.794	0.3	stopfail	0.607	Go_X	0.0
472.327	1.0	go	0.669	Go_X	1.0
474.86	1.0	go	0.389	Go_O	1.0
477.394	1.0	go	0.371	Go_O	1.0
479.927	0.25	stopfail	0.467	Go_O	0.0
482.46	0.2	stopfail	0.499	Go_X	0.0
484.993	0.15	stopsuccess	0.0	Go_O	1.0
487.527	1.0	go	0.453	Go_X	1.0
490.06	0.2	stopsuccess	0.0	Go_X	1.0
492.593	1.0	go	0.458	Go_O	1.0
495.126	1.0	go	0.0	Go_X	0.0
497.66	1.0	go	0.873	Go_X	1.0
500.193	1.0	go	0.0	Go_O	0.0
502.726	1.0	go	0.445	Go_X	1.0
505.26	1.0	go	0.474	Go_O	1.0
507.809	1.0	go	0.531	Go_X	1.0
510.343	1.0	go	0.389	Go_O	1.0
512.876	0.25	stopfail	0.517	Go_O	0.0
515.409	1.0	go	0.735	Go_X	1.0
517.942	1.0	go	0.49	Go_O	1.0
520.476	0.2	stopfail	0.553	Go_X	0.0
523.009	1.0	go	0.569	Go_O	1.0
525.542	1.0	go	0.272	Go_X	1.0
528.075	1.0	go	0.361	Go_X	1.0
530.609	1.0	go	0.432	Go_O	1.0
533.142	1.0	go	0.941	Go_X	1.0
535.675	0.15	stopfail	0.401	Go_O	0.0
538.208	1.0	go	0.476	Go_O	1.0
540.742	1.0	go	0.0	Go_O	0.0
543.275	1.0	go	0.655	Go_X	1.0
545.808	0.1	stopsuccess	0.0	Go_X	1.0
548.341	1.0	go	0.0	Go_O	0.0
550.875	0.15	stopsuccess	0.0	Go_O	1.0
553.408	1.0	go	0.542	Go_X	1.0
555.941	1.0	go	0.67	Go_O	1.0
558.474	1.0	go	0.0	Go_X	0.0
561.008	1.0	go	0.52	Go_O	1.0
563.541	1.0	go	0.468	Go_X	1.0
566.074	1.0	go	0.426	Go_O	1.0
568.607	1.0	go	0.544	Go_X	1.0
571.141	0.2	stopfail	0.47	Go_X	0.0
573.674	1.0	go	0.709	Go_O	1.0
576.207	1.0	go	0.427	Go_X	1.0
578.741	1.0	go	0.527	Go_O	0.0
581.29	1.0	go	0.601	Go_X	1.0
583.824	0.15	stopsuccess	0.0	Go_O	1.0
586.357	1.0	go	0.384	Go_X	1.0
588.89	0.2	stopfail	0.33	Go_X	0.0
591.423	1.0	go	0.591	Go_O	0.0
593.957	1.0	go	0.411	Go_O	0.0
596.49	0.15	stopfail	0.265	Go_O	0.0
599.023	1.0	go	0.416	Go_X	0.0
601.556	1.0	go	0.464	Go_X	1.0
604.09	1.0	go	0.58	Go_O	1.0
606.623	1.0	go	0.879	Go_X	0.0
609.156	1.0	go	0.466	Go_O	1.0
611.689	1.0	go	0.58	Go_X	1.0
614.223	1.0	go	0.543	Go_O	1.0
616.756	1.0	go	0.59	Go_O	1.0
619.289	1.0	go	0.654	Go_X	1.0
621.822	1.0	go	0.0	Go_O	0.0
624.356	0.1	stopsuccess	0.0	Go_X	1.0
626.889	1.0	go	0.785	Go_X	1.0
629.422	1.0	go	0.467	Go_O	1.0
631.955	0.15	stopsuccess	0.0	Go_O	1.0
634.489	1.0	go	0.477	Go_X	1.0
637.022	0.2	stopsuccess	0.0	Go_X	1.0
639.555	1.0	go	0.458	Go_O	1.0
642.088	1.0	go	0.0	Go_X	0.0
644.622	0.25	stopsuccess	0.0	Go_O	1.0
647.155	1.0	go	0.0	Go_O	0.0
649.688	0.3	stopfail	0.431	Go_X	0.0
652.222	1.0	go	0.063	Go_X	1.0
654.771	1.0	go	0.397	Go_X	1.0
657.305	1.0	go	0.506	Go_O	1.0
659.838	0.25	stopfail	0.708	Go_O	0.0
662.371	1.0	go	0.472	Go_X	1.0
664.904	1.0	go	0.682	Go_O	1.0
667.438	1.0	go	0.215	Go_X	0.0
669.971	1.0	go	0.084	Go_O	1.0
672.504	0.2	stopsuccess	0.0	Go_X	1.0
675.037	1.0	go	0.508	Go_X	1.0
677.571	1.0	go	0.299	Go_O	1.0
680.104	0.25	stopsuccess	0.0	Go_O	1.0
682.637	1.0	go	0.402	Go_X	1.0
685.17	1.0	go	0.302	Go_O	1.0
687.704	1.0	go	0.404	Go_O	1.0
690.237	1.0	go	0.485	Go_X	1.0
692.77	0.3	stopfail	0.415	Go_X	0.0
695.303	1.0	go	0.78	Go_O	1.0
697.837	0.25	stopfail	0.36	Go_O	0.0
700.37	1.0	go	0.0	Go_X	0.0
702.903	1.0	go	0.473	Go_X	1.0
705.436	0.2	stopfail	0.512	Go_X	0.0
707.97	1.0	go	0.46	Go_O	0.0
710.503	1.0	go	0.248	Go_X	0.0
713.036	1.0	go	0.301	Go_O	1.0
715.569	1.0	go	0.648	Go_X	1.0
718.103	0.15	stopsuccess	0.0	Go_O	1.0
720.636	1.0	go	0.0	Go_O	0.0
723.169	0.2	stopsuccess	0.0	Go_X	1.0
725.703	1.0	go	0.456	Go_X	0.0
728.252	1.0	go	0.0	Go_O	0.0
730.786	1.0	go	0.0	Go_X	0.0
733.319	1.0	go	0.0	Go_O	0.0
735.852	1.0	go	0.335	Go_X	1.0
738.385	1.0	go	0.742	Go_O	1.0
740.919	0.25	stopfail	0.535	Go_O	0.0
743.452	1.0	go	0.0	Go_X	0.0
745.985	1.0	go	0.486	Go_O	1.0
748.518	0.2	stopsuccess	0.0	Go_X	1.0
751.052	1.0	go	0.0	Go_O	0.0
753.585	1.0	go	0.084	Go_X	0.0
756.118	0.25	stopfail	0.091	Go_O	0.0
758.651	1.0	go	0.265	Go_O	1.0
761.185	1.0	go	0.42	Go_X	1.0
763.718	1.0	go	0.528	Go_O	1.0
766.251	1.0	go	0.0	Go_X	0.0
768.784	0.2	stopsuccess	0.0	Go_X	1.0
771.318	1.0	go	0.0	Go_X	0.0
773.851	0.25	stopsuccess	0.0	Go_O	1.0
776.384	1.0	go	0.576	Go_O	1.0
778.917	1.0	go	0.558	Go_X	1.0
781.451	1.0	go	0.345	Go_O	1.0
783.984	1.0	go	0.364	Go_X	1.0
786.517	1.0	go	0.588	Go_O	1.0
789.05	0.3	stopsuccess	0.0	Go_X	1.0
791.584	1.0	go	0.476	Go_O	1.0
794.117	1.0	go	0.453	Go_X	0.0
796.65	0.35	stopfail	0.434	Go_O	0.0
799.183	0.3	stopfail	0.413	Go_X	0.0
801.717	1.0	go	0.394	Go_O	1.0
804.25	1.0	go	0.738	Go_X	1.0
806.783	1.0	go	0.475	Go_O	1.0
809.316	1.0	go	0.624	Go_X	1.0
811.85	0.25	stopsuccess	0.0	Go_O	1.0
814.383	1.0	go	0.395	Go_O	1.0
