frame	onset	duration	trial_type	event_type	response_type	response_time	stim_file	accuracy
0	53.006		loss-reward	ImageDisplay1		0.0		
0	55.24	0.75	loss-reward	StartDisplay				
0	55.99		loss-reward	ImageDisplay2		0.0		
0	58.99	1.6	loss-reward	ChoiceDisplay	1	0.919	1	1
0	59.923	0.681	loss-reward	ChosenDisplay		0.0		
0	60.59	0.25	loss-reward	TurnDisplay				
0	60.84	0.75	loss-reward	OutcomeDisplay				
1	61.589		win-reward	ImageDisplay1		0.0		
1	63.839	0.75	win-reward	StartDisplay				
1	64.589		win-reward	ImageDisplay2		0.0		
1	67.589	1.6	win-reward	ChoiceDisplay	1	0.626	1	1
1	68.239	0.974	win-reward	ChosenDisplay		0.0		
1	69.189	0.25	win-reward	TurnDisplay				
1	69.439	0.75	win-reward	OutcomeDisplay				
2	70.189		control-noreward	ImageDisplay1		0.0		
2	72.189	0.75	control-noreward	StartDisplay				
2	72.939		control-noreward	ImageDisplay2		0.0		
2	76.189	1.6	control-noreward	ChoiceDisplay	1	0.609	1	1
2	76.822	0.991	control-noreward	ChosenDisplay		0.0		
2	77.789	0.25	control-noreward	TurnDisplay				
2	78.039	0.75	control-noreward	OutcomeDisplay				
3	78.789		win-reward	ImageDisplay1		0.0		
3	80.789	0.75	win-reward	StartDisplay				
3	81.539		win-reward	ImageDisplay2		0.0		
3	84.789	1.6	win-reward	ChoiceDisplay	1	0.595	1	1
3	85.405	1.005	win-reward	ChosenDisplay		0.0		
3	86.389	0.25	win-reward	TurnDisplay				
3	86.639	0.75	win-reward	OutcomeDisplay				
4	87.389		control-reward	ImageDisplay1		0.0		
4	89.389	0.75	control-reward	StartDisplay				
4	90.139		control-reward	ImageDisplay2		0.0		
4	93.388	1.6	control-reward	ChoiceDisplay	1	1.244	1	1
4	94.655	0.356	control-reward	ChosenDisplay		0.0		
4	94.988	0.25	control-reward	TurnDisplay				
4	95.238	0.75	control-reward	OutcomeDisplay				
5	95.988		loss-reward	ImageDisplay1		0.0		
5	98.238	0.75	loss-reward	StartDisplay				
5	98.988		loss-reward	ImageDisplay2		0.0		
5	101.988	1.6	loss-reward	ChoiceDisplay	1	1.026	1	1
5	103.038	0.574	loss-reward	ChosenDisplay		0.0		
5	103.588	0.25	loss-reward	TurnDisplay				
5	103.838	0.75	loss-reward	OutcomeDisplay				
6	104.588		win-noreward	ImageDisplay1		0.0		
6	106.838	0.75	win-noreward	StartDisplay				
6	107.588		win-noreward	ImageDisplay2		0.0		
6	110.588	1.6	win-noreward	ChoiceDisplay	1	1.0	1	1
6	111.605	0.6	win-noreward	ChosenDisplay		0.0		
6	112.188	0.25	win-noreward	TurnDisplay				
6	112.438	0.75	win-noreward	OutcomeDisplay				
7	113.188		loss-reward	ImageDisplay1		0.0		
7	115.188	0.75	loss-reward	StartDisplay				
7	115.938		loss-reward	ImageDisplay2		0.0		
7	119.188	1.6	loss-reward	ChoiceDisplay	1	1.238	1	1
7	120.454	0.362	loss-reward	ChosenDisplay		0.0		
7	120.788	0.25	loss-reward	TurnDisplay				
7	121.038	0.75	loss-reward	OutcomeDisplay				
8	121.788		control-noreward	ImageDisplay1		0.0		
8	124.038	0.75	control-noreward	StartDisplay				
8	124.788		control-noreward	ImageDisplay2		0.0		
8	127.787	1.6	control-noreward	ChoiceDisplay	1	0.388	1	1
8	128.187	1.212	control-noreward	ChosenDisplay		0.0		
8	129.387	0.25	control-noreward	TurnDisplay				
8	129.637	0.75	control-noreward	OutcomeDisplay				
9	130.387		control-noreward	ImageDisplay1		0.0		
9	132.637	0.75	control-noreward	StartDisplay				
9	133.387		control-noreward	ImageDisplay2		0.0		
9	136.387	1.6	control-noreward	ChoiceDisplay	1	0.543	1	1
9	136.954	1.057	control-noreward	ChosenDisplay		0.0		
9	137.987	0.25	control-noreward	TurnDisplay				
9	138.237	0.75	control-noreward	OutcomeDisplay				
10	138.987		win-noreward	ImageDisplay1		0.0		
10	140.987	0.75	win-noreward	StartDisplay				
10	141.737		win-noreward	ImageDisplay2		0.0		
10	144.987	1.6	win-noreward	ChoiceDisplay	1	0.736	1	1
10	145.737	0.864	win-noreward	ChosenDisplay		0.0		
10	146.587	0.25	win-noreward	TurnDisplay				
10	146.837	0.75	win-noreward	OutcomeDisplay				
11	147.587		loss-reward	ImageDisplay1		0.0		
11	149.587	0.75	loss-reward	StartDisplay				
11	150.337		loss-reward	ImageDisplay2		0.0		
11	153.587	1.6	loss-reward	ChoiceDisplay	1	0.621	1	1
11	154.22	0.979	loss-reward	ChosenDisplay		0.0		
11	155.187	0.25	loss-reward	TurnDisplay				
11	155.437	0.75	loss-reward	OutcomeDisplay				
12	156.187		win-noreward	ImageDisplay1		0.0		
12	158.436	0.75	win-noreward	StartDisplay				
12	159.186		win-noreward	ImageDisplay2		0.0		
12	162.186	1.6	win-noreward	ChoiceDisplay	1	0.431	1	1
12	162.636	1.169	win-noreward	ChosenDisplay		0.0		
12	163.786	0.25	win-noreward	TurnDisplay				
12	164.036	0.75	win-noreward	OutcomeDisplay				
13	164.786		loss-reward	ImageDisplay1		0.0		
13	167.036	0.75	loss-reward	StartDisplay				
13	167.786		loss-reward	ImageDisplay2		0.0		
13	170.786	1.6	loss-reward	ChoiceDisplay	1	0.563	1	1
13	171.369	1.037	loss-reward	ChosenDisplay		0.0		
13	172.386	0.25	loss-reward	TurnDisplay				
13	172.636	0.75	loss-reward	OutcomeDisplay				
14	173.386		loss-noreward	ImageDisplay1		0.0		
14	175.386	0.75	loss-noreward	StartDisplay				
14	176.136		loss-noreward	ImageDisplay2		0.0		
14	179.386	1.6	loss-noreward	ChoiceDisplay	1	0.732	1	1
14	180.136	0.868	loss-noreward	ChosenDisplay		0.0		
14	180.986	0.25	loss-noreward	TurnDisplay				
14	181.236	0.75	loss-noreward	OutcomeDisplay				
15	181.986		loss-reward	ImageDisplay1		0.0		
15	183.986	0.75	loss-reward	StartDisplay				
15	184.736		loss-reward	ImageDisplay2		0.0		
15	187.985	1.6	loss-reward	ChoiceDisplay	1	0.456	1	1
15	188.469	1.144	loss-reward	ChosenDisplay		0.0		
15	189.585	0.25	loss-reward	TurnDisplay				
15	189.835	0.75	loss-reward	OutcomeDisplay				
16	190.585		control-noreward	ImageDisplay1		0.0		
16	192.835	0.75	control-noreward	StartDisplay				
16	193.585		control-noreward	ImageDisplay2		0.0		
16	196.585	1.6	control-noreward	ChoiceDisplay	1	0.277	1	1
16	196.885	1.323	control-noreward	ChosenDisplay		0.0		
16	198.185	0.25	control-noreward	TurnDisplay				
16	198.435	0.75	control-noreward	OutcomeDisplay				
17	199.185		win-noreward	ImageDisplay1		0.0		
17	201.185	0.75	win-noreward	StartDisplay				
17	201.935		win-noreward	ImageDisplay2		0.0		
17	205.185	1.6	win-noreward	ChoiceDisplay	1	0.833	1	1
17	206.035	0.767	win-noreward	ChosenDisplay		0.0		
17	206.785	0.25	win-noreward	TurnDisplay				
17	207.035	0.75	win-noreward	OutcomeDisplay				
18	207.785		control-reward	ImageDisplay1		0.0		
18	210.035	0.75	control-reward	StartDisplay				
18	210.785		control-reward	ImageDisplay2		0.0		
18	213.785	1.6	control-reward	ChoiceDisplay	1	0.298	1	1
18	214.101	1.302	control-reward	ChosenDisplay		0.0		
18	215.385	0.25	control-reward	TurnDisplay				
18	215.635	0.75	control-reward	OutcomeDisplay				
19	216.385		win-reward	ImageDisplay1		0.0		
19	218.385	0.75	win-reward	StartDisplay				
19	219.135		win-reward	ImageDisplay2		0.0		
19	222.384	1.6	win-reward	ChoiceDisplay	1	0.967	1	1
19	223.368	0.633	win-reward	ChosenDisplay		0.0		
19	223.984	0.25	win-reward	TurnDisplay				
19	224.234	0.75	win-reward	OutcomeDisplay				
20	224.984		win-reward	ImageDisplay1		0.0		
20	227.234	0.75	win-reward	StartDisplay				
20	227.984		win-reward	ImageDisplay2		0.0		
20	230.984	1.6	win-reward	ChoiceDisplay	1	1.08	1	1
20	232.084	0.52	win-reward	ChosenDisplay		0.0		
20	232.584	0.25	win-reward	TurnDisplay				
20	232.834	0.75	win-reward	OutcomeDisplay				
21	233.584		win-reward	ImageDisplay1		0.0		
21	235.834	0.75	win-reward	StartDisplay				
21	236.584		win-reward	ImageDisplay2		0.0		
21	239.584	1.6	win-reward	ChoiceDisplay	1	1.072	1	1
21	240.684	0.528	win-reward	ChosenDisplay		0.0		
21	241.184	0.25	win-reward	TurnDisplay				
21	241.434	0.75	win-reward	OutcomeDisplay				
22	242.184		loss-noreward	ImageDisplay1		0.0		
22	244.434	0.75	loss-noreward	StartDisplay				
22	245.184		loss-noreward	ImageDisplay2		0.0		
22	248.184	1.6	loss-noreward	ChoiceDisplay	1	1.065	1	1
22	249.267	0.535	loss-noreward	ChosenDisplay		0.0		
22	249.784	0.25	loss-noreward	TurnDisplay				
22	250.034	0.75	loss-noreward	OutcomeDisplay				
23	250.783		control-noreward	ImageDisplay1		0.0		
23	252.783	0.75	control-noreward	StartDisplay				
23	253.533		control-noreward	ImageDisplay2		0.0		
23	256.783	1.6	control-noreward	ChoiceDisplay	1	0.241	1	1
23	257.05	1.359	control-noreward	ChosenDisplay		0.0		
23	258.383	0.25	control-noreward	TurnDisplay				
23	258.633	0.75	control-noreward	OutcomeDisplay				
24	259.383		loss-reward	ImageDisplay1		0.0		
24	261.383	0.75	loss-reward	StartDisplay				
24	262.133		loss-reward	ImageDisplay2		0.0		
24	265.383	1.6	loss-reward	ChoiceDisplay	1	0.951	1	1
24	266.35	0.649	loss-reward	ChosenDisplay		0.0		
24	266.983	0.25	loss-reward	TurnDisplay				
24	267.233	0.75	loss-reward	OutcomeDisplay				
25	267.983		win-reward	ImageDisplay1		0.0		
25	270.233	0.75	win-reward	StartDisplay				
25	270.983		win-reward	ImageDisplay2		0.0		
25	273.983	1.6	win-reward	ChoiceDisplay	1	0.614	1	1
25	274.616	0.986	win-reward	ChosenDisplay		0.0		
25	275.583	0.25	win-reward	TurnDisplay				
25	275.833	0.75	win-reward	OutcomeDisplay				
26	276.583		loss-noreward	ImageDisplay1		0.0		
26	278.583	0.75	loss-noreward	StartDisplay				
26	279.333		loss-noreward	ImageDisplay2		0.0		
26	282.582	1.6	loss-noreward	ChoiceDisplay	1	0.77	1	1
26	283.366	0.83	loss-noreward	ChosenDisplay		0.0		
26	284.182	0.25	loss-noreward	TurnDisplay				
26	284.432	0.75	loss-noreward	OutcomeDisplay				
27	285.182		control-reward	ImageDisplay1		0.0		
27	287.432	0.75	control-reward	StartDisplay				
27	288.182		control-reward	ImageDisplay2		0.0		
27	291.182	1.6	control-reward	ChoiceDisplay	1	0.415	1	1
27	291.616	1.185	control-reward	ChosenDisplay		0.0		
27	292.782	0.25	control-reward	TurnDisplay				
27	293.032	0.75	control-reward	OutcomeDisplay				
28	293.782		win-reward	ImageDisplay1		0.0		
28	296.032	0.75	win-reward	StartDisplay				
28	296.782		win-reward	ImageDisplay2		0.0		
28	299.782	1.6	win-reward	ChoiceDisplay	1	0.821	1	1
28	300.615	0.779	win-reward	ChosenDisplay		0.0		
28	301.382	0.25	win-reward	TurnDisplay				
28	301.632	0.75	win-reward	OutcomeDisplay				
29	302.382		control-noreward	ImageDisplay1		0.0		
29	304.382	0.75	control-noreward	StartDisplay				
29	305.132		control-noreward	ImageDisplay2		0.0		
29	308.382	1.6	control-noreward	ChoiceDisplay	1	0.642	1	1
29	309.048	0.958	control-noreward	ChosenDisplay		0.0		
29	309.982	0.25	control-noreward	TurnDisplay				
29	310.232	0.75	control-noreward	OutcomeDisplay				
30	310.982		loss-reward	ImageDisplay1		0.0		
30	312.982	0.75	loss-reward	StartDisplay				
30	313.731		loss-reward	ImageDisplay2		0.0		
30	316.981	1.6	loss-reward	ChoiceDisplay	1	0.648	1	1
30	317.648	0.952	loss-reward	ChosenDisplay		0.0		
30	318.581	0.25	loss-reward	TurnDisplay				
30	318.831	0.75	loss-reward	OutcomeDisplay				
31	319.581		win-reward	ImageDisplay1		0.0		
31	321.581	0.75	win-reward	StartDisplay				
31	322.331		win-reward	ImageDisplay2		0.0		
31	325.581	1.6	win-reward	ChoiceDisplay	1	0.786	1	1
31	326.381	0.814	win-reward	ChosenDisplay		0.0		
31	327.181	0.25	win-reward	TurnDisplay				
31	327.431	0.75	win-reward	OutcomeDisplay				
32	328.181		loss-reward	ImageDisplay1		0.0		
32	330.431	0.75	loss-reward	StartDisplay				
32	331.181		loss-reward	ImageDisplay2		0.0		
32	334.181	1.6	loss-reward	ChoiceDisplay	1	0.579	1	1
32	334.781	1.021	loss-reward	ChosenDisplay		0.0		
32	335.781	0.25	loss-reward	TurnDisplay				
32	336.031	0.75	loss-reward	OutcomeDisplay				
33	336.781		win-reward	ImageDisplay1		0.0		
33	338.781	0.75	win-reward	StartDisplay				
33	339.531		win-reward	ImageDisplay2		0.0		
33	342.781	1.6	win-reward	ChoiceDisplay	1	0.594	1	1
33	343.397	1.006	win-reward	ChosenDisplay		0.0		
33	344.38	0.25	win-reward	TurnDisplay				
33	344.63	0.75	win-reward	OutcomeDisplay				
34	345.38		win-reward	ImageDisplay1		0.0		
34	347.38	0.75	win-reward	StartDisplay				
34	348.13		win-reward	ImageDisplay2		0.0		
34	351.38	1.6	win-reward	ChoiceDisplay	1	0.514	1	1
34	351.914	1.086	win-reward	ChosenDisplay		0.0		
34	352.98	0.25	win-reward	TurnDisplay				
34	353.23	0.75	win-reward	OutcomeDisplay				
35	353.98		loss-noreward	ImageDisplay1		0.0		
35	355.98	0.75	loss-noreward	StartDisplay				
35	356.73		loss-noreward	ImageDisplay2		0.0		
35	359.98	1.6	loss-noreward	ChoiceDisplay	1	0.579	1	1
35	360.58	1.021	loss-noreward	ChosenDisplay		0.0		
35	361.58	0.25	loss-noreward	TurnDisplay				
35	361.83	0.75	loss-noreward	OutcomeDisplay				
36	362.58		control-noreward	ImageDisplay1		0.0		
36	364.58	0.75	control-noreward	StartDisplay				
36	365.33		control-noreward	ImageDisplay2		0.0		
36	368.58	1.6	control-noreward	ChoiceDisplay	1	0.528	1	1
36	369.13	1.072	control-noreward	ChosenDisplay		0.0		
36	370.18	0.25	control-noreward	TurnDisplay				
36	370.43	0.75	control-noreward	OutcomeDisplay				
37	371.18		control-reward	ImageDisplay1		0.0		
37	373.18	0.75	control-reward	StartDisplay				
37	373.93		control-reward	ImageDisplay2		0.0		
37	377.179	1.6	control-reward	ChoiceDisplay	1	0.43	1	1
37	377.629	1.17	control-reward	ChosenDisplay		0.0		
37	378.779	0.25	control-reward	TurnDisplay				
37	379.029	0.75	control-reward	OutcomeDisplay				
38	379.779		loss-noreward	ImageDisplay1		0.0		
38	382.029	0.75	loss-noreward	StartDisplay				
38	382.779		loss-noreward	ImageDisplay2		0.0		
38	385.779	1.6	loss-noreward	ChoiceDisplay	1	0.608	1	1
38	386.412	0.992	loss-noreward	ChosenDisplay		0.0		
38	387.379	0.25	loss-noreward	TurnDisplay				
38	387.629	0.75	loss-noreward	OutcomeDisplay				
39	388.379		win-noreward	ImageDisplay1		0.0		
39	390.379	0.75	win-noreward	StartDisplay				
39	391.129		win-noreward	ImageDisplay2		0.0		
39	394.379	1.6	win-noreward	ChoiceDisplay	1	0.563	1	1
39	394.962	1.037	win-noreward	ChosenDisplay		0.0		
39	395.979	0.25	win-noreward	TurnDisplay				
39	396.229	0.75	win-noreward	OutcomeDisplay				
40	396.979		loss-reward	ImageDisplay1		0.0		
40	398.979	0.75	loss-reward	StartDisplay				
40	399.729		loss-reward	ImageDisplay2		0.0		
40	402.979	1.6	loss-reward	ChoiceDisplay	1	0.968	1	1
40	403.962	0.632	loss-reward	ChosenDisplay		0.0		
40	404.579	0.25	loss-reward	TurnDisplay				
40	404.829	0.75	loss-reward	OutcomeDisplay				
41	405.579		control-reward	ImageDisplay1		0.0		
41	407.578	0.75	control-reward	StartDisplay				
41	408.328		control-reward	ImageDisplay2		0.0		
41	411.578	1.6	control-reward	ChoiceDisplay	1	0.406	1	1
41	412.012	1.194	control-reward	ChosenDisplay		0.0		
41	413.178	0.25	control-reward	TurnDisplay				
41	413.428	0.75	control-reward	OutcomeDisplay				
42	414.178		loss-reward	ImageDisplay1		0.0		
42	416.428	0.75	loss-reward	StartDisplay				
42	417.178		loss-reward	ImageDisplay2		0.0		
42	420.178	1.6	loss-reward	ChoiceDisplay	1	0.883	1	1
42	421.078	0.717	loss-reward	ChosenDisplay		0.0		
42	421.778	0.25	loss-reward	TurnDisplay				
42	422.028	0.75	loss-reward	OutcomeDisplay				
43	422.778		control-noreward	ImageDisplay1		0.0		
43	425.028	0.75	control-noreward	StartDisplay				
43	425.778		control-noreward	ImageDisplay2		0.0		
43	428.778	1.6	control-noreward	ChoiceDisplay	1	0.376	1	1
43	429.178	1.224	control-noreward	ChosenDisplay		0.0		
43	430.378	0.25	control-noreward	TurnDisplay				
43	430.628	0.75	control-noreward	OutcomeDisplay				
44	431.378		loss-noreward	ImageDisplay1		0.0		
44	433.628	0.75	loss-noreward	StartDisplay				
44	434.378		loss-noreward	ImageDisplay2		0.0		
44	437.378	1.6	loss-noreward	ChoiceDisplay	1	1.014	1	1
44	438.411	0.586	loss-noreward	ChosenDisplay		0.0		
44	438.978	0.25	loss-noreward	TurnDisplay				
44	439.227	0.75	loss-noreward	OutcomeDisplay				
45	439.977		control-reward	ImageDisplay1		0.0		
45	441.977	0.75	control-reward	StartDisplay				
45	442.727		control-reward	ImageDisplay2		0.0		
45	445.977	1.6	control-reward	ChoiceDisplay	1	0.621	1	1
45	446.611	0.979	control-reward	ChosenDisplay		0.0		
45	447.577	0.25	control-reward	TurnDisplay				
45	447.827	0.75	control-reward	OutcomeDisplay				
46	448.577		win-reward	ImageDisplay1		0.0		
46	450.577	0.75	win-reward	StartDisplay				
46	451.327		win-reward	ImageDisplay2		0.0		
46	454.577	1.6	win-reward	ChoiceDisplay	1	0.795	1	1
46	455.394	0.805	win-reward	ChosenDisplay		0.0		
46	456.177	0.25	win-reward	TurnDisplay				
46	456.427	0.75	win-reward	OutcomeDisplay				
47	457.177		loss-reward	ImageDisplay1		0.0		
47	459.177	0.75	loss-reward	StartDisplay				
47	459.927		loss-reward	ImageDisplay2		0.0		
47	463.177	1.6	loss-reward	ChoiceDisplay	1	0.853	1	1
47	464.043	0.747	loss-reward	ChosenDisplay		0.0		
47	464.777	0.25	loss-reward	TurnDisplay				
47	465.027	0.75	loss-reward	OutcomeDisplay				
48	465.777		win-noreward	ImageDisplay1		0.0		
48	468.027	0.75	win-noreward	StartDisplay				
48	468.777		win-noreward	ImageDisplay2		0.0		
48	471.776	1.6	win-noreward	ChoiceDisplay	1	0.762	1	1
48	472.56	0.838	win-noreward	ChosenDisplay		0.0		
48	473.376	0.25	win-noreward	TurnDisplay				
48	473.626	0.75	win-noreward	OutcomeDisplay				
49	474.376		control-noreward	ImageDisplay1		0.0		
49	476.376	0.75	control-noreward	StartDisplay				
49	477.126		control-noreward	ImageDisplay2		0.0		
49	480.376	1.6	control-noreward	ChoiceDisplay	1	0.556	1	1
49	480.959	1.044	control-noreward	ChosenDisplay		0.0		
49	481.976	0.25	control-noreward	TurnDisplay				
49	482.226	0.75	control-noreward	OutcomeDisplay				
50	482.976		win-reward	ImageDisplay1		0.0		
50	485.226	0.75	win-reward	StartDisplay				
50	485.976		win-reward	ImageDisplay2		0.0		
50	488.976	1.6	win-reward	ChoiceDisplay	1	0.498	1	1
50	489.493	1.102	win-reward	ChosenDisplay		0.0		
50	490.576	0.25	win-reward	TurnDisplay				
50	490.826	0.75	win-reward	OutcomeDisplay				
51	491.576		control-reward	ImageDisplay1		0.0		
51	493.826	0.75	control-reward	StartDisplay				
51	494.576		control-reward	ImageDisplay2		0.0		
51	497.576	1.6	control-reward	ChoiceDisplay	1	0.935	1	1
51	498.526	0.665	control-reward	ChosenDisplay		0.0		
51	499.176	0.25	control-reward	TurnDisplay				
51	499.426	0.75	control-reward	OutcomeDisplay				
52	500.176		control-reward	ImageDisplay1		0.0		
52	502.425	0.75	control-reward	StartDisplay				
52	503.175		control-reward	ImageDisplay2		0.0		
52	506.175	1.6	control-reward	ChoiceDisplay	1	0.799	1	1
52	506.992	0.801	control-reward	ChosenDisplay		0.0		
52	507.775	0.25	control-reward	TurnDisplay				
52	508.025	0.75	control-reward	OutcomeDisplay				
53	508.775		loss-reward	ImageDisplay1		0.0		
53	511.025	0.75	loss-reward	StartDisplay				
53	511.775		loss-reward	ImageDisplay2		0.0		
53	514.775	1.6	loss-reward	ChoiceDisplay	1	0.855	1	1
53	515.642	0.745	loss-reward	ChosenDisplay		0.0		
53	516.375	0.25	loss-reward	TurnDisplay				
53	516.625	0.75	loss-reward	OutcomeDisplay				
54	517.375		win-reward	ImageDisplay1		0.0		
54	519.625	0.75	win-reward	StartDisplay				
54	520.375		win-reward	ImageDisplay2		0.0		
54	523.375	1.6	win-reward	ChoiceDisplay	1	0.53	1	1
54	523.925	1.07	win-reward	ChosenDisplay		0.0		
54	524.975	0.25	win-reward	TurnDisplay				
54	525.225	0.75	win-reward	OutcomeDisplay				
55	525.975		loss-reward	ImageDisplay1		0.0		
55	527.975	0.75	loss-reward	StartDisplay				
55	528.725		loss-reward	ImageDisplay2		0.0		
55	531.975	1.6	loss-reward	ChoiceDisplay	1	0.504	1	1
55	532.491	1.096	loss-reward	ChosenDisplay		0.0		
55	533.574	0.25	loss-reward	TurnDisplay				
55	533.824	0.75	loss-reward	OutcomeDisplay				
56	534.574		win-reward	ImageDisplay1		0.0		
56	536.574	0.75	win-reward	StartDisplay				
56	537.324		win-reward	ImageDisplay2		0.0		
56	540.574	1.6	win-reward	ChoiceDisplay	1	0.452	1	1
56	541.041	1.148	win-reward	ChosenDisplay		0.0		
56	542.174	0.25	win-reward	TurnDisplay				
56	542.424	0.75	win-reward	OutcomeDisplay				
57	543.174		control-noreward	ImageDisplay1		0.0		
57	545.424	0.75	control-noreward	StartDisplay				
57	546.174		control-noreward	ImageDisplay2		0.0		
57	549.174	1.6	control-noreward	ChoiceDisplay	1	0.735	1	1
57	549.924	0.865	control-noreward	ChosenDisplay		0.0		
57	550.774	0.25	control-noreward	TurnDisplay				
57	551.024	0.75	control-noreward	OutcomeDisplay				
58	551.774		win-noreward	ImageDisplay1		0.0		
58	554.024	0.75	win-noreward	StartDisplay				
58	554.774		win-noreward	ImageDisplay2		0.0		
58	557.774	1.6	win-noreward	ChoiceDisplay	1	0.781	1	1
58	558.574	0.819	win-noreward	ChosenDisplay		0.0		
58	559.374	0.25	win-noreward	TurnDisplay				
58	559.624	0.75	win-noreward	OutcomeDisplay				
59	560.374		win-noreward	ImageDisplay1		0.0		
59	562.374	0.75	win-noreward	StartDisplay				
59	563.124		win-noreward	ImageDisplay2		0.0		
59	566.373	1.6	win-noreward	ChoiceDisplay	1	0.919	1	1
59	567.307	0.681	win-noreward	ChosenDisplay		0.0		
59	567.973	0.25	win-noreward	TurnDisplay				
59	568.223	0.75	win-noreward	OutcomeDisplay				
60	568.973		win-reward	ImageDisplay1		0.0		
60	571.223	0.75	win-reward	StartDisplay				
60	571.973		win-reward	ImageDisplay2		0.0		
60	574.973	1.6	win-reward	ChoiceDisplay	1	0.557	1	1
60	575.556	1.043	win-reward	ChosenDisplay		0.0		
60	576.573	0.25	win-reward	TurnDisplay				
60	576.823	0.75	win-reward	OutcomeDisplay				
61	577.573		win-noreward	ImageDisplay1		0.0		
61	579.823	0.75	win-noreward	StartDisplay				
61	580.573		win-noreward	ImageDisplay2		0.0		
61	583.573	1.6	win-noreward	ChoiceDisplay	1	0.505	1	1
61	584.106	1.095	win-noreward	ChosenDisplay		0.0		
61	585.173	0.25	win-noreward	TurnDisplay				
61	585.423	0.75	win-noreward	OutcomeDisplay				
62	586.173		loss-reward	ImageDisplay1		0.0		
62	588.423	0.75	loss-reward	StartDisplay				
62	589.173		loss-reward	ImageDisplay2		0.0		
62	592.173	1.6	loss-reward	ChoiceDisplay	1	0.558	1	1
62	592.756	1.042	loss-reward	ChosenDisplay		0.0		
62	593.773	0.25	loss-reward	TurnDisplay				
62	594.023	0.75	loss-reward	OutcomeDisplay				
63	594.773		control-noreward	ImageDisplay1		0.0		
63	596.772	0.75	control-noreward	StartDisplay				
63	597.522		control-noreward	ImageDisplay2		0.0		
63	600.772	1.6	control-noreward	ChoiceDisplay	1	0.73	1	1
63	601.522	0.87	control-noreward	ChosenDisplay		0.0		
63	602.372	0.25	control-noreward	TurnDisplay				
63	602.622	0.75	control-noreward	OutcomeDisplay				
64	603.372		win-noreward	ImageDisplay1		0.0		
64	605.622	0.75	win-noreward	StartDisplay				
64	606.372		win-noreward	ImageDisplay2		0.0		
64	609.372	1.6	win-noreward	ChoiceDisplay	1	0.685	1	1
64	610.072	0.915	win-noreward	ChosenDisplay		0.0		
64	610.972	0.25	win-noreward	TurnDisplay				
64	611.222	0.75	win-noreward	OutcomeDisplay				
65	611.972		win-reward	ImageDisplay1		0.0		
65	613.972	0.75	win-reward	StartDisplay				
65	614.722		win-reward	ImageDisplay2		0.0		
65	617.972	1.6	win-reward	ChoiceDisplay	1	1.307	1	1
65	619.305	0.293	win-reward	ChosenDisplay		0.0		
65	619.572	0.25	win-reward	TurnDisplay				
65	619.822	0.75	win-reward	OutcomeDisplay				
66	620.572		control-reward	ImageDisplay1		0.0		
66	622.572	0.75	control-reward	StartDisplay				
66	623.322		control-reward	ImageDisplay2		0.0		
66	626.572	1.6	control-reward	ChoiceDisplay	1	0.787	1	1
66	627.371	0.813	control-reward	ChosenDisplay		0.0		
66	628.171	0.25	control-reward	TurnDisplay				
66	628.421	0.75	control-reward	OutcomeDisplay				
67	629.171		loss-reward	ImageDisplay1		0.0		
67	631.171	0.75	loss-reward	StartDisplay				
67	631.921		loss-reward	ImageDisplay2		0.0		
67	635.171	1.6	loss-reward	ChoiceDisplay	1	1.058	1	1
67	636.255	0.542	loss-reward	ChosenDisplay		0.0		
67	636.771	0.25	loss-reward	TurnDisplay				
67	637.021	0.75	loss-reward	OutcomeDisplay				
68	637.771		control-noreward	ImageDisplay1		0.0		
68	639.771	0.75	control-noreward	StartDisplay				
68	640.521		control-noreward	ImageDisplay2		0.0		
68	643.771	1.6	control-noreward	ChoiceDisplay	1	1.143	1	1
68	644.938	0.457	control-noreward	ChosenDisplay		0.0		
68	645.371	0.25	control-noreward	TurnDisplay				
68	645.621	0.75	control-noreward	OutcomeDisplay				
69	646.371		control-noreward	ImageDisplay1		0.0		
69	648.621	0.75	control-noreward	StartDisplay				
69	649.371		control-noreward	ImageDisplay2		0.0		
69	652.371	1.6	control-noreward	ChoiceDisplay	1	1.292	1	1
69	653.687	0.308	control-noreward	ChosenDisplay		0.0		
69	653.971	0.25	control-noreward	TurnDisplay				
69	654.221	0.75	control-noreward	OutcomeDisplay				
70	654.971		control-reward	ImageDisplay1		0.0		
70	657.221	0.75	control-reward	StartDisplay				
70	657.971		control-reward	ImageDisplay2		0.0		
70	660.97	1.6	control-reward	ChoiceDisplay	1	0.362	1	1
70	661.354	1.238	control-reward	ChosenDisplay		0.0		
70	662.57	0.25	control-reward	TurnDisplay				
70	662.82	0.75	control-reward	OutcomeDisplay				
71	663.57		control-reward	ImageDisplay1		0.0		
71	665.57	0.75	control-reward	StartDisplay				
71	666.32		control-reward	ImageDisplay2		0.0		
71	669.57	1.6	control-reward	ChoiceDisplay	1	0.506	1	1
71	670.087	1.094	control-reward	ChosenDisplay		0.0		
71	671.17	0.25	control-reward	TurnDisplay				
71	671.42	0.75	control-reward	OutcomeDisplay				
72	672.17		control-reward	ImageDisplay1		0.0		
72	674.42	0.75	control-reward	StartDisplay				
72	675.17		control-reward	ImageDisplay2		0.0		
72	678.17	1.6	control-reward	ChoiceDisplay	1	0.485	1	1
72	678.67	1.115	control-reward	ChosenDisplay		0.0		
72	679.77	0.25	control-reward	TurnDisplay				
72	680.02	0.75	control-reward	OutcomeDisplay				
73	680.77		loss-noreward	ImageDisplay1		0.0		
73	682.77	0.75	loss-noreward	StartDisplay				
73	683.52		loss-noreward	ImageDisplay2		0.0		
73	686.77	1.6	loss-noreward	ChoiceDisplay	1	0.736	1	1
73	687.52	0.864	loss-noreward	ChosenDisplay		0.0		
73	688.37	0.25	loss-noreward	TurnDisplay				
73	688.62	0.75	loss-noreward	OutcomeDisplay				
74	689.37		loss-noreward	ImageDisplay1		0.0		
74	691.369	0.75	loss-noreward	StartDisplay				
74	692.119		loss-noreward	ImageDisplay2		0.0		
74	695.369	1.6	loss-noreward	ChoiceDisplay	1	0.587	1	1
74	695.969	1.013	loss-noreward	ChosenDisplay		0.0		
74	696.969	0.25	loss-noreward	TurnDisplay				
74	697.219	0.75	loss-noreward	OutcomeDisplay				
75	697.969		control-reward	ImageDisplay1		0.0		
75	700.219	0.75	control-reward	StartDisplay				
75	700.969		control-reward	ImageDisplay2		0.0		
75	703.969	1.6	control-reward	ChoiceDisplay	1	0.921	1	1
75	704.902	0.679	control-reward	ChosenDisplay		0.0		
75	705.569	0.25	control-reward	TurnDisplay				
75	705.819	0.75	control-reward	OutcomeDisplay				
76	706.569		loss-noreward	ImageDisplay1		0.0		
76	708.569	0.75	loss-noreward	StartDisplay				
76	709.319		loss-noreward	ImageDisplay2		0.0		
76	712.569	1.6	loss-noreward	ChoiceDisplay	1	0.951	1	1
76	713.535	0.649	loss-noreward	ChosenDisplay		0.0		
76	714.169	0.25	loss-noreward	TurnDisplay				
76	714.419	0.75	loss-noreward	OutcomeDisplay				
77	715.169		loss-noreward	ImageDisplay1		0.0		
77	717.419	0.75	loss-noreward	StartDisplay				
77	718.169		loss-noreward	ImageDisplay2		0.0		
77	721.169	1.6	loss-noreward	ChoiceDisplay	1	0.582	1	1
77	721.768	1.018	loss-noreward	ChosenDisplay		0.0		
77	722.768	0.25	loss-noreward	TurnDisplay				
77	723.018	0.75	loss-noreward	OutcomeDisplay				
78	723.768		control-reward	ImageDisplay1		0.0		
78	725.768	0.75	control-reward	StartDisplay				
78	726.518		control-reward	ImageDisplay2		0.0		
78	729.768	1.6	control-reward	ChoiceDisplay	1	1.033	1	1
78	730.818	0.567	control-reward	ChosenDisplay		0.0		
78	731.368	0.25	control-reward	TurnDisplay				
78	731.618	0.75	control-reward	OutcomeDisplay				
79	732.368		loss-noreward	ImageDisplay1		0.0		
79	734.618	0.75	loss-noreward	StartDisplay				
79	735.368		loss-noreward	ImageDisplay2		0.0		
79	738.368	1.6	loss-noreward	ChoiceDisplay	1	1.006	1	1
79	739.401	0.594	loss-noreward	ChosenDisplay		0.0		
79	739.968	0.25	loss-noreward	TurnDisplay				
79	740.218	0.75	loss-noreward	OutcomeDisplay				
80	740.968		loss-noreward	ImageDisplay1		0.0		
80	743.218	0.75	loss-noreward	StartDisplay				
80	743.968		loss-noreward	ImageDisplay2		0.0		
80	746.968	1.6	loss-noreward	ChoiceDisplay	1	0.699	1	1
80	747.684	0.901	loss-noreward	ChosenDisplay		0.0		
80	748.568	0.25	loss-noreward	TurnDisplay				
80	748.818	0.75	loss-noreward	OutcomeDisplay				
81	749.568		control-reward	ImageDisplay1		0.0		
81	751.818	0.75	control-reward	StartDisplay				
81	752.568		control-reward	ImageDisplay2		0.0		
81	755.567	1.6	control-reward	ChoiceDisplay	1	0.939	1	1
81	756.534	0.661	control-reward	ChosenDisplay		0.0		
81	757.167	0.25	control-reward	TurnDisplay				
81	757.417	0.75	control-reward	OutcomeDisplay				
82	758.167		win-reward	ImageDisplay1		0.0		
82	760.417	0.75	win-reward	StartDisplay				
82	761.167		win-reward	ImageDisplay2		0.0		
82	764.167	1.6	win-reward	ChoiceDisplay	1	0.707	1	1
82	764.9	0.893	win-reward	ChosenDisplay		0.0		
82	765.767	0.25	win-reward	TurnDisplay				
82	766.017	0.75	win-reward	OutcomeDisplay				
83	766.767		control-reward	ImageDisplay1		0.0		
83	768.767	0.75	control-reward	StartDisplay				
83	769.517		control-reward	ImageDisplay2		0.0		
83	772.767	1.6	control-reward	ChoiceDisplay	1	0.692	1	1
83	773.484	0.908	control-reward	ChosenDisplay		0.0		
83	774.367	0.25	control-reward	TurnDisplay				
83	774.617	0.75	control-reward	OutcomeDisplay				
84	775.367		win-reward	ImageDisplay1		0.0		
84	777.367	0.75	win-reward	StartDisplay				
84	778.117		win-reward	ImageDisplay2		0.0		
84	781.367	1.6	win-reward	ChoiceDisplay	1	0.838	1	1
84	782.233	0.762	win-reward	ChosenDisplay		0.0		
84	782.967	0.25	win-reward	TurnDisplay				
84	783.217	0.75	win-reward	OutcomeDisplay				
85	783.967		win-noreward	ImageDisplay1		0.0		
85	785.966	0.75	win-noreward	StartDisplay				
85	786.716		win-noreward	ImageDisplay2		0.0		
85	789.966	1.6	win-noreward	ChoiceDisplay	1	0.824	1	1
85	790.816	0.776	win-noreward	ChosenDisplay		0.0		
85	791.566	0.25	win-noreward	TurnDisplay				
85	791.816	0.75	win-noreward	OutcomeDisplay				
86	792.566		loss-reward	ImageDisplay1		0.0		
86	794.816	0.75	loss-reward	StartDisplay				
86	795.566		loss-reward	ImageDisplay2		0.0		
86	798.566	1.6	loss-reward	ChoiceDisplay	1	0.719	1	1
86	799.299	0.881	loss-reward	ChosenDisplay		0.0		
86	800.166	0.25	loss-reward	TurnDisplay				
86	800.416	0.75	loss-reward	OutcomeDisplay				
87	801.166		loss-noreward	ImageDisplay1		0.0		
87	803.166	0.75	loss-noreward	StartDisplay				
87	803.916		loss-noreward	ImageDisplay2		0.0		
87	807.166	1.6	loss-noreward	ChoiceDisplay	1	0.409	1	1
87	807.599	1.191	loss-noreward	ChosenDisplay		0.0		
87	808.766	0.25	loss-noreward	TurnDisplay				
87	809.016	0.75	loss-noreward	OutcomeDisplay				
88	809.766		control-noreward	ImageDisplay1		0.0		
88	811.766	0.75	control-noreward	StartDisplay				
88	812.516		control-noreward	ImageDisplay2		0.0		
88	815.766	1.6	control-noreward	ChoiceDisplay	1	0.906	1	1
88	816.699	0.694	control-noreward	ChosenDisplay		0.0		
88	817.365	0.25	control-noreward	TurnDisplay				
88	817.615	0.75	control-noreward	OutcomeDisplay				
89	818.365		control-noreward	ImageDisplay1		0.0		
89	820.615	0.75	control-noreward	StartDisplay				
89	821.365		control-noreward	ImageDisplay2		0.0		
89	824.365	1.6	control-noreward	ChoiceDisplay	1	0.45	1	1
89	824.832	1.15	control-noreward	ChosenDisplay		0.0		
89	825.965	0.25	control-noreward	TurnDisplay				
89	826.215	0.75	control-noreward	OutcomeDisplay				
90	826.965		win-noreward	ImageDisplay1		0.0		
90	828.965	0.75	win-noreward	StartDisplay				
90	829.715		win-noreward	ImageDisplay2		0.0		
90	832.965	1.6	win-noreward	ChoiceDisplay	1	0.896	1	1
90	833.882	0.704	win-noreward	ChosenDisplay		0.0		
90	834.565	0.25	win-noreward	TurnDisplay				
90	834.815	0.75	win-noreward	OutcomeDisplay				
91	835.565		win-noreward	ImageDisplay1		0.0		
91	837.815	0.75	win-noreward	StartDisplay				
91	838.565		win-noreward	ImageDisplay2		0.0		
91	841.565	1.6	win-noreward	ChoiceDisplay	1	1.134	1	1
91	842.715	0.466	win-noreward	ChosenDisplay		0.0		
91	843.165	0.25	win-noreward	TurnDisplay				
91	843.415	0.75	win-noreward	OutcomeDisplay				
92	844.165		control-noreward	ImageDisplay1		0.0		
92	846.415	0.75	control-noreward	StartDisplay				
92	847.164		control-noreward	ImageDisplay2		0.0		
92	850.164	1.6	control-noreward	ChoiceDisplay	1	0.31	1	1
92	850.498	1.29	control-noreward	ChosenDisplay		0.0		
92	851.764	0.25	control-noreward	TurnDisplay				
92	852.014	0.75	control-noreward	OutcomeDisplay				
93	852.764		loss-reward	ImageDisplay1		0.0		
93	855.014	0.75	loss-reward	StartDisplay				
93	855.764		loss-reward	ImageDisplay2		0.0		
93	858.764	1.6	loss-reward	ChoiceDisplay	1	1.267	1	1
93	860.047	0.333	loss-reward	ChosenDisplay		0.0		
93	860.364	0.25	loss-reward	TurnDisplay				
93	860.614	0.75	loss-reward	OutcomeDisplay				
94	861.364		loss-noreward	ImageDisplay1		0.0		
94	863.614	0.75	loss-noreward	StartDisplay				
94	864.364		loss-noreward	ImageDisplay2		0.0		
94	867.364	1.6	loss-noreward	ChoiceDisplay	1	1.139	1	1
94	868.53	0.461	loss-noreward	ChosenDisplay		0.0		
94	868.964	0.25	loss-noreward	TurnDisplay				
94	869.214	0.75	loss-noreward	OutcomeDisplay				
95	869.964		win-noreward	ImageDisplay1		0.0		
95	871.964	0.75	win-noreward	StartDisplay				
95	872.714		win-noreward	ImageDisplay2		0.0		
95	875.964	1.6	win-noreward	ChoiceDisplay	1	0.409	1	1
95	876.397	1.191	win-noreward	ChosenDisplay		0.0		
95	877.564	0.25	win-noreward	TurnDisplay				
95	877.814	0.75	win-noreward	OutcomeDisplay				
