onset	duration	trial_type	response_time	stim_file	accuracy
51.43	1.0	go	0.935	Go_O	1.0
53.954	1.0	go	0.282	Go_X	1.0
56.478	1.0	go	0.292	Go_O	1.0
59.002	1.0	go	0.351	Go_X	1.0
61.526	1.0	go	0.454	Go_X	1.0
64.051	1.0	go	0.294	Go_O	1.0
66.575	0.25	stop	0.459	Go_O	0.0
69.099	1.0	go	0.533	Go_X	1.0
71.623	0.2	stop	0.0	Go_X	1.0
74.147	1.0	go	0.488	Go_O	1.0
76.672	1.0	go	0.365	Go_X	1.0
79.196	1.0	go	0.332	Go_O	1.0
81.72	0.25	stop	0.353	Go_O	0.0
84.244	1.0	go	0.651	Go_X	1.0
86.768	1.0	go	0.38	Go_O	1.0
89.293	0.2	stop	0.0	Go_X	1.0
91.817	0.25	stop	0.406	Go_O	0.0
94.341	1.0	go	0.378	Go_X	1.0
96.865	1.0	go	0.23	Go_O	1.0
99.389	0.2	stop	0.292	Go_X	0.0
101.914	1.0	go	0.656	Go_O	1.0
104.438	1.0	go	0.442	Go_X	1.0
106.962	0.15	stop	0.0	Go_O	1.0
109.486	1.0	go	0.561	Go_X	1.0
112.01	1.0	go	0.488	Go_O	1.0
114.535	0.2	stop	0.342	Go_X	0.0
117.059	1.0	go	0.557	Go_O	1.0
119.583	1.0	go	0.651	Go_X	1.0
122.107	0.15	stop	0.0	Go_O	1.0
124.632	1.0	go	0.0	Go_X	0.0
127.156	1.0	go	0.484	Go_O	1.0
129.68	1.0	go	0.507	Go_X	1.0
132.204	1.0	go	0.5	Go_O	1.0
134.728	1.0	go	0.639	Go_O	1.0
137.253	0.2	stop	0.0	Go_X	1.0
139.777	1.0	go	0.799	Go_X	1.0
142.301	1.0	go	0.573	Go_X	1.0
144.825	1.0	go	0.827	Go_O	1.0
147.349	1.0	go	0.484	Go_X	1.0
149.874	1.0	go	0.783	Go_O	1.0
152.398	0.25	stop	0.0	Go_O	1.0
154.922	1.0	go	0.428	Go_X	1.0
157.446	1.0	go	0.519	Go_O	1.0
159.97	1.0	go	0.63	Go_X	1.0
162.495	1.0	go	0.568	Go_O	1.0
165.019	1.0	go	0.57	Go_O	1.0
167.543	1.0	go	0.542	Go_X	1.0
170.067	0.3	stop	0.0	Go_X	1.0
172.591	1.0	go	0.596	Go_X	1.0
175.116	1.0	go	0.494	Go_O	1.0
177.64	0.35	stop	0.0	Go_O	1.0
180.164	1.0	go	0.481	Go_X	1.0
182.688	0.4	stop	0.564	Go_X	0.0
185.212	0.35	stop	0.0	Go_O	1.0
187.737	1.0	go	0.573	Go_O	1.0
190.261	1.0	go	0.621	Go_X	1.0
192.785	1.0	go	0.548	Go_O	1.0
195.309	1.0	go	0.616	Go_O	1.0
197.833	0.4	stop	0.0	Go_X	1.0
200.358	1.0	go	0.569	Go_X	1.0
202.882	0.45	stop	0.0	Go_O	1.0
205.406	1.0	go	0.56	Go_O	1.0
207.93	1.0	go	0.494	Go_X	1.0
210.454	1.0	go	0.552	Go_X	1.0
212.979	1.0	go	0.576	Go_O	1.0
215.503	1.0	go	0.992	Go_X	1.0
218.027	1.0	go	0.422	Go_O	1.0
220.551	1.0	go	0.51	Go_X	1.0
223.075	1.0	go	0.401	Go_O	1.0
225.6	1.0	go	0.0	Go_O	0.0
228.124	0.5	stop	0.445	Go_X	0.0
230.648	1.0	go	0.982	Go_X	1.0
233.172	1.0	go	0.484	Go_O	1.0
235.696	1.0	go	0.733	Go_X	1.0
238.221	0.45	stop	0.687	Go_O	0.0
240.745	1.0	go	0.0	Go_X	0.0
243.269	1.0	go	0.507	Go_O	1.0
245.793	1.0	go	0.802	Go_X	1.0
248.317	1.0	go	0.543	Go_O	1.0
250.842	1.0	go	0.541	Go_X	1.0
253.366	1.0	go	0.23	Go_O	1.0
255.89	0.4	stop	0.493	Go_X	0.0
258.414	1.0	go	0.5	Go_X	1.0
260.938	1.0	go	0.768	Go_O	1.0
263.463	0.35	stop	0.0	Go_O	1.0
265.987	1.0	go	0.595	Go_O	1.0
268.511	1.0	go	0.785	Go_X	1.0
271.035	0.4	stop	0.489	Go_X	0.0
273.559	1.0	go	0.605	Go_X	1.0
276.084	0.35	stop	0.439	Go_O	0.0
278.608	1.0	go	0.548	Go_O	1.0
281.132	1.0	go	0.606	Go_O	1.0
283.656	1.0	go	0.575	Go_X	1.0
286.18	1.0	go	0.535	Go_X	1.0
288.705	1.0	go	0.482	Go_O	1.0
291.229	0.3	stop	0.0	Go_X	1.0
293.753	0.35	stop	0.0	Go_O	1.0
296.277	1.0	go	0.612	Go_X	1.0
298.802	1.0	go	0.0	Go_O	0.0
301.326	0.4	stop	0.377	Go_X	0.0
303.85	1.0	go	0.552	Go_X	1.0
306.374	1.0	go	0.428	Go_O	1.0
308.898	1.0	go	0.836	Go_X	1.0
311.423	1.0	go	0.479	Go_O	1.0
313.947	1.0	go	0.639	Go_O	1.0
316.471	1.0	go	0.389	Go_X	1.0
318.995	0.35	stop	0.472	Go_O	0.0
321.519	1.0	go	0.543	Go_O	1.0
324.044	1.0	go	0.341	Go_X	1.0
326.568	1.0	go	0.415	Go_O	1.0
329.092	1.0	go	0.54	Go_X	1.0
331.616	1.0	go	0.526	Go_X	1.0
334.14	0.3	stop	0.285	Go_X	0.0
336.665	1.0	go	0.634	Go_O	1.0
339.189	1.0	go	0.463	Go_O	1.0
341.713	1.0	go	0.487	Go_X	1.0
344.237	1.0	go	0.49	Go_X	1.0
346.761	0.25	stop	0.0	Go_O	1.0
349.286	1.0	go	0.545	Go_O	1.0
351.81	1.0	go	0.597	Go_O	1.0
354.334	0.3	stop	0.47	Go_X	0.0
356.858	1.0	go	0.701	Go_X	1.0
359.382	0.25	stop	0.0	Go_O	1.0
361.907	1.0	go	0.572	Go_X	1.0
364.431	1.0	go	0.695	Go_O	1.0
366.955	1.0	go	0.508	Go_O	1.0
369.479	1.0	go	0.366	Go_X	1.0
372.003	1.0	go	0.577	Go_O	1.0
374.528	1.0	go	0.0	Go_X	0.0
377.052	1.0	go	0.602	Go_O	1.0
379.576	0.3	stop	0.542	Go_X	0.0
382.1	1.0	go	0.759	Go_X	1.0
384.624	1.0	go	0.606	Go_X	1.0
387.149	1.0	go	0.626	Go_O	1.0
389.673	0.25	stop	0.0	Go_O	1.0
392.197	1.0	go	0.502	Go_O	1.0
394.721	1.0	go	0.514	Go_X	1.0
397.245	1.0	go	0.694	Go_X	1.0
399.77	1.0	go	0.538	Go_O	1.0
402.294	0.3	stop	0.0	Go_X	1.0
404.818	1.0	go	0.375	Go_O	1.0
407.342	1.0	go	0.6	Go_X	1.0
409.866	0.35	stop	0.0	Go_O	1.0
412.391	1.0	go	0.7	Go_X	1.0
414.915	1.0	go	0.534	Go_O	1.0
417.439	0.4	stop	0.0	Go_X	1.0
419.963	1.0	go	0.546	Go_O	1.0
422.487	1.0	go	0.35	Go_X	1.0
425.012	0.45	stop	0.0	Go_O	1.0
427.536	1.0	go	0.611	Go_O	1.0
430.06	1.0	go	0.809	Go_X	1.0
432.584	1.0	go	0.366	Go_X	1.0
435.108	1.0	go	0.766	Go_O	1.0
437.633	1.0	go	0.652	Go_O	1.0
440.157	1.0	go	0.587	Go_X	1.0
442.681	0.5	stop	0.592	Go_X	0.0
445.205	1.0	go	0.596	Go_X	1.0
447.729	0.45	stop	0.474	Go_O	0.0
450.254	1.0	go	0.531	Go_O	1.0
452.778	1.0	go	0.478	Go_O	1.0
455.302	1.0	go	0.491	Go_X	1.0
457.826	1.0	go	0.472	Go_X	1.0
460.351	1.0	go	0.517	Go_O	1.0
462.875	0.4	stop	0.0	Go_X	1.0
465.399	1.0	go	0.502	Go_X	1.0
467.923	1.0	go	0.43	Go_O	1.0
470.447	1.0	go	0.584	Go_X	1.0
472.972	0.45	stop	0.331	Go_O	0.0
475.496	0.4	stop	0.471	Go_X	0.0
478.02	0.35	stop	0.0	Go_O	1.0
480.544	1.0	go	0.615	Go_O	1.0
483.068	0.4	stop	0.578	Go_X	0.0
485.593	1.0	go	0.585	Go_X	0.0
488.117	1.0	go	0.986	Go_O	1.0
490.641	1.0	go	0.372	Go_X	1.0
493.165	1.0	go	0.289	Go_O	1.0
495.689	1.0	go	0.436	Go_O	1.0
498.214	1.0	go	0.718	Go_X	1.0
500.738	1.0	go	0.714	Go_O	1.0
503.262	1.0	go	0.938	Go_X	1.0
505.786	0.35	stop	0.521	Go_O	0.0
508.31	1.0	go	0.653	Go_X	1.0
510.835	1.0	go	0.0	Go_O	0.0
513.359	0.3	stop	0.0	Go_X	1.0
515.883	1.0	go	0.648	Go_O	0.0
518.407	1.0	go	0.816	Go_X	1.0
520.931	1.0	go	0.62	Go_O	1.0
523.456	1.0	go	0.769	Go_X	1.0
525.98	1.0	go	0.745	Go_O	1.0
528.504	0.35	stop	0.0	Go_O	1.0
531.028	1.0	go	0.0	Go_X	0.0
533.552	1.0	go	0.433	Go_O	1.0
536.077	1.0	go	0.516	Go_X	1.0
538.601	0.4	stop	0.523	Go_X	0.0
541.125	1.0	go	0.425	Go_X	1.0
543.649	0.35	stop	0.0	Go_O	1.0
546.173	1.0	go	0.488	Go_O	1.0
548.698	1.0	go	0.408	Go_X	1.0
551.222	1.0	go	0.593	Go_O	1.0
553.746	1.0	go	0.707	Go_O	1.0
556.27	1.0	go	0.462	Go_X	1.0
558.794	1.0	go	0.469	Go_O	1.0
561.319	1.0	go	0.0	Go_X	0.0
563.843	0.4	stop	0.655	Go_X	0.0
566.367	1.0	go	0.579	Go_X	1.0
568.891	1.0	go	0.405	Go_O	1.0
571.415	1.0	go	0.58	Go_O	1.0
573.94	1.0	go	0.42	Go_X	1.0
576.464	0.35	stop	0.398	Go_O	0.0
578.988	1.0	go	0.478	Go_X	1.0
581.512	0.3	stop	0.0	Go_X	1.0
584.036	1.0	go	0.506	Go_O	1.0
586.561	1.0	go	0.473	Go_O	1.0
589.085	0.35	stop	0.244	Go_O	0.0
591.609	1.0	go	0.296	Go_X	1.0
594.133	1.0	go	0.41	Go_O	1.0
596.657	1.0	go	0.45	Go_X	1.0
599.182	1.0	go	0.499	Go_X	1.0
601.706	1.0	go	0.488	Go_O	1.0
604.23	1.0	go	0.907	Go_X	1.0
606.754	1.0	go	0.48	Go_O	1.0
609.278	1.0	go	0.459	Go_X	1.0
611.803	1.0	go	0.471	Go_O	1.0
614.327	1.0	go	0.49	Go_X	1.0
616.851	0.3	stop	0.0	Go_X	1.0
619.375	1.0	go	0.538	Go_O	1.0
621.899	1.0	go	0.0	Go_X	0.0
624.424	0.35	stop	0.0	Go_O	1.0
626.948	1.0	go	0.566	Go_O	1.0
629.472	0.4	stop	0.0	Go_X	1.0
631.996	1.0	go	0.48	Go_O	1.0
634.521	1.0	go	0.843	Go_X	1.0
637.045	0.45	stop	0.442	Go_O	0.0
639.569	1.0	go	0.601	Go_X	1.0
642.093	0.4	stop	0.496	Go_X	0.0
644.617	1.0	go	0.74	Go_O	1.0
647.142	1.0	go	0.475	Go_X	1.0
649.666	1.0	go	0.694	Go_O	1.0
652.19	0.35	stop	0.0	Go_O	1.0
654.714	1.0	go	0.605	Go_X	1.0
657.238	1.0	go	0.367	Go_O	1.0
659.763	1.0	go	0.574	Go_O	1.0
662.287	1.0	go	0.603	Go_X	1.0
664.811	0.4	stop	0.612	Go_X	0.0
667.335	1.0	go	0.412	Go_O	1.0
669.859	1.0	go	0.574	Go_X	1.0
672.384	0.35	stop	0.436	Go_O	0.0
674.908	1.0	go	0.573	Go_X	1.0
677.432	1.0	go	0.0	Go_O	0.0
679.956	1.0	go	0.525	Go_O	1.0
682.48	1.0	go	0.772	Go_X	1.0
685.005	0.3	stop	0.0	Go_X	1.0
687.529	1.0	go	0.469	Go_X	1.0
690.053	0.35	stop	0.0	Go_O	1.0
692.577	1.0	go	0.0	Go_O	0.0
695.101	1.0	go	0.833	Go_X	1.0
697.626	0.4	stop	0.416	Go_X	0.0
700.15	1.0	go	0.527	Go_O	1.0
702.674	1.0	go	0.555	Go_X	1.0
705.198	1.0	go	0.782	Go_O	1.0
707.722	1.0	go	0.373	Go_X	1.0
710.247	0.35	stop	0.553	Go_O	0.0
712.771	1.0	go	0.513	Go_O	1.0
715.295	0.3	stop	0.0	Go_X	1.0
717.819	1.0	go	0.422	Go_X	1.0
720.343	1.0	go	0.599	Go_O	1.0
722.868	1.0	go	0.851	Go_O	0.0
725.392	1.0	go	0.544	Go_X	0.0
727.916	1.0	go	0.422	Go_X	1.0
730.44	1.0	go	0.488	Go_O	1.0
732.964	0.35	stop	0.582	Go_O	0.0
735.489	1.0	go	0.469	Go_X	1.0
738.013	1.0	go	0.287	Go_O	1.0
740.537	0.3	stop	0.0	Go_X	1.0
743.061	1.0	go	0.469	Go_O	1.0
745.585	1.0	go	0.433	Go_X	1.0
748.11	0.35	stop	0.451	Go_O	0.0
750.634	1.0	go	0.637	Go_X	0.0
753.158	1.0	go	0.0	Go_O	0.0
755.682	1.0	go	0.329	Go_X	1.0
758.206	1.0	go	0.673	Go_O	1.0
760.731	0.3	stop	0.0	Go_X	1.0
763.255	1.0	go	0.0	Go_X	0.0
765.779	0.35	stop	0.39	Go_O	0.0
768.303	1.0	go	0.508	Go_O	1.0
770.827	1.0	go	0.498	Go_O	1.0
773.352	1.0	go	0.441	Go_X	1.0
775.876	1.0	go	0.754	Go_X	1.0
778.4	1.0	go	0.591	Go_O	1.0
780.924	0.3	stop	0.0	Go_X	1.0
783.448	1.0	go	0.556	Go_X	1.0
785.973	1.0	go	0.446	Go_O	1.0
788.497	0.35	stop	0.0	Go_O	1.0
791.021	0.4	stop	0.527	Go_X	0.0
793.545	1.0	go	0.652	Go_X	1.0
796.07	1.0	go	0.419	Go_O	1.0
798.594	1.0	go	0.633	Go_X	1.0
801.118	1.0	go	0.99	Go_O	1.0
803.642	0.35	stop	0.0	Go_O	1.0
806.166	1.0	go	0.817	Go_O	1.0
