onset	duration	trial_type	response_time	stim_file	accuracy
0.5269999999999868	1.0	go	0.742	Go_X	0.0
3.0509999999999877	1.0	go	0.44	Go_O	1.0
5.574999999999989	1.0	go	0.437	Go_O	1.0
8.09899999999999	1.0	go	0.727	Go_X	1.0
10.623999999999995	1.0	go	0.272	Go_O	1.0
13.147999999999996	1.0	go	0.291	Go_X	1.0
15.671999999999997	0.25	stopfail	0.247	Go_O	0.0
18.195999999999998	1.0	go	0.385	Go_O	1.0
20.72	0.2	stopfail	0.315	Go_X	0.0
23.244	1.0	go	0.476	Go_X	0.0
25.76899999999999	1.0	go	0.455	Go_X	1.0
28.292999999999992	1.0	go	0.452	Go_O	1.0
30.816999999999993	0.15	stopsuccess	0.0	Go_O	1.0
33.340999999999994	1.0	go	0.291	Go_O	1.0
35.864999999999995	1.0	go	0.456	Go_X	1.0
38.389999999999986	0.2	stopsuccess	0.0	Go_X	1.0
40.92999999999999	0.25	stopfail	0.254	Go_O	0.0
43.455	1.0	go	0.408	Go_O	1.0
45.979	1.0	go	0.445	Go_X	1.0
48.503	0.2	stopsuccess	0.0	Go_X	1.0
51.027	1.0	go	0.676	Go_O	1.0
53.551	1.0	go	0.355	Go_X	1.0
56.075	0.25	stopsuccess	0.0	Go_O	1.0
58.59999999999998	1.0	go	0.447	Go_X	1.0
61.12399999999998	1.0	go	0.282	Go_O	1.0
63.64799999999998	0.3	stopsuccess	0.0	Go_X	1.0
66.17199999999998	1.0	go	0.383	Go_O	1.0
68.69599999999998	1.0	go	0.288	Go_X	1.0
71.21999999999998	0.35	stopsuccess	0.0	Go_O	1.0
73.74499999999999	1.0	go	0.39	Go_O	1.0
76.26899999999999	1.0	go	0.292	Go_X	1.0
78.79299999999999	1.0	go	0.36	Go_O	1.0
81.317	1.0	go	0.617	Go_X	1.0
83.841	1.0	go	0.771	Go_X	1.0
86.365	0.4	stopfail	0.475	Go_X	0.0
88.89	1.0	go	0.278	Go_O	1.0
91.414	1.0	go	0.407	Go_X	1.0
93.938	1.0	go	0.261	Go_O	1.0
96.462	1.0	go	0.358	Go_X	1.0
98.986	1.0	go	0.439	Go_O	1.0
101.51099999999998	0.35	stopfail	0.495	Go_O	0.0
104.03499999999998	1.0	go	0.338	Go_X	0.0
106.55899999999998	1.0	go	0.298	Go_O	1.0
109.08299999999998	1.0	go	0.588	Go_O	1.0
111.60699999999999	1.0	go	0.411	Go_X	1.0
114.13099999999999	1.0	go	0.337	Go_O	1.0
116.65599999999999	1.0	go	0.698	Go_X	1.0
119.17999999999999	0.3	stopfail	0.456	Go_X	0.0
121.704	1.0	go	0.505	Go_O	1.0
124.228	1.0	go	0.393	Go_X	1.0
126.752	0.25	stopfail	0.47	Go_O	0.0
129.276	1.0	go	0.429	Go_X	1.0
131.801	0.2	stopsuccess	0.0	Go_X	1.0
134.341	0.25	stopfail	0.434	Go_O	0.0
136.86599999999999	1.0	go	0.639	Go_O	1.0
139.39	1.0	go	0.519	Go_X	1.0
141.914	1.0	go	0.614	Go_O	1.0
144.438	1.0	go	0.504	Go_X	1.0
146.962	0.2	stopsuccess	0.0	Go_X	1.0
149.486	1.0	go	0.294	Go_O	1.0
152.01099999999997	0.25	stopfail	0.39	Go_O	0.0
154.53499999999997	1.0	go	0.547	Go_X	1.0
157.05899999999997	1.0	go	0.627	Go_O	1.0
159.58299999999997	1.0	go	0.874	Go_X	1.0
162.10699999999997	1.0	go	0.41	Go_O	1.0
164.632	1.0	go	0.0	Go_O	0.0
167.156	1.0	go	0.473	Go_X	1.0
169.68	1.0	go	0.812	Go_X	1.0
172.204	1.0	go	0.634	Go_O	1.0
174.728	1.0	go	0.44	Go_X	1.0
177.252	0.2	stopsuccess	0.0	Go_X	1.0
179.777	1.0	go	0.459	Go_O	1.0
182.301	1.0	go	0.451	Go_X	1.0
184.825	1.0	go	0.512	Go_O	1.0
187.349	0.25	stopsuccess	0.0	Go_O	1.0
189.89	1.0	go	0.464	Go_X	1.0
192.414	1.0	go	0.553	Go_O	1.0
194.938	1.0	go	0.595	Go_X	1.0
197.462	1.0	go	0.276	Go_O	1.0
199.98700000000002	1.0	go	0.545	Go_O	1.0
202.51100000000002	1.0	go	0.571	Go_X	1.0
205.03500000000003	0.3	stopfail	0.464	Go_X	0.0
207.55900000000003	1.0	go	0.587	Go_O	1.0
210.08300000000003	1.0	go	0.56	Go_X	1.0
212.608	0.25	stopfail	0.444	Go_O	0.0
215.132	1.0	go	0.326	Go_X	1.0
217.656	1.0	go	0.288	Go_O	1.0
220.18	0.2	stopfail	0.36	Go_X	0.0
222.704	1.0	go	0.624	Go_X	1.0
225.228	0.15	stopsuccess	0.0	Go_O	1.0
227.753	1.0	go	0.711	Go_O	1.0
230.277	1.0	go	0.445	Go_O	1.0
232.801	1.0	go	0.592	Go_X	1.0
235.325	1.0	go	0.572	Go_X	1.0
237.849	1.0	go	0.494	Go_O	1.0
240.373	0.2	stopsuccess	0.0	Go_X	1.0
242.89800000000002	0.25	stopfail	0.444	Go_O	0.0
245.438	1.0	go	0.605	Go_X	1.0
247.96300000000002	1.0	go	0.431	Go_O	1.0
250.48700000000002	0.2	stopsuccess	0.0	Go_X	1.0
253.01100000000002	1.0	go	0.643	Go_X	1.0
255.53500000000003	1.0	go	0.552	Go_O	1.0
258.059	1.0	go	0.561	Go_X	1.0
260.583	1.0	go	0.539	Go_O	1.0
263.108	1.0	go	0.344	Go_O	1.0
265.632	1.0	go	0.469	Go_X	0.0
268.156	0.25	stopfail	0.307	Go_O	0.0
270.68	1.0	go	0.475	Go_X	1.0
273.204	1.0	go	0.646	Go_O	1.0
275.729	1.0	go	0.587	Go_X	1.0
278.253	1.0	go	0.331	Go_O	1.0
280.777	1.0	go	0.458	Go_O	1.0
283.301	0.2	stopsuccess	0.0	Go_X	1.0
285.825	1.0	go	0.535	Go_X	1.0
288.349	1.0	go	0.331	Go_O	1.0
290.874	1.0	go	0.401	Go_X	1.0
293.398	1.0	go	0.674	Go_X	1.0
295.922	0.25	stopsuccess	0.0	Go_O	1.0
298.446	1.0	go	0.561	Go_O	1.0
300.97	1.0	go	0.476	Go_X	1.0
303.494	0.3	stopsuccess	0.0	Go_X	1.0
306.019	1.0	go	0.336	Go_O	1.0
308.543	0.35	stopfail	0.45	Go_O	0.0
311.067	1.0	go	0.601	Go_O	1.0
313.591	1.0	go	0.687	Go_X	1.0
316.115	1.0	go	0.488	Go_O	1.0
318.639	1.0	go	0.759	Go_X	1.0
321.164	1.0	go	0.308	Go_O	1.0
323.688	1.0	go	0.58	Go_X	1.0
326.212	1.0	go	0.677	Go_X	1.0
328.736	0.3	stopfail	0.614	Go_X	0.0
331.26	1.0	go	0.387	Go_O	1.0
333.784	1.0	go	0.565	Go_O	1.0
336.309	1.0	go	0.595	Go_X	1.0
338.833	0.25	stopsuccess	0.0	Go_O	1.0
341.357	1.0	go	0.691	Go_X	1.0
343.88100000000003	1.0	go	0.496	Go_O	1.0
346.40500000000003	1.0	go	0.462	Go_O	1.0
348.92900000000003	1.0	go	0.653	Go_X	1.0
351.454	0.3	stopsuccess	0.0	Go_X	1.0
353.978	1.0	go	0.604	Go_X	1.0
356.502	1.0	go	0.446	Go_O	1.0
359.026	0.35	stopfail	0.479	Go_O	0.0
361.55	1.0	go	0.495	Go_X	1.0
364.075	1.0	go	0.752	Go_O	1.0
366.599	0.3	stopfail	0.471	Go_X	0.0
369.123	1.0	go	0.569	Go_X	1.0
371.647	1.0	go	0.442	Go_O	1.0
374.171	0.25	stopsuccess	0.0	Go_O	1.0
376.695	1.0	go	0.501	Go_O	1.0
379.22	1.0	go	0.528	Go_X	1.0
381.744	1.0	go	0.648	Go_X	1.0
384.26800000000003	1.0	go	0.386	Go_O	1.0
386.79200000000003	1.0	go	0.524	Go_O	1.0
389.31600000000003	1.0	go	0.681	Go_X	1.0
391.84000000000003	0.3	stopsuccess	0.0	Go_X	1.0
394.365	1.0	go	0.61	Go_X	1.0
396.889	0.35	stopfail	0.55	Go_O	0.0
399.413	1.0	go	0.543	Go_O	1.0
401.937	1.0	go	0.569	Go_O	1.0
404.461	1.0	go	0.509	Go_X	1.0
406.985	1.0	go	0.394	Go_O	1.0
409.51	1.0	go	0.631	Go_X	1.0
412.034	0.3	stopsuccess	0.0	Go_X	1.0
414.575	1.0	go	0.0	Go_X	0.0
417.099	1.0	go	0.293	Go_O	1.0
419.623	1.0	go	0.615	Go_O	1.0
422.147	0.35	stopfail	0.629	Go_O	0.0
424.671	0.3	stopfail	0.605	Go_X	0.0
427.196	0.25	stopsuccess	0.0	Go_O	1.0
429.72	1.0	go	0.593	Go_X	1.0
432.244	0.3	stopsuccess	0.0	Go_X	1.0
434.78499999999997	1.0	go	0.493	Go_X	1.0
437.30899999999997	1.0	go	0.608	Go_O	1.0
439.83299999999997	1.0	go	0.558	Go_X	1.0
442.35699999999997	1.0	go	0.644	Go_O	1.0
444.881	1.0	go	0.726	Go_X	1.0
447.40600000000006	1.0	go	0.49	Go_O	1.0
449.93000000000006	1.0	go	0.448	Go_X	1.0
452.45399999999995	1.0	go	0.633	Go_O	1.0
454.97799999999995	0.35	stopfail	0.46	Go_O	0.0
457.50199999999995	1.0	go	0.309	Go_X	1.0
460.02599999999995	1.0	go	0.635	Go_O	1.0
462.55100000000004	0.3	stopfail	0.427	Go_X	0.0
465.092	1.0	go	0.719	Go_X	1.0
467.616	1.0	go	0.691	Go_O	1.0
470.14	1.0	go	0.412	Go_X	1.0
472.664	1.0	go	0.372	Go_O	1.0
475.188	1.0	go	0.365	Go_X	1.0
477.712	0.25	stopfail	0.425	Go_O	0.0
480.23699999999997	1.0	go	0.674	Go_O	1.0
482.76099999999997	1.0	go	0.412	Go_O	1.0
485.28499999999997	1.0	go	0.639	Go_X	1.0
487.80899999999997	0.2	stopsuccess	0.0	Go_X	1.0
490.33299999999997	1.0	go	0.748	Go_X	1.0
492.85699999999997	0.25	stopfail	0.347	Go_O	0.0
495.38200000000006	1.0	go	0.483	Go_O	1.0
497.90600000000006	1.0	go	0.597	Go_O	1.0
500.43000000000006	1.0	go	0.777	Go_X	1.0
502.95399999999995	1.0	go	0.785	Go_X	1.0
505.47799999999995	1.0	go	0.48	Go_O	1.0
508.00199999999995	1.0	go	0.52	Go_O	1.0
510.52700000000004	1.0	go	0.544	Go_X	1.0
513.051	0.2	stopsuccess	0.0	Go_X	1.0
515.575	1.0	go	0.256	Go_O	1.0
518.099	1.0	go	0.497	Go_X	1.0
520.623	1.0	go	0.532	Go_X	1.0
523.148	1.0	go	0.54	Go_O	1.0
525.672	0.25	stopsuccess	0.0	Go_O	1.0
528.213	1.0	go	0.55	Go_X	1.0
530.737	0.3	stopsuccess	0.0	Go_X	1.0
533.278	1.0	go	0.583	Go_O	1.0
535.802	1.0	go	0.498	Go_X	1.0
538.326	0.35	stopfail	0.371	Go_O	0.0
540.85	1.0	go	0.802	Go_O	1.0
543.374	1.0	go	0.626	Go_O	1.0
545.898	1.0	go	0.71	Go_X	1.0
548.423	1.0	go	0.474	Go_O	1.0
550.947	1.0	go	0.601	Go_X	1.0
553.471	1.0	go	0.375	Go_O	1.0
555.995	1.0	go	0.447	Go_X	0.0
558.519	1.0	go	0.609	Go_X	1.0
561.044	1.0	go	0.49	Go_O	1.0
563.568	1.0	go	0.5	Go_X	1.0
566.092	0.3	stopfail	0.587	Go_X	0.0
568.616	1.0	go	0.474	Go_O	1.0
571.14	1.0	go	0.604	Go_X	1.0
573.664	0.25	stopfail	0.525	Go_O	0.0
576.189	1.0	go	0.574	Go_O	1.0
578.713	0.2	stopsuccess	0.0	Go_X	1.0
581.237	1.0	go	0.444	Go_O	1.0
583.761	1.0	go	0.524	Go_X	1.0
586.285	0.25	stopsuccess	0.0	Go_O	1.0
588.809	1.0	go	0.589	Go_O	1.0
591.3340000000001	0.3	stopsuccess	0.0	Go_X	1.0
593.874	1.0	go	0.624	Go_X	1.0
596.399	1.0	go	0.608	Go_X	1.0
598.94	1.0	go	0.512	Go_O	1.0
601.464	0.35	stopsuccess	0.0	Go_O	1.0
603.988	1.0	go	0.612	Go_O	1.0
606.5120000000001	1.0	go	0.527	Go_X	1.0
609.0360000000001	1.0	go	0.551	Go_O	1.0
611.5600000000001	1.0	go	0.751	Go_X	1.0
614.085	0.4	stopsuccess	0.0	Go_X	1.0
616.625	1.0	go	0.613	Go_O	1.0
619.15	1.0	go	0.621	Go_X	1.0
621.674	0.45	stopsuccess	0.0	Go_O	1.0
624.215	1.0	go	0.501	Go_X	1.0
626.739	1.0	go	0.541	Go_O	1.0
629.263	1.0	go	0.583	Go_O	1.0
631.787	1.0	go	0.757	Go_X	1.0
634.311	0.5	stopfail	0.452	Go_X	0.0
636.836	1.0	go	0.517	Go_O	1.0
639.36	0.45	stopsuccess	0.0	Go_O	1.0
641.884	1.0	go	0.472	Go_X	1.0
644.408	1.0	go	0.694	Go_O	1.0
646.932	0.5	stopsuccess	0.0	Go_X	1.0
649.456	1.0	go	0.625	Go_X	1.0
651.981	1.0	go	0.54	Go_O	1.0
654.505	1.0	go	0.67	Go_X	1.0
657.029	1.0	go	0.578	Go_X	1.0
659.553	0.55	stopfail	0.615	Go_O	0.0
662.077	1.0	go	0.61	Go_O	1.0
664.601	0.5	stopfail	0.478	Go_X	0.0
667.126	1.0	go	0.975	Go_X	1.0
669.65	1.0	go	0.415	Go_O	1.0
672.174	1.0	go	0.813	Go_O	1.0
674.698	1.0	go	0.682	Go_X	1.0
677.222	1.0	go	0.476	Go_X	1.0
679.746	1.0	go	0.707	Go_O	1.0
682.271	0.45	stopsuccess	0.0	Go_O	1.0
684.812	1.0	go	0.454	Go_X	1.0
687.337	1.0	go	0.44	Go_O	1.0
689.86	0.5	stopsuccess	0.0	Go_X	1.0
692.384	1.0	go	0.388	Go_O	1.0
694.908	1.0	go	0.648	Go_X	1.0
697.432	0.55	stopfail	0.628	Go_O	0.0
699.957	1.0	go	0.61	Go_X	1.0
702.481	1.0	go	0.512	Go_O	1.0
705.005	1.0	go	0.691	Go_O	1.0
707.529	1.0	go	0.579	Go_X	1.0
710.053	0.5	stopfail	0.476	Go_X	0.0
712.577	1.0	go	0.419	Go_O	1.0
715.102	0.45	stopfail	0.565	Go_O	0.0
717.626	1.0	go	0.678	Go_X	1.0
720.15	1.0	go	0.649	Go_O	1.0
722.674	1.0	go	0.697	Go_X	1.0
725.198	1.0	go	0.83	Go_X	1.0
727.722	1.0	go	0.485	Go_O	1.0
730.247	0.4	stopsuccess	0.0	Go_X	1.0
732.771	1.0	go	0.476	Go_O	1.0
735.295	1.0	go	0.445	Go_X	1.0
737.819	0.45	stopfail	0.6	Go_O	0.0
740.343	0.4	stopfail	0.349	Go_X	0.0
742.867	1.0	go	0.954	Go_O	1.0
745.392	1.0	go	0.38	Go_X	1.0
747.916	1.0	go	0.727	Go_O	1.0
750.44	1.0	go	0.554	Go_X	1.0
752.964	0.35	stopfail	0.519	Go_O	0.0
755.488	1.0	go	0.426	Go_X	1.0
