onset	duration	trial_type	response_time	stim_file	accuracy
69.243	1.0	go	0.744	Go_O	1.0
71.776	1.0	go	0.349	Go_X	1.0
74.31	1.0	go	0.379	Go_X	1.0
76.843	1.0	go	0.213	Go_O	1.0
79.376	1.0	go	0.342	Go_O	1.0
81.91	1.0	go	0.284	Go_X	1.0
84.459	0.25	stopfail	0.307	Go_O	0.0
86.993	1.0	go	0.347	Go_O	1.0
89.526	0.2	stopfail	0.249	Go_X	0.0
92.059	1.0	go	0.39	Go_X	1.0
94.593	1.0	go	0.448	Go_X	1.0
97.142	1.0	go	0.346	Go_O	1.0
99.676	0.15	stopfail	0.427	Go_O	0.0
102.209	1.0	go	0.3	Go_O	1.0
104.742	1.0	go	0.396	Go_X	1.0
107.275	0.1	stopsuccess	0.0	Go_X	1.0
109.825	0.15	stopsuccess	0.0	Go_O	1.0
112.359	1.0	go	0.491	Go_X	1.0
114.892	1.0	go	0.331	Go_O	1.0
117.425	0.2	stopsuccess	0.0	Go_X	1.0
119.958	1.0	go	0.454	Go_X	1.0
122.492	1.0	go	0.335	Go_O	1.0
125.025	0.25	stopfail	0.425	Go_O	0.0
127.558	1.0	go	0.407	Go_O	1.0
130.092	1.0	go	0.434	Go_X	1.0
132.641	0.2	stopsuccess	0.0	Go_X	1.0
135.175	1.0	go	0.339	Go_X	1.0
137.708	1.0	go	0.455	Go_O	1.0
140.241	0.25	stopfail	0.348	Go_O	0.0
142.775	1.0	go	0.502	Go_O	1.0
145.324	1.0	go	0.357	Go_X	1.0
147.858	1.0	go	0.475	Go_X	1.0
150.391	1.0	go	0.38	Go_O	1.0
152.924	1.0	go	0.41	Go_O	1.0
155.457	0.2	stopfail	0.427	Go_X	0.0
157.991	1.0	go	0.44	Go_X	1.0
160.524	1.0	go	0.407	Go_X	1.0
163.057	1.0	go	0.399	Go_O	1.0
165.591	1.0	go	0.494	Go_O	1.0
168.124	1.0	go	0.423	Go_X	1.0
170.657	0.15	stopsuccess	0.0	Go_O	1.0
173.19	1.0	go	0.455	Go_X	1.0
175.724	1.0	go	0.394	Go_O	1.0
178.257	1.0	go	0.465	Go_X	1.0
180.79	1.0	go	0.296	Go_O	1.0
183.323	1.0	go	0.426	Go_O	1.0
185.857	1.0	go	0.285	Go_X	1.0
188.39	0.2	stopfail	0.523	Go_X	0.0
190.923	1.0	go	0.373	Go_O	1.0
193.456	1.0	go	0.548	Go_X	1.0
195.99	0.15	stopsuccess	0.0	Go_O	1.0
198.523	1.0	go	0.668	Go_O	1.0
201.056	0.2	stopsuccess	0.0	Go_X	1.0
203.589	0.25	stopsuccess	0.0	Go_O	1.0
206.123	1.0	go	0.439	Go_X	1.0
208.656	1.0	go	0.384	Go_X	1.0
211.189	1.0	go	0.289	Go_O	1.0
213.723	1.0	go	0.722	Go_O	1.0
216.256	0.3	stopfail	0.385	Go_X	0.0
218.789	1.0	go	0.704	Go_X	1.0
221.322	0.25	stopfail	0.39	Go_O	0.0
223.856	1.0	go	0.611	Go_X	1.0
226.389	1.0	go	0.859	Go_O	1.0
228.922	1.0	go	0.452	Go_X	1.0
231.455	1.0	go	0.362	Go_O	1.0
233.989	1.0	go	0.484	Go_O	1.0
236.522	1.0	go	0.423	Go_X	1.0
239.055	1.0	go	0.922	Go_X	1.0
241.588	1.0	go	0.482	Go_O	1.0
244.122	1.0	go	0.487	Go_X	1.0
246.655	0.2	stopsuccess	0.0	Go_X	1.0
249.188	1.0	go	0.458	Go_O	1.0
251.722	1.0	go	0.712	Go_O	1.0
254.271	1.0	go	0.534	Go_X	1.0
256.805	0.25	stopsuccess	0.0	Go_O	1.0
259.338	1.0	go	0.498	Go_O	0.0
261.871	1.0	go	0.348	Go_X	1.0
264.404	1.0	go	0.431	Go_X	1.0
266.938	1.0	go	0.414	Go_O	1.0
269.471	1.0	go	0.504	Go_X	1.0
272.004	1.0	go	0.516	Go_O	1.0
274.538	0.3	stopsuccess	0.0	Go_X	1.0
277.071	1.0	go	0.279	Go_O	1.0
279.604	1.0	go	0.579	Go_X	1.0
282.137	0.35	stopsuccess	0.0	Go_O	1.0
284.671	1.0	go	0.502	Go_O	1.0
287.204	1.0	go	0.687	Go_X	1.0
289.737	0.4	stopsuccess	0.0	Go_X	1.0
292.27	1.0	go	0.318	Go_O	1.0
294.804	0.45	stopfail	0.453	Go_O	0.0
297.337	1.0	go	0.403	Go_X	1.0
299.87	1.0	go	0.311	Go_X	0.0
302.403	1.0	go	0.529	Go_O	1.0
304.937	1.0	go	0.667	Go_X	1.0
307.47	1.0	go	0.823	Go_O	1.0
310.003	0.4	stopsuccess	0.0	Go_X	1.0
312.537	0.45	stopfail	0.412	Go_O	0.0
315.086	1.0	go	0.726	Go_O	1.0
317.62	1.0	go	0.69	Go_X	1.0
320.153	0.4	stopfail	0.508	Go_X	0.0
322.686	1.0	go	0.477	Go_O	1.0
325.219	1.0	go	0.652	Go_X	1.0
327.753	1.0	go	0.488	Go_X	1.0
330.286	1.0	go	0.45	Go_O	1.0
332.819	1.0	go	0.54	Go_X	1.0
335.353	1.0	go	0.579	Go_O	1.0
337.886	0.35	stopsuccess	0.0	Go_O	1.0
340.419	1.0	go	0.0	Go_X	0.0
342.952	1.0	go	0.504	Go_O	1.0
345.486	1.0	go	0.451	Go_O	1.0
348.019	1.0	go	0.578	Go_X	1.0
350.552	1.0	go	0.398	Go_O	1.0
353.085	0.4	stopfail	0.243	Go_X	0.0
355.619	1.0	go	0.393	Go_X	0.0
358.152	1.0	go	0.341	Go_X	1.0
360.685	1.0	go	0.692	Go_O	1.0
363.218	1.0	go	0.377	Go_X	1.0
365.752	0.35	stopfail	0.471	Go_O	0.0
368.285	1.0	go	0.354	Go_O	1.0
370.818	1.0	go	0.403	Go_O	0.0
373.352	0.3	stopfail	0.356	Go_X	0.0
375.901	1.0	go	0.664	Go_X	1.0
378.435	0.25	stopfail	0.404	Go_O	0.0
380.968	1.0	go	0.607	Go_O	1.0
383.501	1.0	go	0.608	Go_X	1.0
386.034	1.0	go	0.464	Go_O	1.0
388.568	1.0	go	0.526	Go_X	1.0
391.101	1.0	go	0.5	Go_X	1.0
393.634	1.0	go	0.546	Go_O	1.0
396.168	1.0	go	0.733	Go_X	1.0
398.717	0.2	stopfail	0.487	Go_X	0.0
401.251	1.0	go	0.562	Go_O	1.0
403.784	1.0	go	0.301	Go_O	0.0
406.317	1.0	go	0.356	Go_X	1.0
408.851	0.15	stopfail	0.283	Go_O	0.0
411.4	1.0	go	0.586	Go_X	1.0
413.934	1.0	go	0.265	Go_O	1.0
416.467	1.0	go	0.279	Go_O	1.0
419.0	1.0	go	0.149	Go_X	0.0
421.533	0.1	stopfail	0.29	Go_X	0.0
424.083	1.0	go	0.75	Go_O	1.0
426.617	1.0	go	0.483	Go_X	1.0
429.15	0.05	stopsuccess	0.0	Go_O	1.0
431.683	1.0	go	0.409	Go_O	1.0
434.216	1.0	go	0.529	Go_X	1.0
436.75	0.1	stopsuccess	0.0	Go_X	1.0
439.283	1.0	go	0.427	Go_X	1.0
441.816	1.0	go	0.738	Go_O	1.0
444.35	0.15	stopsuccess	0.0	Go_O	1.0
446.883	1.0	go	0.586	Go_O	1.0
449.416	1.0	go	0.526	Go_X	1.0
451.949	1.0	go	0.517	Go_X	1.0
454.483	1.0	go	0.377	Go_O	1.0
457.016	1.0	go	0.454	Go_O	1.0
459.549	1.0	go	0.455	Go_X	1.0
462.082	0.2	stopfail	0.322	Go_X	0.0
464.616	1.0	go	0.484	Go_X	0.0
467.149	0.15	stopsuccess	0.0	Go_O	1.0
469.682	1.0	go	0.446	Go_O	1.0
472.215	1.0	go	0.366	Go_X	1.0
474.749	1.0	go	0.259	Go_O	0.0
477.282	1.0	go	0.564	Go_X	1.0
479.815	1.0	go	0.434	Go_O	1.0
482.348	0.2	stopfail	0.468	Go_X	0.0
484.882	1.0	go	0.854	Go_X	1.0
487.415	1.0	go	0.947	Go_O	1.0
489.948	1.0	go	0.782	Go_O	1.0
492.482	0.15	stopsuccess	0.0	Go_O	1.0
495.015	0.2	stopsuccess	0.0	Go_X	1.0
497.548	0.25	stopfail	0.487	Go_O	0.0
500.081	1.0	go	0.991	Go_X	1.0
502.615	0.2	stopsuccess	0.0	Go_X	1.0
505.148	1.0	go	0.362	Go_X	1.0
507.681	1.0	go	0.159	Go_O	1.0
510.214	1.0	go	0.488	Go_X	0.0
512.748	1.0	go	0.302	Go_O	1.0
515.281	1.0	go	0.633	Go_O	1.0
517.814	1.0	go	0.844	Go_X	1.0
520.347	1.0	go	0.522	Go_O	1.0
522.881	1.0	go	0.432	Go_X	1.0
525.414	0.25	stopfail	0.628	Go_O	0.0
527.947	1.0	go	0.84	Go_O	1.0
530.481	1.0	go	0.763	Go_X	1.0
533.03	0.2	stopsuccess	0.0	Go_X	1.0
535.564	1.0	go	0.607	Go_X	1.0
538.097	1.0	go	0.56	Go_O	1.0
540.63	1.0	go	0.559	Go_O	1.0
543.163	1.0	go	0.539	Go_X	1.0
545.697	1.0	go	0.379	Go_O	1.0
548.23	0.25	stopsuccess	0.0	Go_O	1.0
550.763	1.0	go	0.486	Go_X	1.0
553.297	1.0	go	0.0	Go_O	0.0
555.846	1.0	go	0.442	Go_X	1.0
558.38	0.3	stopsuccess	0.0	Go_X	1.0
560.913	1.0	go	0.48	Go_O	1.0
563.446	0.35	stopsuccess	0.0	Go_O	1.0
565.98	1.0	go	0.987	Go_X	1.0
568.529	1.0	go	0.109	Go_O	1.0
571.063	1.0	go	0.173	Go_X	0.0
573.596	1.0	go	0.227	Go_O	0.0
576.129	1.0	go	0.495	Go_X	1.0
578.662	1.0	go	0.308	Go_O	1.0
581.196	1.0	go	0.613	Go_X	1.0
583.729	0.4	stopfail	0.53	Go_X	0.0
586.262	1.0	go	0.399	Go_O	1.0
588.796	1.0	go	0.752	Go_X	1.0
591.329	1.0	go	0.552	Go_X	1.0
593.862	1.0	go	0.0	Go_O	0.0
596.395	0.35	stopfail	0.487	Go_O	0.0
598.929	1.0	go	0.271	Go_O	1.0
601.462	0.3	stopfail	0.09	Go_X	0.0
603.995	1.0	go	0.248	Go_X	0.0
606.528	1.0	go	0.519	Go_O	1.0
609.062	0.25	stopsuccess	0.0	Go_O	1.0
611.595	1.0	go	0.525	Go_X	1.0
614.128	1.0	go	0.6	Go_O	1.0
616.661	1.0	go	0.901	Go_X	1.0
619.195	1.0	go	0.597	Go_X	1.0
621.728	1.0	go	0.571	Go_O	1.0
624.261	1.0	go	0.603	Go_O	1.0
626.795	1.0	go	0.61	Go_X	1.0
629.344	1.0	go	0.0	Go_X	0.0
631.878	1.0	go	0.259	Go_O	1.0
634.411	1.0	go	0.458	Go_X	1.0
636.944	0.3	stopfail	0.35	Go_X	0.0
639.478	1.0	go	0.896	Go_O	1.0
642.027	1.0	go	0.487	Go_X	1.0
644.561	0.25	stopsuccess	0.0	Go_O	1.0
647.094	1.0	go	0.415	Go_O	1.0
649.627	0.3	stopsuccess	0.0	Go_X	1.0
652.16	1.0	go	0.546	Go_O	1.0
654.694	1.0	go	0.661	Go_X	1.0
657.227	0.35	stopfail	0.518	Go_O	0.0
659.76	1.0	go	0.569	Go_X	1.0
662.294	0.3	stopfail	0.486	Go_X	0.0
664.843	1.0	go	0.555	Go_O	1.0
667.377	1.0	go	0.701	Go_X	1.0
669.91	1.0	go	0.0	Go_O	0.0
672.443	0.25	stopfail	0.444	Go_O	0.0
674.977	1.0	go	0.622	Go_O	1.0
677.526	1.0	go	0.0	Go_X	0.0
680.06	1.0	go	0.421	Go_O	1.0
682.593	1.0	go	0.422	Go_X	1.0
685.126	0.2	stopsuccess	0.0	Go_X	1.0
687.66	1.0	go	0.557	Go_O	1.0
690.209	1.0	go	0.6	Go_X	1.0
692.743	0.25	stopsuccess	0.0	Go_O	1.0
695.276	1.0	go	0.449	Go_X	1.0
697.809	1.0	go	0.668	Go_O	1.0
700.342	1.0	go	0.603	Go_X	0.0
702.876	1.0	go	0.669	Go_O	1.0
705.409	0.3	stopfail	0.434	Go_X	0.0
707.942	1.0	go	0.641	Go_X	1.0
710.476	0.25	stopfail	0.34	Go_O	0.0
713.009	1.0	go	0.611	Go_O	1.0
715.542	1.0	go	0.466	Go_X	1.0
718.075	0.2	stopsuccess	0.0	Go_X	1.0
720.609	1.0	go	0.354	Go_O	1.0
723.142	1.0	go	0.683	Go_X	1.0
725.675	1.0	go	0.435	Go_O	0.0
728.208	1.0	go	0.451	Go_X	0.0
730.742	0.25	stopsuccess	0.0	Go_O	1.0
733.275	1.0	go	0.0	Go_O	0.0
735.808	0.3	stopfail	0.266	Go_X	0.0
738.341	1.0	go	0.54	Go_O	1.0
740.875	1.0	go	0.862	Go_X	1.0
743.408	1.0	go	0.528	Go_X	1.0
745.941	1.0	go	0.537	Go_O	1.0
748.475	1.0	go	0.587	Go_X	0.0
751.024	1.0	go	0.687	Go_O	1.0
753.558	0.25	stopsuccess	0.0	Go_O	1.0
756.091	1.0	go	0.416	Go_X	1.0
758.624	1.0	go	0.547	Go_O	1.0
761.157	0.3	stopsuccess	0.0	Go_X	1.0
763.691	1.0	go	0.788	Go_X	1.0
766.224	1.0	go	0.693	Go_O	1.0
768.757	0.35	stopsuccess	0.0	Go_O	1.0
771.291	1.0	go	0.422	Go_O	1.0
773.84	1.0	go	0.836	Go_X	1.0
776.374	1.0	go	0.446	Go_O	1.0
778.907	1.0	go	0.845	Go_X	1.0
781.44	0.4	stopfail	0.493	Go_X	0.0
783.974	1.0	go	0.139	Go_O	1.0
786.523	0.35	stopfail	0.455	Go_O	0.0
789.057	1.0	go	0.951	Go_X	1.0
791.59	1.0	go	0.784	Go_O	1.0
794.123	1.0	go	0.687	Go_X	1.0
796.657	1.0	go	0.0	Go_O	0.0
799.206	1.0	go	0.702	Go_X	1.0
801.74	0.3	stopfail	0.92	Go_X	0.0
804.273	1.0	go	0.514	Go_O	1.0
806.806	1.0	go	0.64	Go_X	1.0
809.339	0.25	stopfail	0.335	Go_O	0.0
811.873	0.2	stopfail	0.624	Go_X	0.0
814.406	1.0	go	0.768	Go_X	1.0
816.939	1.0	go	0.534	Go_O	1.0
819.473	1.0	go	0.488	Go_O	1.0
822.006	1.0	go	0.0	Go_X	0.0
824.539	0.15	stopfail	0.282	Go_O	0.0
827.072	1.0	go	0.508	Go_O	1.0
