onset	duration	trial_type	response_time	stim_file	accuracy
464.571	1.0	go	0.0	Go_X	0.0
467.162	1.0	go	0.455	Go_O	1.0
469.686	1.0	go	0.241	Go_X	1.0
472.211	1.0	go	0.494	Go_O	1.0
474.735	1.0	go	0.577	Go_O	1.0
477.259	1.0	go	0.526	Go_X	1.0
479.783	0.25	stopsuccess	0.0	Go_O	1.0
482.307	1.0	go	0.357	Go_X	1.0
484.832	0.3	stopfail	0.385	Go_X	0.0
487.356	1.0	go	0.399	Go_O	1.0
489.88	1.0	go	0.424	Go_O	1.0
492.404	1.0	go	0.38	Go_X	1.0
494.928	0.25	stopfail	0.443	Go_O	0.0
497.453	1.0	go	0.569	Go_O	1.0
499.977	1.0	go	0.474	Go_X	1.0
502.501	0.2	stopsuccess	0.0	Go_X	1.0
505.025	0.25	stopsuccess	0.0	Go_O	1.0
507.549	1.0	go	0.455	Go_X	1.0
510.074	1.0	go	0.519	Go_O	1.0
512.598	0.3	stopfail	0.34	Go_X	0.0
515.122	1.0	go	0.365	Go_O	1.0
517.646	1.0	go	0.288	Go_X	1.0
520.171	0.25	stopfail	0.386	Go_O	0.0
522.695	1.0	go	0.811	Go_O	1.0
525.219	1.0	go	0.399	Go_X	1.0
527.743	0.2	stopsuccess	0.0	Go_X	1.0
530.267	1.0	go	0.44	Go_X	1.0
532.792	1.0	go	0.506	Go_O	1.0
535.316	0.25	stopsuccess	0.0	Go_O	1.0
537.84	1.0	go	0.503	Go_X	1.0
540.364	1.0	go	0.284	Go_O	1.0
542.888	1.0	go	0.429	Go_O	1.0
545.413	1.0	go	0.363	Go_X	1.0
547.937	1.0	go	0.477	Go_X	1.0
550.461	0.3	stopfail	0.452	Go_X	0.0
552.985	1.0	go	0.307	Go_O	1.0
555.509	1.0	go	0.364	Go_X	1.0
558.034	1.0	go	0.72	Go_O	1.0
560.558	1.0	go	0.407	Go_X	1.0
563.082	1.0	go	0.333	Go_O	1.0
565.606	0.25	stopfail	0.397	Go_O	0.0
568.13	1.0	go	0.276	Go_O	0.0
570.655	1.0	go	0.292	Go_X	1.0
573.179	1.0	go	0.422	Go_X	1.0
575.703	1.0	go	0.493	Go_O	1.0
578.227	1.0	go	0.385	Go_O	1.0
580.751	1.0	go	0.72	Go_X	1.0
583.276	0.2	stopsuccess	0.0	Go_X	1.0
585.8	1.0	go	0.409	Go_X	0.0
588.324	1.0	go	0.476	Go_O	1.0
590.848	0.25	stopsuccess	0.0	Go_O	1.0
593.372	1.0	go	0.356	Go_X	1.0
595.897	0.3	stopsuccess	0.0	Go_X	1.0
598.421	0.35	stopfail	0.36	Go_O	0.0
600.945	1.0	go	0.353	Go_O	1.0
603.469	1.0	go	0.406	Go_O	1.0
605.993	1.0	go	0.322	Go_X	1.0
608.518	1.0	go	0.338	Go_O	1.0
611.042	0.3	stopsuccess	0.0	Go_X	1.0
613.566	1.0	go	0.443	Go_X	1.0
616.09	0.35	stopfail	0.37	Go_O	0.0
618.614	1.0	go	0.627	Go_O	1.0
621.139	1.0	go	0.598	Go_X	1.0
623.663	1.0	go	0.247	Go_X	0.0
626.187	1.0	go	0.393	Go_O	1.0
628.711	1.0	go	0.365	Go_X	1.0
631.235	1.0	go	0.237	Go_O	1.0
633.76	1.0	go	0.604	Go_O	1.0
636.284	1.0	go	0.553	Go_X	1.0
638.808	1.0	go	0.543	Go_X	1.0
641.332	0.3	stopfail	0.516	Go_X	0.0
643.856	1.0	go	0.378	Go_O	1.0
646.381	1.0	go	0.35	Go_O	0.0
648.905	1.0	go	0.52	Go_X	1.0
651.429	0.25	stopfail	0.3	Go_O	0.0
653.953	1.0	go	0.459	Go_O	1.0
656.477	1.0	go	0.311	Go_X	1.0
659.002	1.0	go	0.49	Go_X	1.0
661.526	1.0	go	0.332	Go_O	1.0
664.05	1.0	go	0.391	Go_X	1.0
666.574	1.0	go	0.258	Go_O	1.0
669.098	0.2	stopsuccess	0.0	Go_X	1.0
671.623	1.0	go	0.52	Go_O	1.0
674.147	1.0	go	0.97	Go_X	1.0
676.671	0.25	stopsuccess	0.0	Go_O	1.0
679.195	1.0	go	0.359	Go_O	1.0
681.72	1.0	go	0.282	Go_X	1.0
684.244	0.3	stopfail	0.739	Go_X	0.0
686.768	1.0	go	0.422	Go_O	1.0
689.292	0.25	stopsuccess	0.0	Go_O	1.0
691.816	1.0	go	0.622	Go_X	1.0
694.341	1.0	go	0.471	Go_X	1.0
696.865	1.0	go	0.33	Go_O	1.0
699.389	1.0	go	0.605	Go_X	1.0
701.913	1.0	go	0.399	Go_O	1.0
704.437	0.3	stopfail	0.284	Go_X	0.0
706.962	0.25	stopsuccess	0.0	Go_O	1.0
709.486	1.0	go	0.501	Go_X	1.0
712.01	1.0	go	0.716	Go_O	1.0
714.534	0.3	stopsuccess	0.0	Go_X	1.0
717.058	1.0	go	0.328	Go_X	1.0
719.583	1.0	go	0.308	Go_O	1.0
722.107	1.0	go	0.378	Go_X	1.0
724.631	1.0	go	0.36	Go_O	1.0
727.155	1.0	go	0.497	Go_X	1.0
729.679	1.0	go	0.367	Go_O	1.0
732.204	0.35	stopsuccess	0.0	Go_O	1.0
734.728	1.0	go	0.396	Go_O	1.0
737.252	1.0	go	0.354	Go_X	1.0
739.776	1.0	go	0.355	Go_O	1.0
742.3	1.0	go	0.389	Go_X	1.0
744.825	1.0	go	0.694	Go_X	1.0
747.349	0.4	stopfail	0.61	Go_X	0.0
749.873	1.0	go	0.513	Go_O	1.0
752.397	1.0	go	0.473	Go_O	1.0
754.921	1.0	go	0.502	Go_X	1.0
757.446	1.0	go	0.526	Go_X	1.0
759.97	0.35	stopsuccess	0.0	Go_O	1.0
762.494	1.0	go	0.489	Go_O	1.0
765.018	1.0	go	0.49	Go_X	1.0
767.542	0.4	stopfail	0.421	Go_X	0.0
770.067	1.0	go	0.438	Go_O	1.0
772.591	0.35	stopsuccess	0.0	Go_O	1.0
775.115	1.0	go	0.826	Go_X	1.0
777.639	1.0	go	0.0	Go_O	0.0
780.163	1.0	go	0.381	Go_X	1.0
782.688	1.0	go	0.276	Go_O	1.0
785.212	1.0	go	0.312	Go_X	1.0
787.736	1.0	go	0.749	Go_O	1.0
790.26	1.0	go	0.317	Go_X	1.0
792.784	0.4	stopfail	0.389	Go_X	0.0
795.309	1.0	go	0.681	Go_O	1.0
797.833	1.0	go	0.437	Go_X	1.0
800.357	1.0	go	0.278	Go_O	1.0
802.881	0.35	stopfail	0.575	Go_O	0.0
805.405	1.0	go	0.477	Go_X	1.0
807.93	1.0	go	0.0	Go_O	0.0
810.454	1.0	go	0.433	Go_O	1.0
812.978	1.0	go	0.384	Go_X	0.0
815.502	0.3	stopfail	0.488	Go_X	0.0
818.026	1.0	go	0.389	Go_X	1.0
820.551	1.0	go	0.372	Go_O	1.0
823.075	0.25	stopsuccess	0.0	Go_O	1.0
825.599	1.0	go	0.441	Go_X	1.0
828.123	1.0	go	0.547	Go_O	1.0
830.647	0.3	stopfail	0.443	Go_X	0.0
833.172	1.0	go	0.0	Go_O	0.0
835.696	1.0	go	0.0	Go_X	0.0
838.22	0.25	stopfail	0.757	Go_O	0.0
840.744	1.0	go	0.421	Go_O	1.0
843.269	1.0	go	0.422	Go_X	1.0
845.793	1.0	go	0.582	Go_X	1.0
848.317	1.0	go	0.473	Go_O	1.0
850.841	1.0	go	0.617	Go_O	1.0
853.365	1.0	go	0.524	Go_X	1.0
855.89	0.2	stopfail	0.482	Go_X	0.0
858.414	1.0	go	0.276	Go_X	0.0
860.938	0.15	stopsuccess	0.0	Go_O	1.0
863.462	1.0	go	0.807	Go_O	1.0
865.986	1.0	go	0.465	Go_X	1.0
868.511	1.0	go	0.393	Go_O	1.0
871.035	1.0	go	0.498	Go_X	1.0
873.559	1.0	go	0.442	Go_O	1.0
876.083	0.2	stopsuccess	0.0	Go_X	1.0
878.607	1.0	go	0.439	Go_X	1.0
881.132	1.0	go	0.521	Go_O	1.0
883.656	1.0	go	0.991	Go_O	1.0
886.18	0.25	stopsuccess	0.0	Go_O	1.0
888.704	0.3	stopfail	0.353	Go_X	0.0
891.228	0.25	stopsuccess	0.0	Go_O	1.0
893.753	1.0	go	0.366	Go_X	1.0
896.277	0.3	stopfail	0.398	Go_X	0.0
898.818	1.0	go	0.752	Go_X	1.0
901.342	1.0	go	0.268	Go_O	1.0
903.866	1.0	go	0.255	Go_O	0.0
906.39	1.0	go	0.433	Go_X	1.0
908.914	1.0	go	0.504	Go_O	1.0
911.439	1.0	go	0.434	Go_X	1.0
913.963	1.0	go	0.43	Go_O	1.0
916.487	1.0	go	0.576	Go_X	1.0
919.011	0.25	stopfail	0.488	Go_O	0.0
921.536	1.0	go	0.623	Go_O	1.0
924.06	1.0	go	0.558	Go_X	1.0
926.584	0.2	stopsuccess	0.0	Go_X	1.0
929.108	1.0	go	0.713	Go_O	1.0
931.632	1.0	go	0.273	Go_X	1.0
934.157	1.0	go	0.797	Go_X	1.0
936.681	1.0	go	0.398	Go_O	1.0
939.205	1.0	go	0.628	Go_O	1.0
941.729	0.25	stopfail	0.272	Go_O	0.0
944.253	1.0	go	0.724	Go_X	1.0
946.778	1.0	go	0.411	Go_O	1.0
949.302	1.0	go	0.72	Go_X	1.0
951.826	0.2	stopsuccess	0.0	Go_X	1.0
954.35	1.0	go	0.759	Go_X	1.0
956.874	0.25	stopfail	0.417	Go_O	0.0
959.399	1.0	go	0.744	Go_O	1.0
961.923	1.0	go	0.714	Go_X	1.0
964.447	1.0	go	0.485	Go_O	1.0
966.971	1.0	go	0.563	Go_O	1.0
969.495	1.0	go	0.309	Go_X	1.0
972.02	1.0	go	0.0	Go_O	0.0
974.544	1.0	go	0.0	Go_X	0.0
977.068	0.2	stopfail	0.47	Go_X	0.0
979.592	1.0	go	0.477	Go_O	1.0
982.116	1.0	go	0.394	Go_X	1.0
984.641	1.0	go	0.424	Go_O	1.0
987.165	1.0	go	0.697	Go_X	1.0
989.689	0.15	stopsuccess	0.0	Go_O	1.0
992.213	1.0	go	0.335	Go_O	1.0
994.737	0.2	stopsuccess	0.0	Go_X	1.0
997.262	1.0	go	0.51	Go_X	1.0
999.786	1.0	go	0.299	Go_O	1.0
1002.31	0.25	stopsuccess	0.0	Go_O	1.0
1004.834	1.0	go	0.0	Go_X	0.0
1007.358	1.0	go	0.419	Go_X	1.0
1009.883	1.0	go	0.478	Go_O	1.0
1012.407	1.0	go	0.708	Go_X	1.0
1014.931	1.0	go	0.484	Go_O	1.0
1017.455	1.0	go	0.166	Go_X	1.0
1019.979	1.0	go	0.51	Go_O	1.0
1022.504	1.0	go	0.516	Go_X	1.0
1025.028	1.0	go	0.353	Go_O	1.0
1027.552	1.0	go	0.249	Go_X	1.0
1030.076	0.3	stopfail	0.225	Go_X	0.0
1032.6	1.0	go	0.867	Go_O	1.0
1035.125	1.0	go	0.303	Go_X	1.0
1037.649	0.25	stopfail	0.353	Go_O	0.0
1040.173	1.0	go	0.532	Go_O	1.0
1042.697	0.2	stopfail	0.582	Go_X	0.0
1045.221	1.0	go	0.476	Go_X	1.0
1047.746	1.0	go	0.329	Go_O	1.0
1050.27	0.15	stopsuccess	0.0	Go_O	1.0
1052.794	1.0	go	0.71	Go_X	1.0
1055.318	0.2	stopsuccess	0.0	Go_X	1.0
1057.842	1.0	go	0.438	Go_O	1.0
1060.367	1.0	go	0.582	Go_O	1.0
1062.891	1.0	go	0.765	Go_X	1.0
1065.415	0.25	stopsuccess	0.0	Go_O	1.0
1067.939	1.0	go	0.359	Go_O	1.0
1070.463	1.0	go	0.598	Go_X	1.0
1072.988	1.0	go	0.48	Go_O	1.0
1075.512	1.0	go	0.0	Go_X	0.0
1078.036	0.3	stopsuccess	0.0	Go_X	1.0
1080.56	1.0	go	0.562	Go_X	1.0
1083.085	1.0	go	0.0	Go_O	0.0
1085.609	0.35	stopsuccess	0.0	Go_O	1.0
1088.133	1.0	go	0.0	Go_O	0.0
1090.657	1.0	go	0.226	Go_X	1.0
1093.181	1.0	go	0.244	Go_O	1.0
1095.706	1.0	go	0.267	Go_X	1.0
1098.23	0.4	stopfail	0.582	Go_X	0.0
1100.754	1.0	go	0.37	Go_O	1.0
1103.278	0.35	stopfail	0.492	Go_O	0.0
1105.802	1.0	go	0.547	Go_X	1.0
1108.327	1.0	go	0.628	Go_O	1.0
1110.851	0.3	stopsuccess	0.0	Go_X	1.0
1113.375	1.0	go	0.273	Go_X	1.0
1115.899	1.0	go	0.401	Go_X	1.0
1118.423	1.0	go	0.572	Go_O	1.0
1120.948	1.0	go	0.891	Go_X	1.0
1123.472	0.35	stopfail	0.508	Go_O	0.0
1125.996	1.0	go	0.964	Go_O	1.0
1128.52	0.3	stopfail	0.462	Go_X	0.0
1131.044	1.0	go	0.76	Go_X	1.0
1133.569	1.0	go	0.483	Go_O	1.0
1136.093	1.0	go	0.69	Go_O	1.0
1138.617	1.0	go	0.0	Go_X	0.0
1141.141	1.0	go	0.459	Go_O	1.0
1143.665	1.0	go	0.328	Go_X	1.0
1146.19	0.25	stopfail	0.428	Go_O	0.0
1148.714	1.0	go	0.668	Go_X	1.0
1151.238	1.0	go	0.0	Go_O	0.0
1153.762	0.2	stopsuccess	0.0	Go_X	1.0
1156.286	1.0	go	0.0	Go_X	0.0
1158.811	1.0	go	0.663	Go_O	1.0
1161.335	0.25	stopsuccess	0.0	Go_O	1.0
1163.859	1.0	go	0.733	Go_X	1.0
1166.383	1.0	go	0.0	Go_O	0.0
1168.907	1.0	go	0.919	Go_O	1.0
1171.432	1.0	go	0.332	Go_X	1.0
1173.956	0.3	stopsuccess	0.0	Go_X	1.0
1176.48	1.0	go	0.362	Go_X	0.0
1179.004	0.35	stopsuccess	0.0	Go_O	1.0
1181.528	1.0	go	0.666	Go_O	0.0
1184.053	1.0	go	0.687	Go_X	1.0
1186.577	1.0	go	0.582	Go_O	1.0
1189.101	1.0	go	0.758	Go_O	1.0
1191.625	1.0	go	0.57	Go_X	1.0
1194.149	0.4	stopsuccess	0.0	Go_X	1.0
1196.674	1.0	go	0.389	Go_X	1.0
1199.198	1.0	go	0.367	Go_O	1.0
1201.722	0.45	stopsuccess	0.0	Go_O	1.0
1204.246	0.5	stopfail	0.625	Go_X	0.0
1206.77	1.0	go	0.536	Go_X	1.0
1209.295	1.0	go	0.989	Go_O	1.0
1211.819	1.0	go	0.649	Go_O	1.0
1214.343	1.0	go	0.711	Go_X	1.0
1216.867	0.45	stopfail	0.442	Go_O	0.0
1219.391	1.0	go	0.232	Go_O	0.0
