onset	duration	trial_type	response_time	stim_file	accuracy
112.707	1.0	go	0.0	Go_O	0.0
115.24	1.0	go	0.268	Go_X	1.0
117.773	1.0	go	0.317	Go_X	1.0
120.307	1.0	go	0.251	Go_O	1.0
122.856	1.0	go	0.364	Go_X	1.0
125.39	1.0	go	0.254	Go_O	1.0
127.923	0.25	stop	0.241	Go_O	0.0
130.456	1.0	go	0.266	Go_X	1.0
132.989	0.2	stop	0.296	Go_X	0.0
135.523	1.0	go	0.293	Go_O	1.0
138.056	1.0	go	0.28	Go_O	1.0
140.589	1.0	go	0.282	Go_X	1.0
143.122	0.15	stop	0.0	Go_O	1.0
145.656	1.0	go	0.243	Go_X	1.0
148.189	1.0	go	0.26	Go_O	1.0
150.722	0.2	stop	0.333	Go_X	0.0
153.255	0.15	stop	0.0	Go_O	1.0
155.789	1.0	go	0.262	Go_X	1.0
158.322	1.0	go	0.417	Go_O	1.0
160.855	0.2	stop	0.361	Go_X	0.0
163.388	1.0	go	0.568	Go_X	1.0
165.922	1.0	go	0.394	Go_O	1.0
168.455	0.15	stop	0.0	Go_O	1.0
170.988	1.0	go	0.515	Go_O	1.0
173.521	1.0	go	0.423	Go_X	1.0
176.055	0.2	stop	0.341	Go_X	0.0
178.588	1.0	go	0.331	Go_X	1.0
181.121	1.0	go	0.309	Go_O	1.0
183.654	0.15	stop	0.0	Go_O	1.0
186.188	1.0	go	0.512	Go_O	1.0
188.737	1.0	go	0.356	Go_X	1.0
191.271	1.0	go	0.39	Go_X	1.0
193.804	1.0	go	0.559	Go_O	1.0
196.337	1.0	go	0.329	Go_O	0.0
198.87	0.2	stop	0.261	Go_X	0.0
201.404	1.0	go	0.438	Go_X	1.0
203.937	1.0	go	0.393	Go_O	1.0
206.47	1.0	go	0.283	Go_X	1.0
209.003	1.0	go	0.263	Go_O	1.0
211.537	1.0	go	0.306	Go_X	1.0
214.07	0.15	stop	0.361	Go_O	0.0
216.603	1.0	go	0.334	Go_X	1.0
219.136	1.0	go	0.299	Go_O	1.0
221.67	1.0	go	0.291	Go_X	1.0
224.203	1.0	go	0.332	Go_O	0.0
226.736	1.0	go	0.435	Go_O	1.0
229.269	1.0	go	0.391	Go_X	1.0
231.803	0.1	stop	0.229	Go_X	0.0
234.336	1.0	go	0.406	Go_X	1.0
236.869	1.0	go	0.368	Go_O	1.0
239.402	0.05	stop	0.0	Go_O	1.0
241.936	1.0	go	0.248	Go_O	0.0
244.485	0.1	stop	0.0	Go_X	1.0
247.019	0.15	stop	0.347	Go_O	0.0
249.552	1.0	go	0.261	Go_X	1.0
252.085	1.0	go	0.356	Go_O	1.0
254.618	1.0	go	0.33	Go_X	1.0
257.152	1.0	go	0.328	Go_X	1.0
259.685	0.1	stop	0.0	Go_X	1.0
262.218	1.0	go	0.306	Go_O	1.0
264.751	0.15	stop	0.0	Go_O	1.0
267.285	1.0	go	0.479	Go_O	1.0
269.818	1.0	go	0.393	Go_X	1.0
272.351	1.0	go	0.349	Go_O	1.0
274.884	1.0	go	0.246	Go_X	1.0
277.418	1.0	go	0.36	Go_X	1.0
279.951	1.0	go	0.279	Go_O	1.0
282.484	1.0	go	0.187	Go_O	1.0
285.017	1.0	go	0.317	Go_X	1.0
287.551	1.0	go	0.344	Go_X	0.0
290.084	0.2	stop	0.361	Go_X	0.0
292.617	1.0	go	0.308	Go_O	1.0
295.15	1.0	go	0.521	Go_O	1.0
297.684	1.0	go	0.453	Go_X	1.0
300.217	0.15	stop	0.0	Go_O	1.0
302.75	1.0	go	0.463	Go_O	1.0
305.283	1.0	go	0.318	Go_X	1.0
307.817	1.0	go	0.516	Go_X	1.0
310.366	1.0	go	0.366	Go_O	1.0
312.9	1.0	go	0.421	Go_X	1.0
315.433	1.0	go	0.336	Go_O	1.0
317.966	0.2	stop	0.387	Go_X	0.0
320.499	1.0	go	0.444	Go_X	1.0
323.033	1.0	go	0.354	Go_O	1.0
325.566	0.15	stop	0.0	Go_O	1.0
328.099	1.0	go	0.36	Go_O	0.0
330.632	1.0	go	0.389	Go_X	1.0
333.166	0.2	stop	0.0	Go_X	1.0
335.699	1.0	go	0.335	Go_O	1.0
338.232	0.25	stop	0.396	Go_O	0.0
340.765	1.0	go	0.411	Go_X	1.0
343.299	1.0	go	0.356	Go_X	1.0
345.832	1.0	go	0.375	Go_O	1.0
348.365	1.0	go	0.4	Go_O	1.0
350.898	1.0	go	0.458	Go_X	1.0
353.432	0.2	stop	0.393	Go_X	0.0
355.965	0.15	stop	0.361	Go_O	0.0
358.498	1.0	go	0.383	Go_X	1.0
361.031	1.0	go	0.297	Go_O	1.0
363.565	0.1	stop	0.27	Go_X	0.0
366.114	1.0	go	0.495	Go_X	1.0
368.648	1.0	go	0.519	Go_O	1.0
371.181	1.0	go	0.355	Go_X	1.0
373.714	1.0	go	0.433	Go_O	1.0
376.247	1.0	go	0.366	Go_O	1.0
378.781	1.0	go	0.396	Go_X	1.0
381.314	0.05	stop	0.0	Go_O	1.0
383.847	1.0	go	0.485	Go_O	1.0
386.38	1.0	go	0.441	Go_X	1.0
388.914	1.0	go	0.347	Go_X	1.0
391.447	1.0	go	0.397	Go_O	1.0
393.98	1.0	go	0.384	Go_X	1.0
396.513	0.1	stop	0.0	Go_X	1.0
399.047	1.0	go	0.343	Go_O	1.0
401.58	1.0	go	0.435	Go_X	1.0
404.113	1.0	go	0.376	Go_O	1.0
406.646	1.0	go	0.302	Go_X	1.0
409.18	0.15	stop	0.409	Go_O	0.0
411.713	1.0	go	0.466	Go_O	1.0
414.246	1.0	go	0.406	Go_O	1.0
416.779	0.1	stop	0.0	Go_X	1.0
419.313	1.0	go	0.312	Go_X	0.0
421.846	0.15	stop	0.0	Go_O	1.0
424.379	1.0	go	0.525	Go_O	1.0
426.912	1.0	go	0.452	Go_X	1.0
429.446	1.0	go	0.398	Go_X	1.0
431.995	1.0	go	0.485	Go_O	1.0
434.529	1.0	go	0.503	Go_X	1.0
437.062	1.0	go	0.433	Go_O	1.0
439.595	1.0	go	0.522	Go_O	1.0
442.128	0.2	stop	0.322	Go_X	0.0
444.662	1.0	go	0.368	Go_X	1.0
447.195	1.0	go	0.242	Go_O	1.0
449.728	1.0	go	0.337	Go_X	1.0
452.261	0.15	stop	0.0	Go_O	1.0
454.795	1.0	go	0.248	Go_X	1.0
457.328	1.0	go	0.388	Go_O	1.0
459.861	1.0	go	0.267	Go_X	1.0
462.394	1.0	go	0.35	Go_O	1.0
464.928	0.2	stop	0.327	Go_X	0.0
467.461	1.0	go	0.461	Go_X	1.0
469.994	1.0	go	0.297	Go_O	1.0
472.527	0.15	stop	0.0	Go_O	1.0
475.061	1.0	go	0.399	Go_X	1.0
477.594	1.0	go	0.599	Go_O	1.0
480.127	0.2	stop	0.218	Go_X	0.0
482.66	1.0	go	0.401	Go_X	1.0
485.194	1.0	go	0.395	Go_O	1.0
487.743	0.15	stop	0.0	Go_O	1.0
490.277	1.0	go	0.296	Go_X	1.0
492.81	1.0	go	0.343	Go_O	1.0
495.343	1.0	go	0.553	Go_X	1.0
497.876	1.0	go	0.351	Go_O	1.0
500.41	1.0	go	0.499	Go_X	1.0
502.943	1.0	go	0.373	Go_O	1.0
505.476	0.2	stop	0.388	Go_X	0.0
508.009	1.0	go	0.375	Go_O	1.0
510.543	0.15	stop	0.0	Go_O	1.0
513.076	1.0	go	0.3	Go_X	1.0
515.609	1.0	go	0.531	Go_O	1.0
518.142	1.0	go	0.344	Go_X	1.0
520.676	1.0	go	0.624	Go_X	1.0
523.209	1.0	go	0.423	Go_O	1.0
525.742	0.2	stop	0.39	Go_X	0.0
528.275	1.0	go	0.38	Go_O	1.0
530.809	1.0	go	0.316	Go_X	1.0
533.342	1.0	go	0.34	Go_O	1.0
535.875	0.15	stop	0.0	Go_O	1.0
538.408	0.2	stop	0.0	Go_X	1.0
540.942	0.25	stop	0.283	Go_O	0.0
543.491	1.0	go	0.33	Go_X	1.0
546.025	0.2	stop	0.359	Go_X	0.0
548.558	1.0	go	0.619	Go_X	1.0
551.091	1.0	go	0.475	Go_O	1.0
553.624	1.0	go	0.378	Go_O	0.0
556.158	1.0	go	0.339	Go_X	1.0
558.691	1.0	go	0.346	Go_X	1.0
561.224	1.0	go	0.506	Go_O	1.0
563.757	1.0	go	0.425	Go_O	1.0
566.291	1.0	go	0.337	Go_X	1.0
568.824	0.15	stop	0.0	Go_O	1.0
571.357	1.0	go	0.417	Go_X	1.0
573.89	1.0	go	0.314	Go_O	1.0
576.424	0.2	stop	0.0	Go_X	1.0
578.957	1.0	go	0.425	Go_O	1.0
581.49	1.0	go	0.372	Go_X	1.0
584.023	1.0	go	0.52	Go_X	1.0
586.557	1.0	go	0.416	Go_O	1.0
589.09	1.0	go	0.389	Go_X	1.0
591.623	0.25	stop	0.375	Go_O	0.0
594.156	1.0	go	0.35	Go_O	0.0
596.69	1.0	go	0.313	Go_X	1.0
599.223	1.0	go	0.372	Go_O	1.0
601.756	0.2	stop	0.0	Go_X	1.0
604.289	1.0	go	0.623	Go_O	1.0
606.823	0.25	stop	0.0	Go_O	1.0
609.372	1.0	go	0.36	Go_X	1.0
611.906	1.0	go	0.472	Go_O	1.0
614.439	1.0	go	0.328	Go_X	1.0
616.972	1.0	go	0.418	Go_X	1.0
619.505	1.0	go	0.413	Go_O	1.0
622.039	1.0	go	0.253	Go_O	0.0
624.572	1.0	go	0.261	Go_X	1.0
627.105	0.3	stop	0.328	Go_X	0.0
629.638	1.0	go	0.311	Go_O	1.0
632.172	1.0	go	0.32	Go_X	1.0
634.705	1.0	go	0.293	Go_O	1.0
637.238	1.0	go	0.347	Go_X	1.0
639.771	0.25	stop	0.0	Go_O	1.0
642.305	1.0	go	0.497	Go_O	1.0
644.838	0.3	stop	0.295	Go_X	0.0
647.371	1.0	go	0.446	Go_X	1.0
649.904	1.0	go	0.337	Go_O	1.0
652.438	0.25	stop	0.414	Go_O	0.0
654.971	1.0	go	0.402	Go_X	1.0
657.504	1.0	go	0.411	Go_O	1.0
660.037	1.0	go	0.435	Go_X	1.0
662.571	1.0	go	0.373	Go_O	1.0
665.12	1.0	go	0.431	Go_X	1.0
667.654	1.0	go	0.413	Go_O	1.0
670.187	1.0	go	0.375	Go_X	1.0
672.72	1.0	go	0.37	Go_O	1.0
675.253	1.0	go	0.31	Go_X	1.0
677.787	1.0	go	0.578	Go_X	1.0
680.32	0.2	stop	0.0	Go_X	1.0
682.853	1.0	go	0.389	Go_O	1.0
685.386	1.0	go	0.66	Go_O	1.0
687.92	0.25	stop	0.0	Go_O	1.0
690.453	1.0	go	0.451	Go_X	1.0
692.986	0.3	stop	0.0	Go_X	1.0
695.519	1.0	go	0.457	Go_X	1.0
698.053	1.0	go	0.409	Go_O	1.0
700.586	0.35	stop	0.511	Go_O	0.0
703.119	1.0	go	0.377	Go_X	1.0
705.652	0.3	stop	0.0	Go_X	1.0
708.186	1.0	go	0.33	Go_O	1.0
710.719	1.0	go	0.379	Go_X	1.0
713.252	1.0	go	0.609	Go_O	1.0
715.785	0.35	stop	0.478	Go_O	0.0
718.319	1.0	go	0.25	Go_X	1.0
720.852	1.0	go	0.482	Go_O	1.0
723.385	1.0	go	0.369	Go_X	1.0
725.918	1.0	go	0.438	Go_O	1.0
728.452	0.3	stop	0.38	Go_X	0.0
731.001	1.0	go	0.466	Go_X	1.0
733.535	1.0	go	0.392	Go_O	1.0
736.068	0.25	stop	0.403	Go_O	0.0
738.601	1.0	go	0.569	Go_O	1.0
741.134	1.0	go	0.366	Go_X	1.0
743.668	1.0	go	0.37	Go_O	1.0
746.201	1.0	go	0.339	Go_X	1.0
748.734	0.2	stop	0.0	Go_X	1.0
751.267	1.0	go	0.309	Go_O	1.0
753.801	0.25	stop	0.0	Go_O	1.0
756.334	1.0	go	0.48	Go_X	1.0
758.867	1.0	go	0.334	Go_O	1.0
761.4	0.3	stop	0.404	Go_X	0.0
763.934	1.0	go	0.619	Go_X	1.0
766.467	1.0	go	0.559	Go_O	1.0
769.0	1.0	go	0.295	Go_X	1.0
771.533	1.0	go	0.279	Go_O	1.0
774.067	0.25	stop	0.0	Go_O	1.0
776.6	1.0	go	0.486	Go_X	1.0
779.133	0.3	stop	0.451	Go_X	0.0
781.666	1.0	go	0.542	Go_X	1.0
784.2	1.0	go	0.475	Go_O	1.0
786.749	1.0	go	0.395	Go_O	1.0
789.283	1.0	go	0.364	Go_X	1.0
791.816	1.0	go	0.407	Go_O	1.0
794.349	1.0	go	0.325	Go_X	1.0
796.882	0.25	stop	0.0	Go_O	1.0
799.416	1.0	go	0.364	Go_X	1.0
801.949	1.0	go	0.444	Go_O	1.0
804.482	0.3	stop	0.0	Go_X	1.0
807.015	1.0	go	0.427	Go_X	1.0
809.549	1.0	go	0.292	Go_O	1.0
812.082	0.35	stop	0.519	Go_O	0.0
814.615	1.0	go	0.684	Go_O	1.0
817.148	1.0	go	0.54	Go_X	1.0
819.682	1.0	go	0.441	Go_O	1.0
822.215	1.0	go	0.617	Go_X	1.0
824.748	0.3	stop	0.0	Go_X	1.0
827.281	1.0	go	0.487	Go_X	1.0
829.815	0.35	stop	0.423	Go_O	0.0
832.348	1.0	go	0.656	Go_O	1.0
834.881	1.0	go	0.446	Go_O	1.0
837.414	1.0	go	0.549	Go_X	1.0
839.948	1.0	go	0.473	Go_X	1.0
842.497	1.0	go	0.552	Go_O	1.0
845.031	0.3	stop	0.494	Go_X	0.0
847.564	1.0	go	0.409	Go_O	1.0
850.097	1.0	go	0.634	Go_X	1.0
852.63	0.25	stop	0.0	Go_O	1.0
855.164	0.3	stop	0.372	Go_X	0.0
857.697	1.0	go	0.518	Go_X	1.0
860.23	1.0	go	0.511	Go_O	1.0
862.763	1.0	go	0.455	Go_X	1.0
865.297	1.0	go	0.482	Go_O	1.0
867.83	0.25	stop	0.0	Go_O	1.0
870.363	1.0	go	0.645	Go_O	1.0
