onset	duration	trial_type	response_time	stim_file	accuracy
63.832	1.0	go	0.952	Go_O	1.0
66.457	1.0	go	0.411	Go_X	1.0
68.981	1.0	go	0.508	Go_O	1.0
71.505	1.0	go	0.432	Go_X	1.0
74.03	1.0	go	0.367	Go_O	1.0
76.554	1.0	go	0.442	Go_X	1.0
79.078	0.25	stop	0.478	Go_O	0.0
81.602	1.0	go	0.367	Go_O	0.0
84.126	0.2	stop	0.527	Go_X	0.0
86.65	1.0	go	0.507	Go_X	1.0
89.175	1.0	go	0.368	Go_X	1.0
91.699	1.0	go	0.455	Go_O	1.0
94.223	0.15	stop	0.316	Go_O	0.0
96.747	1.0	go	0.39	Go_X	1.0
99.271	1.0	go	0.332	Go_O	0.0
101.796	0.1	stop	0.527	Go_X	0.0
104.336	0.05	stop	0.61	Go_O	0.0
106.861	1.0	go	0.282	Go_X	1.0
109.385	1.0	go	0.411	Go_O	1.0
111.909	0.0	stop	0.617	Go_X	0.0
114.45	1.0	go	0.404	Go_O	1.0
116.974	1.0	go	0.34	Go_X	1.0
119.498	0.0	stop	0.354	Go_O	0.0
122.039	1.0	go	0.401	Go_O	0.0
124.563	1.0	go	0.407	Go_X	1.0
127.087	0.0	stop	0.475	Go_X	0.0
129.628	1.0	go	0.404	Go_X	1.0
132.153	1.0	go	0.456	Go_O	1.0
134.677	0.0	stop	0.415	Go_O	0.0
137.218	1.0	go	0.328	Go_O	1.0
139.742	1.0	go	0.509	Go_X	1.0
142.266	1.0	go	0.458	Go_X	1.0
144.79	1.0	go	0.419	Go_O	1.0
147.314	1.0	go	0.768	Go_X	1.0
149.839	0.0	stop	0.674	Go_X	0.0
152.379	1.0	go	0.449	Go_O	1.0
154.904	1.0	go	0.504	Go_X	1.0
157.428	1.0	go	0.548	Go_O	1.0
159.952	1.0	go	0.731	Go_O	1.0
162.476	1.0	go	0.523	Go_X	1.0
165.0	0.0	stop	0.482	Go_O	0.0
167.541	1.0	go	0.486	Go_X	1.0
170.065	1.0	go	0.547	Go_O	1.0
172.59	1.0	go	0.57	Go_O	1.0
175.114	1.0	go	0.533	Go_X	1.0
177.638	1.0	go	0.554	Go_O	1.0
180.162	1.0	go	0.469	Go_X	1.0
182.686	0.0	stop	0.0	Go_X	1.0
185.227	1.0	go	0.854	Go_X	1.0
187.751	1.0	go	0.463	Go_O	1.0
190.276	0.05	stop	0.466	Go_O	0.0
192.8	1.0	go	0.374	Go_O	1.0
195.324	0.0	stop	0.86	Go_X	0.0
197.865	0.0	stop	0.494	Go_O	0.0
200.422	1.0	go	0.488	Go_X	1.0
202.947	1.0	go	0.524	Go_X	1.0
205.471	1.0	go	0.565	Go_O	1.0
207.995	1.0	go	0.522	Go_X	1.0
210.519	0.0	stop	0.419	Go_X	0.0
213.06	1.0	go	0.541	Go_O	1.0
215.584	0.0	stop	0.527	Go_O	0.0
218.125	1.0	go	0.401	Go_X	1.0
220.649	1.0	go	0.487	Go_O	1.0
223.174	1.0	go	0.506	Go_O	1.0
225.698	1.0	go	0.415	Go_X	1.0
228.222	1.0	go	0.491	Go_O	1.0
230.746	1.0	go	0.497	Go_X	1.0
233.27	1.0	go	0.607	Go_X	1.0
235.794	1.0	go	0.465	Go_O	1.0
238.319	1.0	go	0.685	Go_X	1.0
240.843	0.0	stop	0.442	Go_X	0.0
243.384	1.0	go	0.455	Go_O	1.0
245.908	1.0	go	0.392	Go_O	1.0
248.432	1.0	go	0.42	Go_X	1.0
250.956	0.0	stop	0.487	Go_O	0.0
253.497	1.0	go	0.478	Go_X	1.0
256.021	1.0	go	0.539	Go_O	1.0
258.546	1.0	go	0.404	Go_X	1.0
261.07	1.0	go	0.625	Go_O	1.0
263.594	1.0	go	0.859	Go_X	1.0
266.118	1.0	go	0.693	Go_O	1.0
268.642	0.0	stop	0.447	Go_X	0.0
271.183	1.0	go	0.681	Go_O	1.0
273.707	1.0	go	0.583	Go_X	1.0
276.232	0.0	stop	0.277	Go_O	0.0
278.772	1.0	go	0.655	Go_O	0.0
281.297	1.0	go	0.713	Go_X	1.0
283.821	0.0	stop	0.645	Go_X	0.0
286.362	1.0	go	0.507	Go_X	1.0
288.886	0.0	stop	0.447	Go_O	0.0
291.427	1.0	go	0.598	Go_O	1.0
293.951	1.0	go	0.512	Go_X	1.0
296.475	1.0	go	0.635	Go_O	1.0
298.999	1.0	go	0.613	Go_O	1.0
301.524	1.0	go	0.495	Go_X	1.0
304.048	0.0	stop	0.365	Go_X	0.0
306.589	0.0	stop	0.707	Go_O	0.0
309.13	1.0	go	0.684	Go_O	0.0
311.654	1.0	go	0.74	Go_X	1.0
314.178	0.0	stop	0.721	Go_X	0.0
316.719	1.0	go	0.576	Go_O	1.0
319.243	1.0	go	0.547	Go_X	1.0
321.767	1.0	go	0.585	Go_X	1.0
324.291	1.0	go	0.0	Go_O	0.0
326.816	1.0	go	0.694	Go_X	1.0
329.34	1.0	go	0.336	Go_O	1.0
331.864	0.0	stop	0.417	Go_O	0.0
334.405	1.0	go	0.35	Go_O	1.0
336.929	1.0	go	0.444	Go_X	1.0
339.453	1.0	go	0.388	Go_X	1.0
341.977	1.0	go	0.943	Go_O	1.0
344.501	1.0	go	0.85	Go_O	1.0
347.026	0.0	stop	0.244	Go_X	0.0
349.567	1.0	go	0.51	Go_X	1.0
352.091	1.0	go	0.525	Go_O	1.0
354.615	1.0	go	0.337	Go_X	1.0
357.139	1.0	go	0.317	Go_X	1.0
359.663	0.0	stop	0.441	Go_O	0.0
362.204	1.0	go	0.688	Go_O	1.0
364.728	1.0	go	0.585	Go_X	1.0
367.253	0.0	stop	0.834	Go_X	0.0
369.793	1.0	go	0.72	Go_O	1.0
372.318	0.0	stop	0.626	Go_O	0.0
374.859	1.0	go	0.752	Go_X	1.0
377.383	1.0	go	0.597	Go_O	1.0
379.907	1.0	go	0.525	Go_O	1.0
382.431	1.0	go	0.532	Go_X	1.0
384.955	1.0	go	0.641	Go_O	1.0
387.479	1.0	go	0.881	Go_X	1.0
390.004	1.0	go	0.622	Go_X	1.0
392.528	0.0	stop	0.0	Go_X	1.0
395.069	1.0	go	0.47	Go_O	1.0
397.593	1.0	go	0.307	Go_O	1.0
400.117	1.0	go	0.353	Go_X	1.0
402.641	0.05	stop	0.377	Go_O	0.0
405.165	1.0	go	0.429	Go_O	0.0
407.69	1.0	go	0.522	Go_X	1.0
410.214	1.0	go	0.563	Go_O	1.0
412.738	1.0	go	0.436	Go_X	1.0
415.262	0.0	stop	0.43	Go_X	0.0
417.803	1.0	go	0.27	Go_O	0.0
420.327	1.0	go	0.69	Go_X	1.0
422.851	0.0	stop	0.821	Go_O	0.0
425.392	1.0	go	0.975	Go_O	1.0
427.917	1.0	go	0.421	Go_X	1.0
430.441	0.0	stop	0.519	Go_X	0.0
432.982	1.0	go	0.521	Go_X	1.0
435.506	1.0	go	0.455	Go_O	1.0
438.03	0.0	stop	0.0	Go_O	1.0
440.571	1.0	go	0.455	Go_O	1.0
443.095	1.0	go	0.472	Go_X	0.0
445.619	1.0	go	0.477	Go_O	1.0
448.143	1.0	go	0.704	Go_X	1.0
450.668	1.0	go	0.389	Go_O	1.0
453.192	1.0	go	0.435	Go_X	1.0
455.716	0.05	stop	0.52	Go_X	0.0
458.24	1.0	go	0.815	Go_O	1.0
460.764	0.0	stop	0.701	Go_O	0.0
463.305	1.0	go	0.0	Go_X	0.0
465.829	1.0	go	0.675	Go_X	1.0
468.354	1.0	go	0.0	Go_O	0.0
470.878	1.0	go	0.566	Go_O	1.0
473.402	1.0	go	0.561	Go_X	1.0
475.926	0.0	stop	0.477	Go_X	0.0
478.467	1.0	go	0.451	Go_X	1.0
480.991	1.0	go	0.54	Go_O	1.0
483.515	1.0	go	0.0	Go_X	0.0
486.04	0.0	stop	0.778	Go_O	0.0
488.581	0.0	stop	0.542	Go_X	0.0
491.121	0.0	stop	0.564	Go_O	0.0
493.662	1.0	go	0.456	Go_O	1.0
496.186	0.0	stop	0.971	Go_X	0.0
498.727	1.0	go	0.853	Go_O	1.0
501.252	1.0	go	0.77	Go_X	1.0
503.776	1.0	go	0.708	Go_O	1.0
506.3	1.0	go	0.653	Go_X	1.0
508.824	1.0	go	0.471	Go_O	1.0
511.348	1.0	go	0.533	Go_X	1.0
513.872	1.0	go	0.735	Go_X	1.0
516.397	1.0	go	0.455	Go_O	1.0
518.921	0.0	stop	0.602	Go_O	0.0
521.462	1.0	go	0.67	Go_X	1.0
523.986	1.0	go	0.706	Go_O	1.0
526.51	0.0	stop	0.0	Go_X	1.0
529.051	1.0	go	0.567	Go_O	1.0
531.575	1.0	go	0.525	Go_X	1.0
534.099	1.0	go	0.639	Go_O	1.0
536.624	1.0	go	0.96	Go_X	1.0
539.148	1.0	go	0.517	Go_X	1.0
541.672	0.05	stop	0.405	Go_O	0.0
544.196	1.0	go	0.492	Go_O	1.0
546.72	1.0	go	0.544	Go_O	1.0
549.244	1.0	go	0.306	Go_X	0.0
551.769	0.0	stop	0.515	Go_X	0.0
554.31	1.0	go	0.377	Go_O	1.0
556.834	0.0	stop	0.496	Go_O	0.0
559.375	1.0	go	0.957	Go_X	1.0
561.899	1.0	go	0.939	Go_X	1.0
564.423	1.0	go	0.71	Go_O	1.0
566.947	1.0	go	0.902	Go_O	1.0
569.471	1.0	go	0.0	Go_X	0.0
571.996	1.0	go	0.616	Go_O	1.0
574.52	1.0	go	0.811	Go_X	1.0
577.044	0.0	stop	0.705	Go_X	0.0
579.585	1.0	go	0.724	Go_O	1.0
582.109	1.0	go	0.98	Go_X	1.0
584.633	1.0	go	0.574	Go_O	1.0
587.157	1.0	go	0.677	Go_X	1.0
589.682	0.0	stop	0.978	Go_O	0.0
592.222	1.0	go	0.484	Go_O	1.0
594.747	0.0	stop	0.504	Go_X	0.0
597.288	1.0	go	0.881	Go_X	1.0
599.812	1.0	go	0.662	Go_X	1.0
602.336	0.0	stop	0.0	Go_O	1.0
604.877	1.0	go	0.524	Go_O	1.0
607.401	1.0	go	0.78	Go_X	1.0
609.925	1.0	go	0.739	Go_O	1.0
612.449	1.0	go	0.54	Go_O	1.0
614.974	1.0	go	0.869	Go_X	1.0
617.498	1.0	go	0.581	Go_X	1.0
620.022	1.0	go	0.684	Go_O	1.0
622.546	1.0	go	0.461	Go_O	1.0
625.07	1.0	go	0.0	Go_X	0.0
627.594	1.0	go	0.0	Go_O	0.0
630.119	0.05	stop	0.599	Go_X	0.0
632.643	1.0	go	0.513	Go_X	1.0
635.167	1.0	go	0.289	Go_O	1.0
637.691	0.0	stop	0.349	Go_O	0.0
640.232	1.0	go	0.466	Go_X	1.0
642.756	0.0	stop	0.594	Go_X	0.0
645.297	1.0	go	0.57	Go_O	1.0
647.821	1.0	go	0.58	Go_X	1.0
650.346	0.0	stop	0.565	Go_O	0.0
652.886	1.0	go	0.857	Go_X	1.0
655.411	0.0	stop	0.541	Go_X	0.0
657.951	1.0	go	0.482	Go_O	1.0
660.476	1.0	go	0.509	Go_X	1.0
663.0	1.0	go	0.949	Go_O	1.0
665.524	0.0	stop	0.0	Go_O	1.0
668.065	1.0	go	0.567	Go_X	1.0
670.589	1.0	go	0.601	Go_O	1.0
673.113	1.0	go	0.501	Go_O	1.0
675.637	1.0	go	0.432	Go_X	1.0
678.162	0.05	stop	0.462	Go_X	0.0
680.686	1.0	go	0.445	Go_O	0.0
683.21	1.0	go	0.577	Go_X	1.0
685.734	0.0	stop	0.506	Go_O	0.0
688.275	1.0	go	0.403	Go_X	1.0
690.799	1.0	go	0.69	Go_O	1.0
693.323	1.0	go	0.627	Go_X	1.0
695.848	1.0	go	0.704	Go_O	1.0
698.372	0.0	stop	0.55	Go_X	0.0
700.913	1.0	go	0.509	Go_O	1.0
703.437	0.0	stop	0.546	Go_O	0.0
705.978	1.0	go	0.52	Go_X	1.0
708.502	1.0	go	0.787	Go_O	1.0
711.026	0.0	stop	0.597	Go_X	0.0
713.567	1.0	go	0.665	Go_X	1.0
716.091	1.0	go	0.473	Go_X	1.0
718.615	1.0	go	0.533	Go_O	1.0
721.14	1.0	go	0.0	Go_O	0.0
723.664	0.0	stop	0.951	Go_O	0.0
726.205	1.0	go	0.951	Go_X	1.0
728.729	0.0	stop	0.0	Go_X	1.0
731.27	1.0	go	0.665	Go_X	1.0
733.794	1.0	go	0.565	Go_O	1.0
736.318	1.0	go	0.426	Go_X	1.0
738.842	1.0	go	0.323	Go_O	1.0
741.367	1.0	go	0.339	Go_O	0.0
743.891	1.0	go	0.414	Go_X	1.0
746.415	0.05	stop	0.572	Go_O	0.0
748.939	1.0	go	0.49	Go_X	1.0
751.463	1.0	go	0.635	Go_O	1.0
753.987	0.0	stop	0.693	Go_X	0.0
756.528	1.0	go	0.0	Go_X	0.0
759.053	1.0	go	0.593	Go_O	1.0
761.577	0.0	stop	0.6	Go_O	0.0
764.118	1.0	go	0.397	Go_O	1.0
766.642	1.0	go	0.354	Go_X	0.0
769.166	1.0	go	0.544	Go_X	1.0
771.69	1.0	go	0.0	Go_O	0.0
774.214	0.0	stop	0.516	Go_X	0.0
776.755	1.0	go	0.465	Go_O	1.0
779.279	0.0	stop	0.723	Go_O	0.0
781.82	1.0	go	0.754	Go_X	1.0
784.344	1.0	go	0.851	Go_X	1.0
786.869	1.0	go	0.562	Go_O	1.0
789.393	1.0	go	0.591	Go_O	1.0
791.917	1.0	go	0.801	Go_X	1.0
794.441	0.0	stop	0.598	Go_X	0.0
796.982	1.0	go	0.0	Go_O	0.0
799.506	1.0	go	0.455	Go_X	1.0
802.03	0.0	stop	0.462	Go_O	0.0
804.571	0.0	stop	0.0	Go_X	1.0
807.112	1.0	go	0.599	Go_X	1.0
809.636	1.0	go	0.559	Go_O	1.0
812.161	1.0	go	0.7	Go_X	1.0
814.685	1.0	go	0.458	Go_O	1.0
817.209	0.05	stop	0.638	Go_O	0.0
819.733	1.0	go	0.806	Go_X	1.0
