frame	onset	duration	trial_type	event_type	response_type	response_time	stim_file	accuracy
0	97.643		loss-reward	ImageDisplay1		0.0		
0	99.849	0.75	loss-reward	StartDisplay				
0	100.601		loss-reward	ImageDisplay2		0.0		
0	103.61	1.6	loss-reward	ChoiceDisplay	1	0.41	1	1
0	104.045	1.19	loss-reward	ChosenDisplay		0.0		
0	105.232	0.25	loss-reward	TurnDisplay				
0	105.466	0.75	loss-reward	OutcomeDisplay				
1	106.218		win-reward	ImageDisplay1		0.0		
1	108.207	0.75	win-reward	StartDisplay				
1	108.96		win-reward	ImageDisplay2		0.0		
1	112.219	1.6	win-reward	ChoiceDisplay	1	0.728	1	1
1	112.972	0.872	win-reward	ChosenDisplay		0.0		
1	113.824	0.25	win-reward	TurnDisplay				
1	114.075	0.75	win-reward	OutcomeDisplay				
2	114.827		control-noreward	ImageDisplay1		0.0		
2	116.816	0.75	control-noreward	StartDisplay				
2	117.569		control-noreward	ImageDisplay2		0.0		
2	120.828	1.6	control-noreward	ChoiceDisplay	1	0.786	1	1
2	121.631	0.814	control-noreward	ChosenDisplay		0.0		
2	122.433	0.25	control-noreward	TurnDisplay				
2	122.684	0.75	control-noreward	OutcomeDisplay				
3	123.436		win-reward	ImageDisplay1		0.0		
3	125.426	0.75	win-reward	StartDisplay				
3	126.178		win-reward	ImageDisplay2		0.0		
3	129.438	1.6	win-reward	ChoiceDisplay	1	0.917	1	1
3	130.374	0.683	win-reward	ChosenDisplay		0.0		
3	131.042	0.25	win-reward	TurnDisplay				
3	131.293	0.75	win-reward	OutcomeDisplay				
4	132.045		control-reward	ImageDisplay1		0.0		
4	134.285	0.75	control-reward	StartDisplay				
4	135.038		control-reward	ImageDisplay2		0.0		
4	138.047	1.6	control-reward	ChoiceDisplay	1	0.807	1	1
4	138.866	0.793	control-reward	ChosenDisplay		0.0		
4	139.651	0.25	control-reward	TurnDisplay				
4	139.902	0.75	control-reward	OutcomeDisplay				
5	140.654		loss-reward	ImageDisplay1		0.0		
5	142.644	0.75	loss-reward	StartDisplay				
5	143.396		loss-reward	ImageDisplay2		0.0		
5	146.656	1.6	loss-reward	ChoiceDisplay	1	0.622	1	1
5	147.291	0.978	loss-reward	ChosenDisplay		0.0		
5	148.26	0.25	loss-reward	TurnDisplay				
5	148.511	0.75	loss-reward	OutcomeDisplay				
6	149.264		loss-reward	ImageDisplay1		0.0		
6	151.253	0.75	loss-reward	StartDisplay				
6	152.005		loss-reward	ImageDisplay2		0.0		
6	155.265	1.6	loss-reward	ChoiceDisplay	1	0.893	1	1
6	156.184	0.707	loss-reward	ChosenDisplay		0.0		
6	156.869	0.25	loss-reward	TurnDisplay				
6	157.12	0.75	loss-reward	OutcomeDisplay				
7	157.872		win-reward	ImageDisplay1		0.0		
7	159.862	0.75	win-reward	StartDisplay				
7	160.614		win-reward	ImageDisplay2		0.0		
7	163.874	1.6	win-reward	ChoiceDisplay	1	0.847	1	1
7	164.743	0.753	win-reward	ChosenDisplay		0.0		
7	165.478	0.25	win-reward	TurnDisplay				
7	165.729	0.75	win-reward	OutcomeDisplay				
8	166.481		control-noreward	ImageDisplay1		0.0		
8	168.721	0.75	control-noreward	StartDisplay				
8	169.474		control-noreward	ImageDisplay2		0.0		
8	172.483	1.6	control-noreward	ChoiceDisplay	1	1.05	1	1
8	173.553	0.55	control-noreward	ChosenDisplay		0.0		
8	174.087	0.25	control-noreward	TurnDisplay				
8	174.338	0.75	control-noreward	OutcomeDisplay				
9	175.09		control-noreward	ImageDisplay1		0.0		
9	177.33	0.75	control-noreward	StartDisplay				
9	178.083		control-noreward	ImageDisplay2		0.0		
9	181.092	1.6	control-noreward	ChoiceDisplay	1	1.044	1	1
9	182.162	0.556	control-noreward	ChosenDisplay		0.0		
9	182.697	0.25	control-noreward	TurnDisplay				
9	182.947	0.75	control-noreward	OutcomeDisplay				
10	183.7		control-reward	ImageDisplay1		0.0		
10	185.689	0.75	control-reward	StartDisplay				
10	186.441		control-reward	ImageDisplay2		0.0		
10	189.701	1.6	control-reward	ChoiceDisplay	1	0.825	1	1
10	190.537	0.775	control-reward	ChosenDisplay		0.0		
10	191.306	0.25	control-reward	TurnDisplay				
10	191.556	0.75	control-reward	OutcomeDisplay				
11	192.309		win-noreward	ImageDisplay1		0.0		
11	194.549	0.75	win-noreward	StartDisplay				
11	195.301		win-noreward	ImageDisplay2		0.0		
11	198.31	1.6	win-noreward	ChoiceDisplay	1	0.662	1	1
11	198.995	0.938	win-noreward	ChosenDisplay		0.0		
11	199.915	0.25	win-noreward	TurnDisplay				
11	200.165	0.75	win-noreward	OutcomeDisplay				
12	200.918		loss-noreward	ImageDisplay1		0.0		
12	203.158	0.75	loss-noreward	StartDisplay				
12	203.91		loss-noreward	ImageDisplay2		0.0		
12	206.919	1.6	loss-noreward	ChoiceDisplay	1	0.754	1	1
12	207.688	0.846	loss-noreward	ChosenDisplay		0.0		
12	208.524	0.25	loss-noreward	TurnDisplay				
12	208.791	0.75	loss-noreward	OutcomeDisplay				
13	209.527		control-reward	ImageDisplay1		0.0		
13	211.516	0.75	control-reward	StartDisplay				
13	212.268		control-reward	ImageDisplay2		0.0		
13	215.528	1.6	control-reward	ChoiceDisplay	1	0.759	1	1
13	216.314	0.841	control-reward	ChosenDisplay		0.0		
13	217.133	0.25	control-reward	TurnDisplay				
13	217.383	0.75	control-reward	OutcomeDisplay				
14	218.136		loss-noreward	ImageDisplay1		0.0		
14	220.125	0.75	loss-noreward	StartDisplay				
14	220.877		loss-noreward	ImageDisplay2		0.0		
14	224.137	1.6	loss-noreward	ChoiceDisplay	1	0.786	1	1
14	224.939	0.814	loss-noreward	ChosenDisplay		0.0		
14	225.742	0.25	loss-noreward	TurnDisplay				
14	225.992	0.75	loss-noreward	OutcomeDisplay				
15	226.745		win-noreward	ImageDisplay1		0.0		
15	228.734	0.75	win-noreward	StartDisplay				
15	229.486		win-noreward	ImageDisplay2		0.0		
15	232.746	1.6	win-noreward	ChoiceDisplay	1	0.69	1	1
15	233.448	0.91	win-noreward	ChosenDisplay		0.0		
15	234.351	0.25	win-noreward	TurnDisplay				
15	234.601	0.75	win-noreward	OutcomeDisplay				
16	235.354		control-reward	ImageDisplay1		0.0		
16	237.594	0.75	control-reward	StartDisplay				
16	238.346		control-reward	ImageDisplay2		0.0		
16	241.355	1.6	control-reward	ChoiceDisplay	1	1.125	1	1
16	242.492	0.475	control-reward	ChosenDisplay		0.0		
16	242.96	0.25	control-reward	TurnDisplay				
16	243.211	0.75	control-reward	OutcomeDisplay				
17	243.963		win-reward	ImageDisplay1		0.0		
17	245.952	0.75	win-reward	StartDisplay				
17	246.704		win-reward	ImageDisplay2		0.0		
17	249.964	1.6	win-reward	ChoiceDisplay	1	0.801	1	1
17	250.783	0.799	win-reward	ChosenDisplay		0.0		
17	251.569	0.25	win-reward	TurnDisplay				
17	251.82	0.75	win-reward	OutcomeDisplay				
18	252.572		win-reward	ImageDisplay1		0.0		
18	254.812	0.75	win-reward	StartDisplay				
18	255.564		win-reward	ImageDisplay2		0.0		
18	258.573	1.6	win-reward	ChoiceDisplay	1	0.566	1	1
18	259.158	1.034	win-reward	ChosenDisplay		0.0		
18	260.178	0.25	win-reward	TurnDisplay				
18	260.429	0.75	win-reward	OutcomeDisplay				
19	261.181		loss-reward	ImageDisplay1		0.0		
19	263.421	0.75	loss-reward	StartDisplay				
19	264.173		loss-reward	ImageDisplay2		0.0		
19	267.182	1.6	loss-reward	ChoiceDisplay	1	0.755	1	1
19	267.951	0.845	loss-reward	ChosenDisplay		0.0		
19	268.787	0.25	loss-reward	TurnDisplay				
19	269.038	0.75	loss-reward	OutcomeDisplay				
20	269.79		win-reward	ImageDisplay1		0.0		
20	272.03	0.75	win-reward	StartDisplay				
20	272.782		win-reward	ImageDisplay2		0.0		
20	275.791	1.6	win-reward	ChoiceDisplay	1	0.642	1	1
20	276.46	0.958	win-reward	ChosenDisplay		0.0		
20	277.396	0.25	win-reward	TurnDisplay				
20	277.647	0.75	win-reward	OutcomeDisplay				
21	278.399		control-reward	ImageDisplay1		0.0		
21	280.388	0.75	control-reward	StartDisplay				
21	281.14		control-reward	ImageDisplay2		0.0		
21	284.4	1.6	control-reward	ChoiceDisplay	1	0.711	1	1
21	285.136	0.889	control-reward	ChosenDisplay		0.0		
21	286.005	0.25	control-reward	TurnDisplay				
21	286.256	0.75	control-reward	OutcomeDisplay				
22	287.008		win-noreward	ImageDisplay1		0.0		
22	289.248	0.75	win-noreward	StartDisplay				
22	290.0		win-noreward	ImageDisplay2		0.0		
22	293.009	1.6	win-noreward	ChoiceDisplay	1	0.753	1	1
22	293.778	0.847	win-noreward	ChosenDisplay		0.0		
22	294.614	0.25	win-noreward	TurnDisplay				
22	294.865	0.75	win-noreward	OutcomeDisplay				
23	295.617		control-reward	ImageDisplay1		0.0		
23	297.857	0.75	control-reward	StartDisplay				
23	298.609		control-reward	ImageDisplay2		0.0		
23	301.618	1.6	control-reward	ChoiceDisplay	1	0.909	1	1
23	302.538	0.691	control-reward	ChosenDisplay		0.0		
23	303.223	0.25	control-reward	TurnDisplay				
23	303.474	0.75	control-reward	OutcomeDisplay				
24	304.226		loss-noreward	ImageDisplay1		0.0		
24	306.215	0.75	loss-noreward	StartDisplay				
24	306.968		loss-noreward	ImageDisplay2		0.0		
24	310.227	1.6	loss-noreward	ChoiceDisplay	1	0.984	1	1
24	311.23	0.616	loss-noreward	ChosenDisplay		0.0		
24	311.832	0.25	loss-noreward	TurnDisplay				
24	312.083	0.75	loss-noreward	OutcomeDisplay				
25	312.835		win-reward	ImageDisplay1		0.0		
25	314.824	0.75	win-reward	StartDisplay				
25	315.577		win-reward	ImageDisplay2		0.0		
25	318.836	1.6	win-reward	ChoiceDisplay	1	1.104	1	1
25	319.956	0.496	win-reward	ChosenDisplay		0.0		
25	320.441	0.25	win-reward	TurnDisplay				
25	320.692	0.75	win-reward	OutcomeDisplay				
26	321.444		win-reward	ImageDisplay1		0.0		
26	323.684	0.75	win-reward	StartDisplay				
26	324.436		win-reward	ImageDisplay2		0.0		
26	327.445	1.6	win-reward	ChoiceDisplay	1	0.805	1	1
26	328.264	0.795	win-reward	ChosenDisplay		0.0		
26	329.05	0.25	win-reward	TurnDisplay				
26	329.301	0.75	win-reward	OutcomeDisplay				
27	330.053		loss-noreward	ImageDisplay1		0.0		
27	332.293	0.75	loss-noreward	StartDisplay				
27	333.045		loss-noreward	ImageDisplay2		0.0		
27	336.054	1.6	loss-noreward	ChoiceDisplay	1	0.833	1	1
27	336.907	0.767	loss-noreward	ChosenDisplay		0.0		
27	337.659	0.25	loss-noreward	TurnDisplay				
27	337.91	0.75	loss-noreward	OutcomeDisplay				
28	338.662		win-reward	ImageDisplay1		0.0		
28	340.651	0.75	win-reward	StartDisplay				
28	341.404		win-reward	ImageDisplay2		0.0		
28	344.663	1.6	win-reward	ChoiceDisplay	1	1.096	1	1
28	345.783	0.504	win-reward	ChosenDisplay		0.0		
28	346.268	0.25	win-reward	TurnDisplay				
28	346.519	0.75	win-reward	OutcomeDisplay				
29	347.271		win-noreward	ImageDisplay1		0.0		
29	349.511	0.75	win-noreward	StartDisplay				
29	350.263		win-noreward	ImageDisplay2		0.0		
29	353.272	1.6	win-noreward	ChoiceDisplay	1	1.181	1	1
29	354.476	0.419	win-noreward	ChosenDisplay		0.0		
29	354.877	0.25	win-noreward	TurnDisplay				
29	355.128	0.75	win-noreward	OutcomeDisplay				
30	355.88		win-noreward	ImageDisplay1		0.0		
30	358.12	0.75	win-noreward	StartDisplay				
30	358.873		win-noreward	ImageDisplay2		0.0		
30	361.881	1.6	win-noreward	ChoiceDisplay	1	0.98	1	1
30	362.884	0.62	win-noreward	ChosenDisplay		0.0		
30	363.486	0.25	win-noreward	TurnDisplay				
30	363.737	0.75	win-noreward	OutcomeDisplay				
31	364.489		control-noreward	ImageDisplay1		0.0		
31	366.729	0.75	control-noreward	StartDisplay				
31	367.482		control-noreward	ImageDisplay2		0.0		
31	370.491	1.6	control-noreward	ChoiceDisplay	1	1.165	1	1
31	371.677	0.435	control-noreward	ChosenDisplay		0.0		
31	372.095	0.25	control-noreward	TurnDisplay				
31	372.346	0.75	control-noreward	OutcomeDisplay				
32	373.098		loss-reward	ImageDisplay1		0.0		
32	375.088	0.75	loss-reward	StartDisplay				
32	375.84		loss-reward	ImageDisplay2		0.0		
32	379.1	1.6	loss-reward	ChoiceDisplay	1	0.953	1	1
32	380.069	0.647	loss-reward	ChosenDisplay		0.0		
32	380.704	0.25	loss-reward	TurnDisplay				
32	380.955	0.75	loss-reward	OutcomeDisplay				
33	381.707		win-noreward	ImageDisplay1		0.0		
33	383.947	0.75	win-noreward	StartDisplay				
33	384.7		win-noreward	ImageDisplay2		0.0		
33	387.709	1.6	win-noreward	ChoiceDisplay	1	1.031	1	1
33	388.762	0.569	win-noreward	ChosenDisplay		0.0		
33	389.313	0.25	win-noreward	TurnDisplay				
33	389.564	0.75	win-noreward	OutcomeDisplay				
34	390.316		win-reward	ImageDisplay1		0.0		
34	392.306	0.75	win-reward	StartDisplay				
34	393.058		win-reward	ImageDisplay2		0.0		
34	396.318	1.6	win-reward	ChoiceDisplay	1	0.98	1	1
34	397.321	0.62	win-reward	ChosenDisplay		0.0		
34	397.922	0.25	win-reward	TurnDisplay				
34	398.173	0.75	win-reward	OutcomeDisplay				
35	398.925		win-reward	ImageDisplay1		0.0		
35	401.165	0.75	win-reward	StartDisplay				
35	401.918		win-reward	ImageDisplay2		0.0		
35	404.927	1.6	win-reward	ChoiceDisplay	1	0.886	1	1
35	405.829	0.714	win-reward	ChosenDisplay		0.0		
35	406.531	0.25	win-reward	TurnDisplay				
35	406.782	0.75	win-reward	OutcomeDisplay				
36	407.534		loss-noreward	ImageDisplay1		0.0		
36	409.774	0.75	loss-noreward	StartDisplay				
36	410.527		loss-noreward	ImageDisplay2		0.0		
36	413.536	1.6	loss-noreward	ChoiceDisplay	1	0.711	1	1
36	414.271	0.889	loss-noreward	ChosenDisplay		0.0		
36	415.141	0.25	loss-noreward	TurnDisplay				
36	415.391	0.75	loss-noreward	OutcomeDisplay				
37	416.144		control-noreward	ImageDisplay1		0.0		
37	418.133	0.75	control-noreward	StartDisplay				
37	418.885		control-noreward	ImageDisplay2		0.0		
37	422.145	1.6	control-noreward	ChoiceDisplay	1	0.95	1	1
37	423.114	0.65	control-noreward	ChosenDisplay		0.0		
37	423.75	0.25	control-noreward	TurnDisplay				
37	424.0	0.75	control-noreward	OutcomeDisplay				
38	424.753		win-noreward	ImageDisplay1		0.0		
38	426.993	0.75	win-noreward	StartDisplay				
38	427.745		win-noreward	ImageDisplay2		0.0		
38	430.754	1.6	win-noreward	ChoiceDisplay	1	0.899	1	1
38	431.673	0.701	win-noreward	ChosenDisplay		0.0		
38	432.359	0.25	win-noreward	TurnDisplay				
38	432.609	0.75	win-noreward	OutcomeDisplay				
39	433.362		control-noreward	ImageDisplay1		0.0		
39	435.351	0.75	control-noreward	StartDisplay				
39	436.103		control-noreward	ImageDisplay2		0.0		
39	439.363	1.6	control-noreward	ChoiceDisplay		0.0		
39	440.951	0.0	control-noreward	ChosenDisplay		0.0		
39	440.968	0.25	control-noreward	TurnDisplay				
39	441.72	0.75	control-noreward	OutcomeDisplay				
40	441.954		win-noreward	ImageDisplay1		0.0		
40	443.96	0.75	win-noreward	StartDisplay				
40	444.712		win-noreward	ImageDisplay2		0.0		
40	447.955	1.6	win-noreward	ChoiceDisplay	1	0.669	1	1
40	448.641	0.931	win-noreward	ChosenDisplay		0.0		
40	449.56	0.25	win-noreward	TurnDisplay				
40	449.811	0.75	win-noreward	OutcomeDisplay				
41	450.563		loss-noreward	ImageDisplay1		0.0		
41	452.552	0.75	loss-noreward	StartDisplay				
41	453.304		loss-noreward	ImageDisplay2		0.0		
41	456.564	1.6	loss-noreward	ChoiceDisplay	1	0.748	1	1
41	457.333	0.852	loss-noreward	ChosenDisplay		0.0		
41	458.169	0.25	loss-noreward	TurnDisplay				
41	458.42	0.75	loss-noreward	OutcomeDisplay				
42	459.172		control-noreward	ImageDisplay1		0.0		
42	461.412	0.75	control-noreward	StartDisplay				
42	462.164		control-noreward	ImageDisplay2		0.0		
42	465.173	1.6	control-noreward	ChoiceDisplay	1	1.309	1	1
42	466.494	0.291	control-noreward	ChosenDisplay		0.0		
42	466.778	0.25	control-noreward	TurnDisplay				
42	467.029	0.75	control-noreward	OutcomeDisplay				
43	467.781		win-noreward	ImageDisplay1		0.0		
43	469.77	0.75	win-noreward	StartDisplay				
43	470.523		win-noreward	ImageDisplay2		0.0		
43	473.782	1.6	win-noreward	ChoiceDisplay	1	1.02	1	1
43	474.819	0.58	win-noreward	ChosenDisplay		0.0		
43	475.387	0.25	win-noreward	TurnDisplay				
43	475.638	0.75	win-noreward	OutcomeDisplay				
44	476.39		loss-reward	ImageDisplay1		0.0		
44	478.379	0.75	loss-reward	StartDisplay				
44	479.132		loss-reward	ImageDisplay2		0.0		
44	482.391	1.6	loss-reward	ChoiceDisplay	1	0.682	1	1
44	483.093	0.918	loss-reward	ChosenDisplay		0.0		
44	483.996	0.25	loss-reward	TurnDisplay				
44	484.247	0.75	loss-reward	OutcomeDisplay				
45	484.999		loss-noreward	ImageDisplay1		0.0		
45	487.239	0.75	loss-noreward	StartDisplay				
45	487.991		loss-noreward	ImageDisplay2		0.0		
45	491.0	1.6	loss-noreward	ChoiceDisplay	1	0.758	1	1
45	491.786	0.842	loss-noreward	ChosenDisplay		0.0		
45	492.605	0.25	loss-noreward	TurnDisplay				
45	492.856	0.75	loss-noreward	OutcomeDisplay				
46	493.608		win-reward	ImageDisplay1		0.0		
46	495.848	0.75	win-reward	StartDisplay				
46	496.6		win-reward	ImageDisplay2		0.0		
46	499.609	1.6	win-reward	ChoiceDisplay	1	0.734	1	1
46	500.362	0.866	win-reward	ChosenDisplay		0.0		
46	501.214	0.25	win-reward	TurnDisplay				
46	501.465	0.75	win-reward	OutcomeDisplay				
47	502.217		win-noreward	ImageDisplay1		0.0		
47	504.206	0.75	win-noreward	StartDisplay				
47	504.959		win-noreward	ImageDisplay2		0.0		
47	508.218	1.6	win-noreward	ChoiceDisplay	1	0.623	1	1
47	508.854	0.977	win-noreward	ChosenDisplay		0.0		
47	509.823	0.25	win-noreward	TurnDisplay				
47	510.074	0.75	win-noreward	OutcomeDisplay				
48	510.826		win-reward	ImageDisplay1		0.0		
48	512.815	0.75	win-reward	StartDisplay				
48	513.568		win-reward	ImageDisplay2		0.0		
48	516.827	1.6	win-reward	ChoiceDisplay	1	0.623	1	1
48	517.463	0.977	win-reward	ChosenDisplay		0.0		
48	518.432	0.25	win-reward	TurnDisplay				
48	518.683	0.75	win-reward	OutcomeDisplay				
49	519.435		win-reward	ImageDisplay1		0.0		
49	521.675	0.75	win-reward	StartDisplay				
49	522.427		win-reward	ImageDisplay2		0.0		
49	525.436	1.6	win-reward	ChoiceDisplay	1	0.7	1	1
49	526.155	0.9	win-reward	ChosenDisplay		0.0		
49	527.041	0.25	win-reward	TurnDisplay				
49	527.292	0.75	win-reward	OutcomeDisplay				
50	528.044		control-reward	ImageDisplay1		0.0		
50	530.034	0.75	control-reward	StartDisplay				
50	530.786		control-reward	ImageDisplay2		0.0		
50	534.046	1.6	control-reward	ChoiceDisplay	1	0.725	1	1
50	534.798	0.875	control-reward	ChosenDisplay		0.0		
50	535.65	0.25	control-reward	TurnDisplay				
50	535.901	0.75	control-reward	OutcomeDisplay				
51	536.653		win-reward	ImageDisplay1		0.0		
51	538.893	0.75	win-reward	StartDisplay				
51	539.646		win-reward	ImageDisplay2		0.0		
51	542.655	1.6	win-reward	ChoiceDisplay	1	0.957	1	1
51	543.624	0.643	win-reward	ChosenDisplay		0.0		
51	544.259	0.25	win-reward	TurnDisplay				
51	544.51	0.75	win-reward	OutcomeDisplay				
52	545.262		loss-reward	ImageDisplay1		0.0		
52	547.502	0.75	loss-reward	StartDisplay				
52	548.255		loss-reward	ImageDisplay2		0.0		
52	551.264	1.6	loss-reward	ChoiceDisplay	1	0.622	1	1
52	551.899	0.978	loss-reward	ChosenDisplay		0.0		
52	552.868	0.25	loss-reward	TurnDisplay				
52	553.119	0.75	loss-reward	OutcomeDisplay				
53	553.871		control-reward	ImageDisplay1		0.0		
53	556.111	0.75	control-reward	StartDisplay				
53	556.864		control-reward	ImageDisplay2		0.0		
53	559.873	1.6	control-reward	ChoiceDisplay	1	0.904	1	1
53	560.792	0.696	control-reward	ChosenDisplay		0.0		
53	561.477	0.25	control-reward	TurnDisplay				
53	561.728	0.75	control-reward	OutcomeDisplay				
54	562.48		loss-noreward	ImageDisplay1		0.0		
54	564.72	0.75	loss-noreward	StartDisplay				
54	565.473		loss-noreward	ImageDisplay2		0.0		
54	568.482	1.6	loss-noreward	ChoiceDisplay	1	0.764	1	1
54	569.267	0.836	loss-noreward	ChosenDisplay		0.0		
54	570.086	0.25	loss-noreward	TurnDisplay				
54	570.337	0.75	loss-noreward	OutcomeDisplay				
55	571.089		control-noreward	ImageDisplay1		0.0		
55	573.079	0.75	control-noreward	StartDisplay				
55	573.831		control-noreward	ImageDisplay2		0.0		
55	577.091	1.6	control-noreward	ChoiceDisplay	1	0.354	1	1
55	577.458	1.246	control-noreward	ChosenDisplay		0.0		
55	578.695	0.25	control-noreward	TurnDisplay				
55	578.946	0.75	control-noreward	OutcomeDisplay				
56	579.698		loss-reward	ImageDisplay1		0.0		
56	581.939	0.75	loss-reward	StartDisplay				
56	582.691		loss-reward	ImageDisplay2		0.0		
56	585.7	1.6	loss-reward	ChoiceDisplay	1	0.665	1	1
56	586.385	0.935	loss-reward	ChosenDisplay		0.0		
56	587.305	0.25	loss-reward	TurnDisplay				
56	587.555	0.75	loss-reward	OutcomeDisplay				
57	588.308		win-noreward	ImageDisplay1		0.0		
57	590.297	0.75	win-noreward	StartDisplay				
57	591.049		win-noreward	ImageDisplay2		0.0		
57	594.309	1.6	win-noreward	ChoiceDisplay	1	0.583	1	1
57	594.911	1.017	win-noreward	ChosenDisplay		0.0		
57	595.914	0.25	win-noreward	TurnDisplay				
57	596.164	0.75	win-noreward	OutcomeDisplay				
58	596.917		control-noreward	ImageDisplay1		0.0		
58	599.157	0.75	control-noreward	StartDisplay				
58	599.909		control-noreward	ImageDisplay2		0.0		
58	602.918	1.6	control-noreward	ChoiceDisplay	1	0.539	1	1
58	603.469	1.061	control-noreward	ChosenDisplay		0.0		
58	604.523	0.25	control-noreward	TurnDisplay				
58	604.773	0.75	control-noreward	OutcomeDisplay				
59	605.526		control-reward	ImageDisplay1		0.0		
59	607.766	0.75	control-reward	StartDisplay				
59	608.518		control-reward	ImageDisplay2		0.0		
59	611.527	1.6	control-reward	ChoiceDisplay	1	0.894	1	1
59	612.446	0.706	control-reward	ChosenDisplay		0.0		
59	613.132	0.25	control-reward	TurnDisplay				
59	613.382	0.75	control-reward	OutcomeDisplay				
60	614.135		win-noreward	ImageDisplay1		0.0		
60	616.124	0.75	win-noreward	StartDisplay				
60	616.876		win-noreward	ImageDisplay2		0.0		
60	620.136	1.6	win-noreward	ChoiceDisplay	1	0.714	1	1
60	620.871	0.886	win-noreward	ChosenDisplay		0.0		
60	621.741	0.25	win-noreward	TurnDisplay				
60	621.991	0.75	win-noreward	OutcomeDisplay				
61	622.744		control-reward	ImageDisplay1		0.0		
61	624.733	0.75	control-reward	StartDisplay				
61	625.485		control-reward	ImageDisplay2		0.0		
61	628.745	1.6	control-reward	ChoiceDisplay	1	0.711	1	1
61	629.48	0.889	control-reward	ChosenDisplay		0.0		
61	630.35	0.25	control-reward	TurnDisplay				
61	630.6	0.75	control-reward	OutcomeDisplay				
62	631.353		loss-reward	ImageDisplay1		0.0		
62	633.593	0.75	loss-reward	StartDisplay				
62	634.345		loss-reward	ImageDisplay2		0.0		
62	637.354	1.6	loss-reward	ChoiceDisplay	1	0.743	1	1
62	638.123	0.857	loss-reward	ChosenDisplay		0.0		
62	638.959	0.25	loss-reward	TurnDisplay				
62	639.209	0.75	loss-reward	OutcomeDisplay				
63	639.962		loss-noreward	ImageDisplay1		0.0		
63	641.951	0.75	loss-noreward	StartDisplay				
63	642.703		loss-noreward	ImageDisplay2		0.0		
63	645.963	1.6	loss-noreward	ChoiceDisplay	1	0.64	1	1
63	646.615	0.96	loss-noreward	ChosenDisplay		0.0		
63	647.568	0.25	loss-noreward	TurnDisplay				
63	647.819	0.75	loss-noreward	OutcomeDisplay				
64	648.571		control-reward	ImageDisplay1		0.0		
64	650.56	0.75	control-reward	StartDisplay				
64	651.312		control-reward	ImageDisplay2		0.0		
64	654.572	1.6	control-reward	ChoiceDisplay	1	0.756	1	1
64	655.341	0.844	control-reward	ChosenDisplay		0.0		
64	656.177	0.25	control-reward	TurnDisplay				
64	656.428	0.75	control-reward	OutcomeDisplay				
65	657.18		control-reward	ImageDisplay1		0.0		
65	659.42	0.75	control-reward	StartDisplay				
65	660.172		control-reward	ImageDisplay2		0.0		
65	663.181	1.6	control-reward	ChoiceDisplay	1	0.762	1	1
65	663.967	0.838	control-reward	ChosenDisplay		0.0		
65	664.786	0.25	control-reward	TurnDisplay				
65	665.037	0.75	control-reward	OutcomeDisplay				
66	665.789		win-reward	ImageDisplay1		0.0		
66	667.778	0.75	win-reward	StartDisplay				
66	668.53		win-reward	ImageDisplay2		0.0		
66	671.79	1.6	win-reward	ChoiceDisplay	1	0.724	1	1
66	672.526	0.876	win-reward	ChosenDisplay		0.0		
66	673.395	0.25	win-reward	TurnDisplay				
66	673.646	0.75	win-reward	OutcomeDisplay				
67	674.398		win-noreward	ImageDisplay1		0.0		
67	676.638	0.75	win-noreward	StartDisplay				
67	677.39		win-noreward	ImageDisplay2		0.0		
67	680.399	1.6	win-noreward	ChoiceDisplay	1	0.674	1	1
67	681.085	0.926	win-noreward	ChosenDisplay		0.0		
67	682.004	0.25	win-noreward	TurnDisplay				
67	682.255	0.75	win-noreward	OutcomeDisplay				
68	683.007		control-noreward	ImageDisplay1		0.0		
68	684.996	0.75	control-noreward	StartDisplay				
68	685.748		control-noreward	ImageDisplay2		0.0		
68	689.008	1.6	control-noreward	ChoiceDisplay	1	0.512	1	1
68	689.543	1.088	control-noreward	ChosenDisplay		0.0		
68	690.613	0.25	control-noreward	TurnDisplay				
68	690.864	0.75	control-noreward	OutcomeDisplay				
69	691.616		loss-reward	ImageDisplay1		0.0		
69	693.605	0.75	loss-reward	StartDisplay				
69	694.357		loss-reward	ImageDisplay2		0.0		
69	697.617	1.6	loss-reward	ChoiceDisplay	1	0.526	1	1
69	698.169	1.074	loss-reward	ChosenDisplay		0.0		
69	699.222	0.25	loss-reward	TurnDisplay				
69	699.473	0.75	loss-reward	OutcomeDisplay				
70	700.225		win-reward	ImageDisplay1		0.0		
70	702.465	0.75	win-reward	StartDisplay				
70	703.217		win-reward	ImageDisplay2		0.0		
70	706.226	1.6	win-reward	ChoiceDisplay	1	0.786	1	1
70	707.029	0.814	win-reward	ChosenDisplay		0.0		
70	707.831	0.25	win-reward	TurnDisplay				
70	708.082	0.75	win-reward	OutcomeDisplay				
71	708.834		loss-reward	ImageDisplay1		0.0		
71	710.823	0.75	loss-reward	StartDisplay				
71	711.576		loss-reward	ImageDisplay2		0.0		
71	714.835	1.6	loss-reward	ChoiceDisplay	1	0.946	1	1
71	715.805	0.654	loss-reward	ChosenDisplay		0.0		
71	716.44	0.25	loss-reward	TurnDisplay				
71	716.691	0.75	loss-reward	OutcomeDisplay				
72	717.443		loss-reward	ImageDisplay1		0.0		
72	719.432	0.75	loss-reward	StartDisplay				
72	720.185		loss-reward	ImageDisplay2		0.0		
72	723.444	1.6	loss-reward	ChoiceDisplay	1	0.716	1	1
72	724.18	0.884	loss-reward	ChosenDisplay		0.0		
72	725.049	0.25	loss-reward	TurnDisplay				
72	725.3	0.75	loss-reward	OutcomeDisplay				
73	726.052		loss-noreward	ImageDisplay1		0.0		
73	728.292	0.75	loss-noreward	StartDisplay				
73	729.044		loss-noreward	ImageDisplay2		0.0		
73	732.053	1.6	loss-noreward	ChoiceDisplay	1	0.726	1	1
73	732.806	0.874	loss-noreward	ChosenDisplay		0.0		
73	733.658	0.25	loss-noreward	TurnDisplay				
73	733.909	0.75	loss-noreward	OutcomeDisplay				
74	734.661		win-noreward	ImageDisplay1		0.0		
74	736.65	0.75	win-noreward	StartDisplay				
74	737.403		win-noreward	ImageDisplay2		0.0		
74	740.662	1.6	win-noreward	ChoiceDisplay	1	0.651	1	1
74	741.331	0.949	win-noreward	ChosenDisplay		0.0		
74	742.267	0.25	win-noreward	TurnDisplay				
74	742.518	0.75	win-noreward	OutcomeDisplay				
75	743.27		loss-noreward	ImageDisplay1		0.0		
75	745.259	0.75	loss-noreward	StartDisplay				
75	746.012		loss-noreward	ImageDisplay2		0.0		
75	749.271	1.6	loss-noreward	ChoiceDisplay	1	0.684	1	1
75	749.974	0.916	loss-noreward	ChosenDisplay		0.0		
75	750.876	0.25	loss-noreward	TurnDisplay				
75	751.127	0.75	loss-noreward	OutcomeDisplay				
76	751.879		loss-reward	ImageDisplay1		0.0		
76	753.869	0.75	loss-reward	StartDisplay				
76	754.621		loss-reward	ImageDisplay2		0.0		
76	757.88	1.6	loss-reward	ChoiceDisplay	1	0.663	1	1
76	758.566	0.937	loss-reward	ChosenDisplay		0.0		
76	759.485	0.25	loss-reward	TurnDisplay				
76	759.736	0.75	loss-reward	OutcomeDisplay				
77	760.488		loss-reward	ImageDisplay1		0.0		
77	762.728	0.75	loss-reward	StartDisplay				
77	763.481		loss-reward	ImageDisplay2		0.0		
77	766.49	1.6	loss-reward	ChoiceDisplay	1	0.812	1	1
77	767.325	0.788	loss-reward	ChosenDisplay		0.0		
77	768.094	0.25	loss-reward	TurnDisplay				
77	768.345	0.75	loss-reward	OutcomeDisplay				
78	769.097		control-reward	ImageDisplay1		0.0		
78	771.337	0.75	control-reward	StartDisplay				
78	772.09		control-reward	ImageDisplay2		0.0		
78	775.099	1.6	control-reward	ChoiceDisplay	1	0.936	1	1
78	776.051	0.664	control-reward	ChosenDisplay		0.0		
78	776.703	0.25	control-reward	TurnDisplay				
78	776.954	0.75	control-reward	OutcomeDisplay				
79	777.706		loss-noreward	ImageDisplay1		0.0		
79	779.696	0.75	loss-noreward	StartDisplay				
79	780.448		loss-noreward	ImageDisplay2		0.0		
79	783.708	1.6	loss-noreward	ChoiceDisplay	1	0.558	1	1
79	784.293	1.042	loss-noreward	ChosenDisplay		0.0		
79	785.312	0.25	loss-noreward	TurnDisplay				
79	785.563	0.75	loss-noreward	OutcomeDisplay				
80	786.315		loss-noreward	ImageDisplay1		0.0		
80	788.555	0.75	loss-noreward	StartDisplay				
80	789.308		loss-noreward	ImageDisplay2		0.0		
80	792.317	1.6	loss-noreward	ChoiceDisplay	1	0.676	1	1
80	793.019	0.924	loss-noreward	ChosenDisplay		0.0		
80	793.921	0.25	loss-noreward	TurnDisplay				
80	794.172	0.75	loss-noreward	OutcomeDisplay				
81	794.924		control-noreward	ImageDisplay1		0.0		
81	796.914	0.75	control-noreward	StartDisplay				
81	797.666		control-noreward	ImageDisplay2		0.0		
81	800.926	1.6	control-noreward	ChoiceDisplay	1	0.733	1	1
81	801.678	0.867	control-noreward	ChosenDisplay		0.0		
81	802.53	0.25	control-noreward	TurnDisplay				
81	802.781	0.75	control-noreward	OutcomeDisplay				
82	803.533		loss-reward	ImageDisplay1		0.0		
82	805.773	0.75	loss-reward	StartDisplay				
82	806.526		loss-reward	ImageDisplay2		0.0		
82	809.535	1.6	loss-reward	ChoiceDisplay	1	0.886	1	1
82	810.437	0.714	loss-reward	ChosenDisplay		0.0		
82	811.139	0.25	loss-reward	TurnDisplay				
82	811.39	0.75	loss-reward	OutcomeDisplay				
83	812.142		loss-reward	ImageDisplay1		0.0		
83	814.382	0.75	loss-reward	StartDisplay				
83	815.135		loss-reward	ImageDisplay2		0.0		
83	818.144	1.6	loss-reward	ChoiceDisplay	1	0.735	1	1
83	818.896	0.865	loss-reward	ChosenDisplay		0.0		
83	819.749	0.25	loss-reward	TurnDisplay				
83	819.999	0.75	loss-reward	OutcomeDisplay				
84	820.752		control-noreward	ImageDisplay1		0.0		
84	822.741	0.75	control-noreward	StartDisplay				
84	823.493		control-noreward	ImageDisplay2		0.0		
84	826.753	1.6	control-noreward	ChoiceDisplay	1	1.199	1	1
84	827.973	0.401	control-noreward	ChosenDisplay		0.0		
84	828.358	0.25	control-noreward	TurnDisplay				
84	828.608	0.75	control-noreward	OutcomeDisplay				
85	829.361		control-reward	ImageDisplay1		0.0		
85	831.601	0.75	control-reward	StartDisplay				
85	832.353		control-reward	ImageDisplay2		0.0		
85	835.362	1.6	control-reward	ChoiceDisplay	1	0.935	1	1
85	836.315	0.665	control-reward	ChosenDisplay		0.0		
85	836.967	0.25	control-reward	TurnDisplay				
85	837.217	0.75	control-reward	OutcomeDisplay				
86	837.97		win-reward	ImageDisplay1		0.0		
86	840.21	0.75	win-reward	StartDisplay				
86	840.962		win-reward	ImageDisplay2		0.0		
86	843.971	1.6	win-reward	ChoiceDisplay	1	0.778	1	1
86	844.773	0.822	win-reward	ChosenDisplay		0.0		
86	845.576	0.25	win-reward	TurnDisplay				
86	845.826	0.75	win-reward	OutcomeDisplay				
87	846.579		loss-noreward	ImageDisplay1		0.0		
87	848.568	0.75	loss-noreward	StartDisplay				
87	849.32		loss-noreward	ImageDisplay2		0.0		
87	852.58	1.6	loss-noreward	ChoiceDisplay	1	0.806	1	1
87	853.399	0.794	loss-noreward	ChosenDisplay		0.0		
87	854.185	0.25	loss-noreward	TurnDisplay				
87	854.435	0.75	loss-noreward	OutcomeDisplay				
88	855.188		control-noreward	ImageDisplay1		0.0		
88	857.428	0.75	control-noreward	StartDisplay				
88	858.18		control-noreward	ImageDisplay2		0.0		
88	861.189	1.6	control-noreward	ChoiceDisplay	1	1.174	1	1
88	862.376	0.426	control-noreward	ChosenDisplay		0.0		
88	862.794	0.25	control-noreward	TurnDisplay				
88	863.044	0.75	control-noreward	OutcomeDisplay				
89	863.797		control-noreward	ImageDisplay1		0.0		
89	866.037	0.75	control-noreward	StartDisplay				
89	866.789		control-noreward	ImageDisplay2		0.0		
89	869.798	1.6	control-noreward	ChoiceDisplay	1	0.842	1	1
89	870.667	0.758	control-noreward	ChosenDisplay		0.0		
89	871.403	0.25	control-noreward	TurnDisplay				
89	871.653	0.75	control-noreward	OutcomeDisplay				
90	872.406		control-noreward	ImageDisplay1		0.0		
90	874.395	0.75	control-noreward	StartDisplay				
90	875.147		control-noreward	ImageDisplay2		0.0		
90	878.407	1.6	control-noreward	ChoiceDisplay	1	0.925	1	1
90	879.343	0.675	control-noreward	ChosenDisplay		0.0		
90	880.012	0.25	control-noreward	TurnDisplay				
90	880.263	0.75	control-noreward	OutcomeDisplay				
91	881.015		loss-reward	ImageDisplay1		0.0		
91	883.004	0.75	loss-reward	StartDisplay				
91	883.756		loss-reward	ImageDisplay2		0.0		
91	887.016	1.6	loss-reward	ChoiceDisplay	1	0.886	1	1
91	887.919	0.714	loss-reward	ChosenDisplay		0.0		
91	888.621	0.25	loss-reward	TurnDisplay				
91	888.872	0.75	loss-reward	OutcomeDisplay				
92	889.624		control-reward	ImageDisplay1		0.0		
92	891.613	0.75	control-reward	StartDisplay				
92	892.365		control-reward	ImageDisplay2		0.0		
92	895.625	1.6	control-reward	ChoiceDisplay	1	0.706	1	1
92	896.344	0.894	control-reward	ChosenDisplay		0.0		
92	897.23	0.25	control-reward	TurnDisplay				
92	897.481	0.75	control-reward	OutcomeDisplay				
93	898.233		loss-reward	ImageDisplay1		0.0		
93	900.473	0.75	loss-reward	StartDisplay				
93	901.225		loss-reward	ImageDisplay2		0.0		
93	904.234	1.6	loss-reward	ChoiceDisplay	1	0.775	1	1
93	905.037	0.825	loss-reward	ChosenDisplay		0.0		
93	905.839	0.25	loss-reward	TurnDisplay				
93	906.09	0.75	loss-reward	OutcomeDisplay				
94	906.842		control-reward	ImageDisplay1		0.0		
94	908.831	0.75	control-reward	StartDisplay				
94	909.583		control-reward	ImageDisplay2		0.0		
94	912.843	1.6	control-reward	ChoiceDisplay	1	0.876	1	1
94	913.729	0.724	control-reward	ChosenDisplay		0.0		
94	914.448	0.25	control-reward	TurnDisplay				
94	914.699	0.75	control-reward	OutcomeDisplay				
95	915.451		control-noreward	ImageDisplay1		0.0		
95	917.691	0.75	control-noreward	StartDisplay				
95	918.443		control-noreward	ImageDisplay2		0.0		
95	921.452	1.6	control-noreward	ChoiceDisplay	1	1.294	1	1
95	922.773	0.306	control-noreward	ChosenDisplay		0.0		
95	923.057	0.25	control-noreward	TurnDisplay				
95	923.308	0.75	control-noreward	OutcomeDisplay				
