onset	duration	trial_type	response_time	stim_file	accuracy
45.425	1.0	go	0.661	Go_O	1.0
48.0	1.0	go	0.37	Go_X	1.0
50.523	1.0	go	0.5	Go_O	1.0
53.047	1.0	go	0.295	Go_X	1.0
55.572	1.0	go	0.319	Go_O	1.0
58.096	1.0	go	0.344	Go_X	1.0
60.62	0.25	stop	0.361	Go_O	0.0
63.144	1.0	go	0.423	Go_X	1.0
65.668	0.2	stop	0.0	Go_X	1.0
68.193	1.0	go	0.36	Go_O	1.0
70.717	1.0	go	0.352	Go_X	1.0
73.241	1.0	go	0.402	Go_O	1.0
75.765	0.25	stop	0.383	Go_O	0.0
78.29	1.0	go	0.356	Go_X	1.0
80.814	1.0	go	0.397	Go_O	1.0
83.338	0.2	stop	0.0	Go_X	1.0
85.862	0.25	stop	0.0	Go_O	1.0
88.386	1.0	go	0.401	Go_X	1.0
90.911	1.0	go	0.311	Go_O	1.0
93.435	0.3	stop	0.322	Go_X	0.0
95.959	1.0	go	0.376	Go_O	1.0
98.483	1.0	go	0.422	Go_X	1.0
101.007	0.25	stop	0.379	Go_O	0.0
103.532	1.0	go	0.309	Go_X	1.0
106.056	1.0	go	0.399	Go_O	1.0
108.58	0.2	stop	0.422	Go_X	0.0
111.104	1.0	go	0.348	Go_X	0.0
113.628	1.0	go	0.255	Go_O	1.0
116.153	0.15	stop	0.0	Go_O	1.0
118.677	1.0	go	0.419	Go_X	1.0
121.201	1.0	go	0.399	Go_O	1.0
123.725	1.0	go	0.532	Go_O	1.0
126.249	1.0	go	0.412	Go_X	1.0
128.774	1.0	go	0.364	Go_O	0.0
131.298	0.2	stop	0.27	Go_X	0.0
133.822	1.0	go	0.539	Go_X	1.0
136.346	1.0	go	0.444	Go_X	1.0
138.87	1.0	go	0.358	Go_O	1.0
141.395	1.0	go	0.517	Go_X	1.0
143.919	1.0	go	0.38	Go_O	1.0
146.443	0.15	stop	0.0	Go_O	1.0
148.967	1.0	go	0.466	Go_O	1.0
151.491	1.0	go	0.598	Go_X	1.0
154.016	1.0	go	0.428	Go_X	1.0
156.54	1.0	go	0.363	Go_O	1.0
159.064	1.0	go	0.302	Go_X	1.0
161.588	1.0	go	0.329	Go_O	1.0
164.112	0.2	stop	0.0	Go_X	1.0
166.637	1.0	go	0.476	Go_X	1.0
169.161	1.0	go	0.347	Go_O	1.0
171.685	0.25	stop	0.0	Go_O	1.0
174.209	1.0	go	0.481	Go_O	1.0
176.733	0.3	stop	0.465	Go_X	0.0
179.258	0.25	stop	0.0	Go_O	1.0
181.782	1.0	go	0.71	Go_X	1.0
184.306	1.0	go	0.573	Go_O	1.0
186.83	1.0	go	0.59	Go_X	1.0
189.354	1.0	go	0.508	Go_X	1.0
191.879	0.3	stop	0.408	Go_X	0.0
194.403	1.0	go	0.307	Go_O	1.0
196.927	0.25	stop	0.0	Go_O	1.0
199.451	1.0	go	0.517	Go_X	1.0
201.975	1.0	go	0.389	Go_O	1.0
204.5	1.0	go	0.455	Go_X	1.0
207.024	1.0	go	0.425	Go_O	1.0
209.548	1.0	go	0.349	Go_X	1.0
212.072	1.0	go	0.327	Go_O	1.0
214.596	1.0	go	0.409	Go_X	1.0
217.121	1.0	go	0.462	Go_O	1.0
219.645	1.0	go	0.397	Go_X	1.0
222.169	0.3	stop	0.365	Go_X	0.0
224.693	1.0	go	0.376	Go_O	1.0
227.217	1.0	go	0.476	Go_O	1.0
229.742	1.0	go	0.36	Go_X	1.0
232.266	0.25	stop	0.0	Go_O	1.0
234.79	1.0	go	0.375	Go_X	1.0
237.314	1.0	go	0.589	Go_O	1.0
239.839	1.0	go	0.565	Go_X	1.0
242.363	1.0	go	0.511	Go_O	1.0
244.887	1.0	go	0.378	Go_X	1.0
247.411	1.0	go	0.468	Go_O	1.0
249.935	0.3	stop	0.231	Go_X	0.0
252.46	1.0	go	0.396	Go_O	1.0
254.984	1.0	go	0.364	Go_X	1.0
257.508	0.25	stop	0.399	Go_O	0.0
260.032	1.0	go	0.446	Go_O	1.0
262.556	1.0	go	0.27	Go_X	1.0
265.081	0.2	stop	0.327	Go_X	0.0
267.605	1.0	go	0.429	Go_X	1.0
270.129	0.15	stop	0.0	Go_O	1.0
272.653	1.0	go	0.597	Go_O	1.0
275.177	1.0	go	0.454	Go_X	1.0
277.702	1.0	go	0.494	Go_O	1.0
280.226	1.0	go	0.39	Go_X	1.0
282.75	1.0	go	0.376	Go_O	1.0
285.274	0.2	stop	0.315	Go_X	0.0
287.798	0.15	stop	0.0	Go_O	1.0
290.323	1.0	go	0.487	Go_X	1.0
292.847	1.0	go	0.455	Go_O	1.0
295.371	0.2	stop	0.0	Go_X	1.0
297.895	1.0	go	0.432	Go_O	1.0
300.419	1.0	go	0.486	Go_X	1.0
302.944	1.0	go	0.44	Go_X	1.0
305.468	1.0	go	0.409	Go_O	1.0
307.992	1.0	go	0.461	Go_O	1.0
310.516	1.0	go	0.405	Go_X	1.0
313.04	0.25	stop	0.348	Go_O	0.0
315.565	1.0	go	0.483	Go_O	1.0
318.089	1.0	go	0.647	Go_X	1.0
320.613	1.0	go	0.442	Go_X	1.0
323.137	1.0	go	0.368	Go_O	1.0
325.661	1.0	go	0.424	Go_O	1.0
328.186	0.2	stop	0.0	Go_X	1.0
330.71	1.0	go	0.627	Go_X	1.0
333.234	1.0	go	0.56	Go_X	1.0
335.758	1.0	go	0.462	Go_O	1.0
338.282	1.0	go	0.559	Go_O	1.0
340.807	0.25	stop	0.395	Go_O	0.0
343.331	1.0	go	0.308	Go_X	1.0
345.855	1.0	go	0.396	Go_O	1.0
348.379	0.2	stop	0.0	Go_X	1.0
350.903	1.0	go	0.41	Go_X	1.0
353.428	0.25	stop	0.0	Go_O	1.0
355.952	1.0	go	0.423	Go_O	1.0
358.476	1.0	go	0.578	Go_X	1.0
361.0	1.0	go	0.45	Go_X	1.0
363.524	1.0	go	0.418	Go_O	1.0
366.049	1.0	go	0.425	Go_X	1.0
368.573	1.0	go	0.486	Go_O	1.0
371.097	1.0	go	0.454	Go_X	1.0
373.621	0.3	stop	0.396	Go_X	0.0
376.145	1.0	go	0.511	Go_O	1.0
378.67	1.0	go	0.37	Go_X	1.0
381.194	1.0	go	0.322	Go_O	1.0
383.718	0.25	stop	0.0	Go_O	1.0
386.242	1.0	go	0.661	Go_O	1.0
388.766	1.0	go	0.46	Go_X	1.0
391.291	1.0	go	0.681	Go_X	1.0
393.815	1.0	go	0.48	Go_O	1.0
396.339	0.3	stop	0.0	Go_X	1.0
398.863	1.0	go	0.5	Go_X	1.0
401.388	1.0	go	0.508	Go_O	1.0
403.912	0.35	stop	0.488	Go_O	0.0
406.436	1.0	go	0.456	Go_X	1.0
408.96	1.0	go	0.605	Go_O	1.0
411.484	0.3	stop	0.366	Go_X	0.0
414.009	1.0	go	0.542	Go_X	1.0
416.533	1.0	go	0.581	Go_O	1.0
419.057	0.25	stop	0.0	Go_O	1.0
421.581	1.0	go	0.575	Go_O	1.0
424.105	1.0	go	0.332	Go_X	1.0
426.63	1.0	go	0.458	Go_X	1.0
429.154	1.0	go	0.623	Go_O	1.0
431.678	1.0	go	0.432	Go_X	1.0
434.202	1.0	go	0.386	Go_O	1.0
436.726	0.3	stop	0.338	Go_X	0.0
439.251	1.0	go	0.392	Go_O	1.0
441.775	0.25	stop	0.428	Go_O	0.0
444.299	1.0	go	0.511	Go_X	1.0
446.823	1.0	go	0.445	Go_X	1.0
449.347	1.0	go	0.432	Go_O	1.0
451.872	1.0	go	0.519	Go_X	1.0
454.396	1.0	go	0.43	Go_O	1.0
456.92	0.2	stop	0.32	Go_X	0.0
459.444	1.0	go	0.404	Go_O	1.0
461.968	1.0	go	0.422	Go_X	1.0
464.493	1.0	go	0.457	Go_O	1.0
467.017	0.15	stop	0.0	Go_O	1.0
469.541	0.2	stop	0.0	Go_X	1.0
472.065	0.25	stop	0.0	Go_O	1.0
474.589	1.0	go	0.437	Go_X	1.0
477.114	0.3	stop	0.0	Go_X	1.0
479.638	1.0	go	0.432	Go_O	1.0
482.162	1.0	go	0.409	Go_X	1.0
484.686	1.0	go	0.428	Go_X	1.0
487.21	1.0	go	0.406	Go_O	1.0
489.735	1.0	go	0.356	Go_X	1.0
492.259	1.0	go	0.432	Go_O	1.0
494.783	1.0	go	0.392	Go_X	1.0
497.307	1.0	go	0.28	Go_O	1.0
499.831	0.35	stop	0.47	Go_O	0.0
502.356	1.0	go	0.391	Go_O	1.0
504.88	1.0	go	0.463	Go_X	1.0
507.404	0.3	stop	0.4	Go_X	0.0
509.928	1.0	go	0.498	Go_X	1.0
512.452	1.0	go	0.374	Go_O	1.0
514.977	1.0	go	0.605	Go_O	1.0
517.501	1.0	go	0.459	Go_X	1.0
520.025	1.0	go	0.354	Go_X	1.0
522.549	0.25	stop	0.0	Go_O	1.0
525.073	1.0	go	0.604	Go_O	1.0
527.598	1.0	go	0.646	Go_O	1.0
530.122	1.0	go	0.6	Go_X	1.0
532.646	0.3	stop	0.0	Go_X	1.0
535.17	1.0	go	0.515	Go_X	1.0
537.694	0.35	stop	0.41	Go_O	0.0
540.219	1.0	go	0.465	Go_O	1.0
542.743	1.0	go	0.49	Go_O	1.0
545.267	1.0	go	0.492	Go_X	1.0
547.791	1.0	go	0.538	Go_X	1.0
550.315	1.0	go	0.425	Go_O	1.0
552.84	1.0	go	0.781	Go_X	1.0
555.364	1.0	go	0.562	Go_O	1.0
557.888	0.3	stop	0.0	Go_X	1.0
560.412	1.0	go	0.711	Go_O	1.0
562.936	1.0	go	0.919	Go_X	1.0
565.461	1.0	go	0.72	Go_X	1.0
567.985	1.0	go	0.488	Go_O	1.0
570.509	0.35	stop	0.0	Go_O	1.0
573.033	1.0	go	0.497	Go_O	1.0
575.558	0.4	stop	0.457	Go_X	0.0
578.082	1.0	go	0.433	Go_X	1.0
580.606	1.0	go	0.48	Go_O	1.0
583.13	0.35	stop	0.519	Go_O	0.0
585.654	1.0	go	0.443	Go_X	1.0
588.179	1.0	go	0.487	Go_O	1.0
590.703	1.0	go	0.587	Go_X	1.0
593.227	1.0	go	0.651	Go_X	1.0
595.751	1.0	go	0.417	Go_O	1.0
598.275	1.0	go	0.734	Go_O	1.0
600.8	1.0	go	0.495	Go_X	1.0
603.324	1.0	go	0.472	Go_O	1.0
605.848	1.0	go	0.484	Go_X	1.0
608.372	1.0	go	0.39	Go_X	1.0
610.896	0.3	stop	0.5	Go_X	0.0
613.421	1.0	go	0.608	Go_O	1.0
615.945	1.0	go	0.641	Go_O	1.0
618.469	0.25	stop	0.0	Go_O	1.0
620.993	1.0	go	0.37	Go_X	1.0
623.517	0.3	stop	0.402	Go_X	0.0
626.042	1.0	go	0.482	Go_O	1.0
628.566	1.0	go	0.468	Go_X	1.0
631.09	0.25	stop	0.39	Go_O	0.0
633.614	1.0	go	0.577	Go_O	1.0
636.138	0.2	stop	0.0	Go_X	1.0
638.663	1.0	go	0.456	Go_X	1.0
641.187	1.0	go	0.0	Go_X	0.0
643.711	1.0	go	0.963	Go_O	1.0
646.235	0.25	stop	0.0	Go_O	1.0
648.759	1.0	go	0.433	Go_O	1.0
651.284	1.0	go	0.499	Go_X	1.0
653.808	1.0	go	0.476	Go_X	1.0
656.332	1.0	go	0.464	Go_O	1.0
658.856	0.3	stop	0.0	Go_X	1.0
661.38	1.0	go	0.347	Go_X	1.0
663.905	1.0	go	0.647	Go_O	1.0
666.429	0.35	stop	0.0	Go_O	1.0
668.953	1.0	go	0.525	Go_O	1.0
671.477	1.0	go	0.588	Go_X	1.0
674.001	1.0	go	0.387	Go_O	1.0
676.526	1.0	go	0.657	Go_X	1.0
679.05	0.4	stop	0.811	Go_X	0.0
681.574	1.0	go	0.461	Go_X	1.0
684.098	0.35	stop	0.473	Go_O	0.0
686.622	1.0	go	0.549	Go_O	1.0
689.147	1.0	go	0.517	Go_X	1.0
691.671	0.3	stop	0.0	Go_X	1.0
694.195	1.0	go	0.535	Go_O	1.0
696.719	1.0	go	0.957	Go_O	1.0
699.243	1.0	go	0.331	Go_X	1.0
701.768	1.0	go	0.482	Go_O	1.0
704.292	0.35	stop	0.0	Go_O	1.0
706.816	1.0	go	0.677	Go_X	1.0
709.34	0.4	stop	0.0	Go_X	1.0
711.864	1.0	go	0.692	Go_X	1.0
714.389	1.0	go	0.0	Go_O	0.0
716.913	1.0	go	0.562	Go_O	1.0
719.437	1.0	go	0.518	Go_X	1.0
721.961	1.0	go	0.441	Go_O	1.0
724.485	1.0	go	0.33	Go_X	1.0
727.01	0.45	stop	0.382	Go_O	0.0
729.534	1.0	go	0.377	Go_X	1.0
732.058	1.0	go	0.423	Go_O	1.0
734.582	0.4	stop	0.0	Go_X	1.0
737.107	1.0	go	0.478	Go_X	1.0
739.631	1.0	go	0.531	Go_O	1.0
742.155	0.45	stop	0.532	Go_O	0.0
744.679	1.0	go	0.401	Go_X	1.0
747.203	1.0	go	0.479	Go_O	1.0
749.728	1.0	go	0.686	Go_X	1.0
752.252	1.0	go	0.461	Go_O	1.0
754.776	0.4	stop	0.511	Go_X	0.0
757.3	1.0	go	0.518	Go_O	1.0
759.824	0.35	stop	0.0	Go_O	1.0
762.349	1.0	go	0.456	Go_X	1.0
764.873	1.0	go	0.902	Go_O	1.0
767.397	1.0	go	0.439	Go_X	1.0
769.921	1.0	go	0.579	Go_X	1.0
772.445	1.0	go	0.486	Go_O	1.0
774.97	0.4	stop	0.374	Go_X	0.0
777.494	1.0	go	0.382	Go_X	1.0
780.018	1.0	go	0.453	Go_O	1.0
782.542	0.35	stop	0.0	Go_O	1.0
785.066	0.4	stop	0.0	Go_X	1.0
787.591	1.0	go	0.718	Go_O	1.0
790.115	1.0	go	0.432	Go_X	1.0
792.639	1.0	go	0.698	Go_X	1.0
795.163	1.0	go	0.564	Go_O	1.0
797.687	0.45	stop	0.501	Go_O	0.0
800.212	1.0	go	0.835	Go_X	1.0
