onset	duration	trial_type	response_time	stim_file	accuracy
77.085	1.0	go	0.0	Go_X	0.0
79.61	1.0	go	0.249	Go_O	1.0
82.134	1.0	go	0.261	Go_X	1.0
84.658	1.0	go	0.263	Go_O	1.0
87.182	1.0	go	0.334	Go_X	1.0
89.706	1.0	go	0.234	Go_O	1.0
92.231	0.25	stop	0.478	Go_O	0.0
94.755	1.0	go	0.589	Go_X	1.0
97.279	0.2	stop	0.223	Go_X	0.0
99.803	1.0	go	0.247	Go_O	1.0
102.328	1.0	go	0.361	Go_O	1.0
104.852	1.0	go	0.422	Go_X	1.0
107.376	0.15	stop	0.0	Go_O	1.0
109.9	1.0	go	0.395	Go_X	1.0
112.424	1.0	go	0.289	Go_O	1.0
114.949	0.2	stop	0.309	Go_X	0.0
117.473	0.15	stop	0.345	Go_O	0.0
119.997	1.0	go	0.646	Go_X	1.0
122.521	1.0	go	0.307	Go_O	1.0
125.045	0.1	stop	0.0	Go_X	1.0
127.57	1.0	go	0.269	Go_O	1.0
130.094	1.0	go	0.438	Go_X	1.0
132.618	0.15	stop	0.241	Go_O	0.0
135.142	1.0	go	0.185	Go_X	1.0
137.667	1.0	go	0.258	Go_O	1.0
140.191	0.1	stop	0.245	Go_X	0.0
142.715	1.0	go	0.598	Go_X	1.0
145.239	1.0	go	0.233	Go_O	1.0
147.763	0.05	stop	0.25	Go_O	0.0
150.288	1.0	go	0.353	Go_O	1.0
152.812	1.0	go	0.285	Go_X	1.0
155.336	1.0	go	0.33	Go_O	1.0
157.86	1.0	go	0.247	Go_X	1.0
160.384	1.0	go	0.439	Go_X	1.0
162.909	0.0	stop	0.0	Go_X	1.0
165.45	1.0	go	0.418	Go_O	1.0
167.974	1.0	go	0.431	Go_X	1.0
170.498	1.0	go	0.478	Go_O	1.0
173.022	1.0	go	0.31	Go_X	1.0
175.546	1.0	go	0.254	Go_O	1.0
178.071	0.05	stop	0.0	Go_O	1.0
180.595	1.0	go	0.312	Go_O	1.0
183.119	1.0	go	0.406	Go_X	1.0
185.643	1.0	go	0.249	Go_O	1.0
188.168	1.0	go	0.258	Go_X	1.0
190.692	1.0	go	0.291	Go_O	1.0
193.216	1.0	go	0.279	Go_X	1.0
195.74	0.1	stop	0.0	Go_X	1.0
198.264	1.0	go	0.251	Go_O	1.0
200.789	1.0	go	0.313	Go_X	1.0
203.313	0.15	stop	0.234	Go_O	0.0
205.837	1.0	go	0.358	Go_X	1.0
208.361	0.1	stop	0.0	Go_X	1.0
210.885	0.15	stop	0.287	Go_O	0.0
213.41	1.0	go	0.563	Go_O	1.0
215.934	1.0	go	0.412	Go_X	1.0
218.458	1.0	go	0.285	Go_O	1.0
220.982	1.0	go	0.38	Go_O	1.0
223.507	0.1	stop	0.23	Go_X	0.0
226.031	1.0	go	0.361	Go_X	1.0
228.555	0.05	stop	0.244	Go_O	0.0
231.079	1.0	go	0.339	Go_O	1.0
233.603	1.0	go	0.271	Go_X	1.0
236.128	1.0	go	0.398	Go_X	1.0
238.652	1.0	go	0.25	Go_O	1.0
241.176	1.0	go	0.493	Go_O	1.0
243.7	1.0	go	0.243	Go_X	1.0
246.224	1.0	go	0.35	Go_X	1.0
248.749	1.0	go	0.262	Go_O	1.0
251.273	1.0	go	0.504	Go_X	1.0
253.797	0.0	stop	0.0	Go_X	1.0
256.338	1.0	go	0.225	Go_O	1.0
258.862	1.0	go	0.228	Go_O	0.0
261.386	1.0	go	0.335	Go_X	1.0
263.911	0.05	stop	0.22	Go_O	0.0
266.435	1.0	go	0.215	Go_X	1.0
268.959	1.0	go	0.196	Go_O	1.0
271.483	1.0	go	0.41	Go_O	1.0
274.008	1.0	go	0.221	Go_X	1.0
276.532	1.0	go	0.594	Go_X	1.0
279.056	1.0	go	0.231	Go_O	1.0
281.58	0.0	stop	0.0	Go_X	1.0
284.121	1.0	go	0.364	Go_X	1.0
286.645	1.0	go	0.291	Go_O	1.0
289.17	0.05	stop	0.0	Go_O	1.0
291.694	1.0	go	0.415	Go_O	1.0
294.218	1.0	go	0.274	Go_X	1.0
296.742	0.1	stop	0.0	Go_X	1.0
299.266	1.0	go	0.327	Go_X	0.0
301.791	0.15	stop	0.334	Go_O	0.0
304.315	1.0	go	0.25	Go_O	1.0
306.839	1.0	go	0.35	Go_O	1.0
309.363	1.0	go	0.325	Go_X	1.0
311.887	1.0	go	0.402	Go_X	1.0
314.412	1.0	go	0.337	Go_O	1.0
316.936	0.1	stop	0.0	Go_X	1.0
319.46	0.15	stop	0.259	Go_O	0.0
321.984	1.0	go	0.292	Go_O	1.0
324.509	1.0	go	0.275	Go_X	1.0
327.033	0.1	stop	0.0	Go_X	1.0
329.557	1.0	go	0.351	Go_O	1.0
332.081	1.0	go	0.281	Go_X	1.0
334.605	1.0	go	0.372	Go_X	1.0
337.13	1.0	go	0.253	Go_O	1.0
339.654	1.0	go	0.522	Go_O	1.0
342.178	1.0	go	0.273	Go_X	1.0
344.702	0.15	stop	0.468	Go_O	0.0
347.226	1.0	go	0.357	Go_X	1.0
349.751	1.0	go	0.258	Go_O	1.0
352.275	1.0	go	0.298	Go_X	1.0
354.799	1.0	go	0.263	Go_O	1.0
357.323	1.0	go	0.403	Go_O	1.0
359.848	0.1	stop	0.0	Go_X	1.0
362.372	1.0	go	0.48	Go_X	1.0
364.896	1.0	go	0.376	Go_X	1.0
367.42	1.0	go	0.271	Go_O	1.0
369.944	1.0	go	0.606	Go_X	1.0
372.469	0.15	stop	0.344	Go_O	0.0
374.993	1.0	go	0.331	Go_O	1.0
377.517	1.0	go	0.387	Go_X	1.0
380.041	0.1	stop	0.0	Go_X	1.0
382.565	1.0	go	0.408	Go_O	1.0
385.09	0.15	stop	0.0	Go_O	1.0
387.614	1.0	go	0.294	Go_X	1.0
390.138	1.0	go	0.375	Go_O	1.0
392.662	1.0	go	0.541	Go_X	1.0
395.187	1.0	go	0.354	Go_O	1.0
397.711	1.0	go	0.555	Go_X	1.0
400.235	1.0	go	0.232	Go_O	1.0
402.759	1.0	go	0.332	Go_X	1.0
405.283	0.2	stop	0.386	Go_X	0.0
407.808	1.0	go	0.319	Go_O	1.0
410.332	1.0	go	0.257	Go_O	0.0
412.856	1.0	go	0.364	Go_X	1.0
415.38	0.15	stop	0.31	Go_O	0.0
417.904	1.0	go	0.312	Go_O	1.0
420.429	1.0	go	0.286	Go_X	1.0
422.953	1.0	go	0.397	Go_X	1.0
425.477	1.0	go	0.352	Go_O	1.0
428.001	0.1	stop	0.0	Go_X	1.0
430.525	1.0	go	0.465	Go_O	1.0
433.05	1.0	go	0.398	Go_X	1.0
435.574	0.15	stop	0.0	Go_O	1.0
438.098	1.0	go	0.385	Go_X	1.0
440.622	1.0	go	0.293	Go_O	1.0
443.147	0.2	stop	0.277	Go_X	0.0
445.671	1.0	go	0.461	Go_X	1.0
448.195	1.0	go	0.235	Go_O	1.0
450.719	0.15	stop	0.352	Go_O	0.0
453.243	1.0	go	0.31	Go_O	1.0
455.768	1.0	go	0.351	Go_X	1.0
458.292	1.0	go	0.217	Go_O	1.0
460.816	1.0	go	0.221	Go_X	1.0
463.34	1.0	go	0.359	Go_O	1.0
465.864	1.0	go	0.237	Go_X	1.0
468.389	0.1	stop	0.0	Go_X	1.0
470.913	1.0	go	0.394	Go_X	1.0
473.437	0.15	stop	0.318	Go_O	0.0
475.961	1.0	go	0.33	Go_O	1.0
478.486	1.0	go	0.348	Go_O	1.0
481.01	1.0	go	0.365	Go_X	1.0
483.534	1.0	go	0.264	Go_O	1.0
486.058	1.0	go	0.439	Go_X	1.0
488.582	0.1	stop	0.0	Go_X	1.0
491.107	1.0	go	0.379	Go_O	1.0
493.631	1.0	go	0.292	Go_X	1.0
496.155	1.0	go	0.266	Go_O	1.0
498.679	0.15	stop	0.343	Go_O	0.0
501.203	0.1	stop	0.0	Go_X	1.0
503.728	0.15	stop	0.248	Go_O	0.0
506.252	1.0	go	0.364	Go_X	1.0
508.776	0.1	stop	0.0	Go_X	1.0
511.3	1.0	go	0.33	Go_O	1.0
513.825	1.0	go	0.534	Go_X	1.0
516.349	1.0	go	0.419	Go_X	1.0
518.873	1.0	go	0.272	Go_O	1.0
521.397	1.0	go	0.255	Go_X	1.0
523.921	1.0	go	0.271	Go_O	1.0
526.446	1.0	go	0.306	Go_X	1.0
528.97	1.0	go	0.383	Go_O	1.0
531.494	0.15	stop	0.0	Go_O	1.0
534.018	1.0	go	0.627	Go_X	1.0
536.542	1.0	go	0.462	Go_O	1.0
539.067	0.2	stop	0.356	Go_X	0.0
541.591	1.0	go	0.438	Go_X	1.0
544.115	1.0	go	0.252	Go_O	1.0
546.639	1.0	go	0.436	Go_O	1.0
549.164	1.0	go	0.352	Go_X	1.0
551.688	1.0	go	0.292	Go_O	1.0
554.212	0.15	stop	0.321	Go_O	0.0
556.736	1.0	go	0.443	Go_X	1.0
559.26	1.0	go	0.245	Go_O	1.0
561.785	1.0	go	0.243	Go_X	1.0
564.309	0.1	stop	0.0	Go_X	1.0
566.833	1.0	go	0.45	Go_X	1.0
569.357	0.15	stop	0.323	Go_O	0.0
571.881	1.0	go	0.381	Go_O	1.0
574.406	1.0	go	0.546	Go_X	0.0
576.93	1.0	go	0.278	Go_O	1.0
579.454	1.0	go	0.383	Go_O	1.0
581.978	1.0	go	0.263	Go_X	1.0
584.503	1.0	go	0.364	Go_X	1.0
587.027	1.0	go	0.369	Go_O	1.0
589.551	0.1	stop	0.0	Go_X	1.0
592.075	1.0	go	0.362	Go_X	1.0
594.599	1.0	go	0.24	Go_O	1.0
597.124	1.0	go	0.321	Go_O	1.0
599.648	1.0	go	0.312	Go_X	1.0
602.172	0.15	stop	0.287	Go_O	0.0
604.696	1.0	go	0.301	Go_X	1.0
607.22	0.1	stop	0.0	Go_X	1.0
609.745	1.0	go	0.281	Go_O	1.0
612.269	1.0	go	0.401	Go_X	1.0
614.793	0.15	stop	0.362	Go_O	0.0
617.317	1.0	go	0.373	Go_O	1.0
619.842	1.0	go	0.34	Go_O	1.0
622.366	1.0	go	0.315	Go_X	1.0
624.89	1.0	go	0.407	Go_X	1.0
627.414	1.0	go	0.356	Go_O	1.0
629.938	1.0	go	0.441	Go_X	1.0
632.463	1.0	go	0.309	Go_O	1.0
634.987	1.0	go	0.341	Go_X	1.0
637.511	1.0	go	0.717	Go_O	0.0
640.035	1.0	go	0.356	Go_O	1.0
642.559	0.1	stop	0.288	Go_X	0.0
645.084	1.0	go	0.374	Go_X	1.0
647.608	1.0	go	0.363	Go_X	1.0
650.132	0.05	stop	0.0	Go_O	1.0
652.656	1.0	go	0.501	Go_O	1.0
655.181	0.1	stop	0.0	Go_X	1.0
657.705	1.0	go	0.33	Go_O	1.0
660.229	1.0	go	0.347	Go_X	1.0
662.753	0.15	stop	0.297	Go_O	0.0
665.277	1.0	go	0.386	Go_X	1.0
667.802	0.1	stop	0.0	Go_X	1.0
670.326	1.0	go	0.429	Go_O	1.0
672.85	1.0	go	0.388	Go_O	1.0
675.374	1.0	go	0.462	Go_X	1.0
677.898	0.15	stop	0.326	Go_O	0.0
680.423	1.0	go	0.272	Go_O	1.0
682.947	1.0	go	0.388	Go_X	0.0
685.471	1.0	go	0.414	Go_X	1.0
687.995	1.0	go	0.264	Go_O	1.0
690.52	0.1	stop	0.0	Go_X	1.0
693.044	1.0	go	0.381	Go_X	1.0
695.568	1.0	go	0.279	Go_O	1.0
698.092	0.15	stop	0.0	Go_O	1.0
700.616	1.0	go	0.267	Go_X	1.0
703.141	1.0	go	0.27	Go_O	1.0
705.665	1.0	go	0.273	Go_X	1.0
708.189	1.0	go	0.242	Go_O	1.0
710.713	0.2	stop	0.313	Go_X	0.0
713.237	1.0	go	0.363	Go_X	1.0
715.762	0.15	stop	0.0	Go_O	1.0
718.286	1.0	go	0.355	Go_O	1.0
720.81	1.0	go	0.394	Go_O	1.0
723.334	0.2	stop	0.351	Go_X	0.0
725.859	1.0	go	0.393	Go_X	1.0
728.383	1.0	go	0.395	Go_X	1.0
730.907	1.0	go	0.499	Go_O	1.0
733.431	1.0	go	0.482	Go_O	1.0
735.955	0.15	stop	0.0	Go_O	1.0
738.48	1.0	go	0.411	Go_X	1.0
741.004	0.2	stop	0.364	Go_X	0.0
743.528	1.0	go	0.348	Go_O	1.0
746.052	1.0	go	0.625	Go_X	1.0
748.576	1.0	go	0.231	Go_O	1.0
751.101	1.0	go	0.462	Go_X	1.0
753.625	1.0	go	0.296	Go_O	1.0
756.149	1.0	go	0.487	Go_X	1.0
758.673	0.15	stop	0.297	Go_O	0.0
761.198	1.0	go	0.405	Go_X	1.0
763.722	1.0	go	0.316	Go_O	1.0
766.246	0.1	stop	0.0	Go_X	1.0
768.77	1.0	go	0.336	Go_X	1.0
771.294	1.0	go	0.244	Go_O	1.0
773.819	0.15	stop	0.0	Go_O	1.0
776.343	1.0	go	0.511	Go_O	1.0
778.867	1.0	go	0.321	Go_X	1.0
781.391	1.0	go	0.534	Go_X	1.0
783.915	1.0	go	0.31	Go_O	1.0
786.44	0.2	stop	0.392	Go_X	0.0
788.964	1.0	go	0.348	Go_O	1.0
791.488	0.15	stop	0.0	Go_O	1.0
794.012	1.0	go	0.397	Go_X	1.0
796.536	1.0	go	0.393	Go_O	1.0
799.061	1.0	go	0.313	Go_X	1.0
801.585	1.0	go	0.397	Go_X	1.0
804.109	1.0	go	0.364	Go_O	1.0
806.633	0.2	stop	0.414	Go_X	0.0
809.158	1.0	go	0.363	Go_O	1.0
811.682	1.0	go	0.325	Go_X	1.0
814.206	0.15	stop	0.0	Go_O	1.0
816.73	0.2	stop	0.402	Go_X	0.0
819.254	1.0	go	0.241	Go_O	1.0
821.779	1.0	go	0.26	Go_X	1.0
824.303	1.0	go	0.386	Go_X	1.0
826.827	1.0	go	0.191	Go_O	1.0
829.351	0.15	stop	0.0	Go_O	1.0
831.875	1.0	go	0.242	Go_O	1.0
