onset	duration	trial_type	response_time	stim_file	accuracy
0.5319999999999965	1.0	go	0.0	Go_X	0.0
3.057000000000002	1.0	go	0.249	Go_O	1.0
5.581000000000003	1.0	go	0.261	Go_X	1.0
8.105000000000004	1.0	go	0.263	Go_O	1.0
10.629000000000005	1.0	go	0.334	Go_X	1.0
13.153000000000006	1.0	go	0.234	Go_O	1.0
15.677999999999997	0.25	stopfail	0.478	Go_O	0.0
18.201999999999998	1.0	go	0.589	Go_X	1.0
20.726	0.2	stopfail	0.223	Go_X	0.0
23.25	1.0	go	0.247	Go_O	1.0
25.775000000000006	1.0	go	0.361	Go_O	1.0
28.299000000000007	1.0	go	0.422	Go_X	1.0
30.823000000000008	0.15	stopsuccess	0.0	Go_O	1.0
33.34700000000001	1.0	go	0.395	Go_X	1.0
35.87100000000001	1.0	go	0.289	Go_O	1.0
38.396	0.2	stopfail	0.309	Go_X	0.0
40.92	0.15	stopfail	0.345	Go_O	0.0
43.444	1.0	go	0.646	Go_X	1.0
45.968	1.0	go	0.307	Go_O	1.0
48.492000000000004	0.1	stopsuccess	0.0	Go_X	1.0
51.016999999999996	1.0	go	0.269	Go_O	1.0
53.541	1.0	go	0.438	Go_X	1.0
56.065	0.15	stopfail	0.241	Go_O	0.0
58.589	1.0	go	0.185	Go_X	1.0
61.114000000000004	1.0	go	0.258	Go_O	1.0
63.638000000000005	0.1	stopfail	0.245	Go_X	0.0
66.162	1.0	go	0.598	Go_X	1.0
68.686	1.0	go	0.233	Go_O	1.0
71.21000000000001	0.05	stopfail	0.25	Go_O	0.0
73.73500000000001	1.0	go	0.353	Go_O	1.0
76.25900000000001	1.0	go	0.285	Go_X	1.0
78.78300000000002	1.0	go	0.33	Go_O	1.0
81.30700000000002	1.0	go	0.247	Go_X	1.0
83.83099999999999	1.0	go	0.439	Go_X	1.0
86.356	0.0	stopsuccess	0.0	Go_X	1.0
88.89699999999999	1.0	go	0.418	Go_O	1.0
91.42099999999999	1.0	go	0.431	Go_X	1.0
93.945	1.0	go	0.478	Go_O	1.0
96.469	1.0	go	0.31	Go_X	1.0
98.993	1.0	go	0.254	Go_O	1.0
101.518	0.05	stopsuccess	0.0	Go_O	1.0
104.042	1.0	go	0.312	Go_O	1.0
106.566	1.0	go	0.406	Go_X	1.0
109.09	1.0	go	0.249	Go_O	1.0
111.61500000000001	1.0	go	0.258	Go_X	1.0
114.13900000000001	1.0	go	0.291	Go_O	1.0
116.66300000000001	1.0	go	0.279	Go_X	1.0
119.18700000000001	0.1	stopsuccess	0.0	Go_X	1.0
121.71100000000001	1.0	go	0.251	Go_O	1.0
124.23599999999999	1.0	go	0.313	Go_X	1.0
126.75999999999999	0.15	stopfail	0.234	Go_O	0.0
129.284	1.0	go	0.358	Go_X	1.0
131.808	0.1	stopsuccess	0.0	Go_X	1.0
134.332	0.15	stopfail	0.287	Go_O	0.0
136.857	1.0	go	0.563	Go_O	1.0
139.381	1.0	go	0.412	Go_X	1.0
141.905	1.0	go	0.285	Go_O	1.0
144.429	1.0	go	0.38	Go_O	1.0
146.954	0.1	stopfail	0.23	Go_X	0.0
149.478	1.0	go	0.361	Go_X	1.0
152.002	0.05	stopfail	0.244	Go_O	0.0
154.526	1.0	go	0.339	Go_O	1.0
157.05	1.0	go	0.271	Go_X	1.0
159.575	1.0	go	0.398	Go_X	1.0
162.099	1.0	go	0.25	Go_O	1.0
164.623	1.0	go	0.493	Go_O	1.0
167.147	1.0	go	0.243	Go_X	1.0
169.671	1.0	go	0.35	Go_X	1.0
172.196	1.0	go	0.262	Go_O	1.0
174.72	1.0	go	0.504	Go_X	1.0
177.244	0.0	stopsuccess	0.0	Go_X	1.0
179.78500000000003	1.0	go	0.225	Go_O	1.0
182.30900000000003	1.0	go	0.228	Go_O	0.0
184.83300000000003	1.0	go	0.335	Go_X	1.0
187.358	0.05	stopfail	0.22	Go_O	0.0
189.882	1.0	go	0.215	Go_X	1.0
192.406	1.0	go	0.196	Go_O	1.0
194.93	1.0	go	0.41	Go_O	1.0
197.45499999999998	1.0	go	0.221	Go_X	1.0
199.97899999999998	1.0	go	0.594	Go_X	1.0
202.503	1.0	go	0.231	Go_O	1.0
205.027	0.0	stopsuccess	0.0	Go_X	1.0
207.56799999999998	1.0	go	0.364	Go_X	1.0
210.09199999999998	1.0	go	0.291	Go_O	1.0
212.61700000000002	0.05	stopsuccess	0.0	Go_O	1.0
215.14100000000002	1.0	go	0.415	Go_O	1.0
217.66500000000002	1.0	go	0.274	Go_X	1.0
220.18900000000002	0.1	stopsuccess	0.0	Go_X	1.0
222.71300000000002	1.0	go	0.327	Go_X	0.0
225.238	0.15	stopfail	0.334	Go_O	0.0
227.762	1.0	go	0.25	Go_O	1.0
230.286	1.0	go	0.35	Go_O	1.0
232.81	1.0	go	0.325	Go_X	1.0
235.334	1.0	go	0.402	Go_X	1.0
237.85899999999998	1.0	go	0.337	Go_O	1.0
240.38299999999998	0.1	stopsuccess	0.0	Go_X	1.0
242.90699999999998	0.15	stopfail	0.259	Go_O	0.0
245.43099999999998	1.0	go	0.292	Go_O	1.0
247.95600000000002	1.0	go	0.275	Go_X	1.0
250.48000000000002	0.1	stopsuccess	0.0	Go_X	1.0
253.00400000000002	1.0	go	0.351	Go_O	1.0
255.52800000000002	1.0	go	0.281	Go_X	1.0
258.052	1.0	go	0.372	Go_X	1.0
260.577	1.0	go	0.253	Go_O	1.0
263.101	1.0	go	0.522	Go_O	1.0
265.625	1.0	go	0.273	Go_X	1.0
268.149	0.15	stopfail	0.468	Go_O	0.0
270.673	1.0	go	0.357	Go_X	1.0
273.198	1.0	go	0.258	Go_O	1.0
275.722	1.0	go	0.298	Go_X	1.0
278.246	1.0	go	0.263	Go_O	1.0
280.77	1.0	go	0.403	Go_O	1.0
283.295	0.1	stopsuccess	0.0	Go_X	1.0
285.819	1.0	go	0.48	Go_X	1.0
288.343	1.0	go	0.376	Go_X	1.0
290.867	1.0	go	0.271	Go_O	1.0
293.391	1.0	go	0.606	Go_X	1.0
295.916	0.15	stopfail	0.344	Go_O	0.0
298.44	1.0	go	0.331	Go_O	1.0
300.964	1.0	go	0.387	Go_X	1.0
303.488	0.1	stopsuccess	0.0	Go_X	1.0
306.012	1.0	go	0.408	Go_O	1.0
308.537	0.15	stopsuccess	0.0	Go_O	1.0
311.061	1.0	go	0.294	Go_X	1.0
313.585	1.0	go	0.375	Go_O	1.0
316.109	1.0	go	0.541	Go_X	1.0
318.634	1.0	go	0.354	Go_O	1.0
321.158	1.0	go	0.555	Go_X	1.0
323.682	1.0	go	0.232	Go_O	1.0
326.206	1.0	go	0.332	Go_X	1.0
328.73	0.2	stopfail	0.386	Go_X	0.0
331.255	1.0	go	0.319	Go_O	1.0
333.779	1.0	go	0.257	Go_O	0.0
336.303	1.0	go	0.364	Go_X	1.0
338.827	0.15	stopfail	0.31	Go_O	0.0
341.351	1.0	go	0.312	Go_O	1.0
343.876	1.0	go	0.286	Go_X	1.0
346.4	1.0	go	0.397	Go_X	1.0
348.924	1.0	go	0.352	Go_O	1.0
351.448	0.1	stopsuccess	0.0	Go_X	1.0
353.972	1.0	go	0.465	Go_O	1.0
356.497	1.0	go	0.398	Go_X	1.0
359.021	0.15	stopsuccess	0.0	Go_O	1.0
361.545	1.0	go	0.385	Go_X	1.0
364.069	1.0	go	0.293	Go_O	1.0
366.594	0.2	stopfail	0.277	Go_X	0.0
369.118	1.0	go	0.461	Go_X	1.0
371.642	1.0	go	0.235	Go_O	1.0
374.166	0.15	stopfail	0.352	Go_O	0.0
376.69	1.0	go	0.31	Go_O	1.0
379.215	1.0	go	0.351	Go_X	1.0
381.739	1.0	go	0.217	Go_O	1.0
384.263	1.0	go	0.221	Go_X	1.0
386.787	1.0	go	0.359	Go_O	1.0
389.311	1.0	go	0.237	Go_X	1.0
391.836	0.1	stopsuccess	0.0	Go_X	1.0
394.36	1.0	go	0.394	Go_X	1.0
396.884	0.15	stopfail	0.318	Go_O	0.0
399.408	1.0	go	0.33	Go_O	1.0
401.933	1.0	go	0.348	Go_O	1.0
404.457	1.0	go	0.365	Go_X	1.0
406.981	1.0	go	0.264	Go_O	1.0
409.505	1.0	go	0.439	Go_X	1.0
412.029	0.1	stopsuccess	0.0	Go_X	1.0
414.55400000000003	1.0	go	0.379	Go_O	1.0
417.078	1.0	go	0.292	Go_X	1.0
419.602	1.0	go	0.266	Go_O	1.0
422.126	0.15	stopfail	0.343	Go_O	0.0
424.65	0.1	stopsuccess	0.0	Go_X	1.0
427.175	0.15	stopfail	0.248	Go_O	0.0
429.699	1.0	go	0.364	Go_X	1.0
432.223	0.1	stopsuccess	0.0	Go_X	1.0
434.747	1.0	go	0.33	Go_O	1.0
437.27200000000005	1.0	go	0.534	Go_X	1.0
439.79600000000005	1.0	go	0.419	Go_X	1.0
442.32000000000005	1.0	go	0.272	Go_O	1.0
444.84400000000005	1.0	go	0.255	Go_X	1.0
447.36800000000005	1.0	go	0.271	Go_O	1.0
449.89300000000003	1.0	go	0.306	Go_X	1.0
452.41700000000003	1.0	go	0.383	Go_O	1.0
454.94100000000003	0.15	stopsuccess	0.0	Go_O	1.0
457.46500000000003	1.0	go	0.627	Go_X	1.0
459.98900000000003	1.0	go	0.462	Go_O	1.0
462.514	0.2	stopfail	0.356	Go_X	0.0
465.038	1.0	go	0.438	Go_X	1.0
467.562	1.0	go	0.252	Go_O	1.0
470.086	1.0	go	0.436	Go_O	1.0
472.611	1.0	go	0.352	Go_X	1.0
475.135	1.0	go	0.292	Go_O	1.0
477.659	0.15	stopfail	0.321	Go_O	0.0
480.183	1.0	go	0.443	Go_X	1.0
482.707	1.0	go	0.245	Go_O	1.0
485.23199999999997	1.0	go	0.243	Go_X	1.0
487.756	0.1	stopsuccess	0.0	Go_X	1.0
490.28	1.0	go	0.45	Go_X	1.0
492.804	0.15	stopfail	0.323	Go_O	0.0
495.328	1.0	go	0.381	Go_O	1.0
497.85299999999995	1.0	go	0.546	Go_X	0.0
500.37699999999995	1.0	go	0.278	Go_O	1.0
502.90099999999995	1.0	go	0.383	Go_O	1.0
505.42499999999995	1.0	go	0.263	Go_X	1.0
507.95000000000005	1.0	go	0.364	Go_X	1.0
510.47400000000005	1.0	go	0.369	Go_O	1.0
512.998	0.1	stopsuccess	0.0	Go_X	1.0
515.522	1.0	go	0.362	Go_X	1.0
518.046	1.0	go	0.24	Go_O	1.0
520.571	1.0	go	0.321	Go_O	1.0
523.095	1.0	go	0.312	Go_X	1.0
525.619	0.15	stopfail	0.287	Go_O	0.0
528.143	1.0	go	0.301	Go_X	1.0
530.667	0.1	stopsuccess	0.0	Go_X	1.0
533.192	1.0	go	0.281	Go_O	1.0
535.716	1.0	go	0.401	Go_X	1.0
538.24	0.15	stopfail	0.362	Go_O	0.0
540.764	1.0	go	0.373	Go_O	1.0
543.289	1.0	go	0.34	Go_O	1.0
545.813	1.0	go	0.315	Go_X	1.0
548.337	1.0	go	0.407	Go_X	1.0
550.861	1.0	go	0.356	Go_O	1.0
553.385	1.0	go	0.441	Go_X	1.0
555.91	1.0	go	0.309	Go_O	1.0
558.434	1.0	go	0.341	Go_X	1.0
560.958	1.0	go	0.717	Go_O	0.0
563.482	1.0	go	0.356	Go_O	1.0
566.006	0.1	stopfail	0.288	Go_X	0.0
568.531	1.0	go	0.374	Go_X	1.0
571.055	1.0	go	0.363	Go_X	1.0
573.579	0.05	stopsuccess	0.0	Go_O	1.0
576.103	1.0	go	0.501	Go_O	1.0
578.628	0.1	stopsuccess	0.0	Go_X	1.0
581.152	1.0	go	0.33	Go_O	1.0
583.676	1.0	go	0.347	Go_X	1.0
586.2	0.15	stopfail	0.297	Go_O	0.0
588.724	1.0	go	0.386	Go_X	1.0
591.249	0.1	stopsuccess	0.0	Go_X	1.0
593.773	1.0	go	0.429	Go_O	1.0
596.297	1.0	go	0.388	Go_O	1.0
598.821	1.0	go	0.462	Go_X	1.0
601.345	0.15	stopfail	0.326	Go_O	0.0
603.87	1.0	go	0.272	Go_O	1.0
606.394	1.0	go	0.388	Go_X	0.0
608.918	1.0	go	0.414	Go_X	1.0
611.442	1.0	go	0.264	Go_O	1.0
613.967	0.1	stopsuccess	0.0	Go_X	1.0
616.491	1.0	go	0.381	Go_X	1.0
619.015	1.0	go	0.279	Go_O	1.0
621.539	0.15	stopsuccess	0.0	Go_O	1.0
624.063	1.0	go	0.267	Go_X	1.0
626.588	1.0	go	0.27	Go_O	1.0
629.112	1.0	go	0.273	Go_X	1.0
631.636	1.0	go	0.242	Go_O	1.0
634.16	0.2	stopfail	0.313	Go_X	0.0
636.684	1.0	go	0.363	Go_X	1.0
639.209	0.15	stopsuccess	0.0	Go_O	1.0
641.733	1.0	go	0.355	Go_O	1.0
644.257	1.0	go	0.394	Go_O	1.0
646.781	0.2	stopfail	0.351	Go_X	0.0
649.306	1.0	go	0.393	Go_X	1.0
651.83	1.0	go	0.395	Go_X	1.0
654.354	1.0	go	0.499	Go_O	1.0
656.878	1.0	go	0.482	Go_O	1.0
659.402	0.15	stopsuccess	0.0	Go_O	1.0
661.927	1.0	go	0.411	Go_X	1.0
664.451	0.2	stopfail	0.364	Go_X	0.0
666.975	1.0	go	0.348	Go_O	1.0
669.499	1.0	go	0.625	Go_X	1.0
672.023	1.0	go	0.231	Go_O	1.0
674.548	1.0	go	0.462	Go_X	1.0
677.072	1.0	go	0.296	Go_O	1.0
679.596	1.0	go	0.487	Go_X	1.0
682.12	0.15	stopfail	0.297	Go_O	0.0
684.645	1.0	go	0.405	Go_X	1.0
687.169	1.0	go	0.316	Go_O	1.0
689.693	0.1	stopsuccess	0.0	Go_X	1.0
692.217	1.0	go	0.336	Go_X	1.0
694.741	1.0	go	0.244	Go_O	1.0
697.266	0.15	stopsuccess	0.0	Go_O	1.0
699.79	1.0	go	0.511	Go_O	1.0
702.314	1.0	go	0.321	Go_X	1.0
704.838	1.0	go	0.534	Go_X	1.0
707.362	1.0	go	0.31	Go_O	1.0
709.8870000000001	0.2	stopfail	0.392	Go_X	0.0
712.4110000000001	1.0	go	0.348	Go_O	1.0
714.9350000000001	0.15	stopsuccess	0.0	Go_O	1.0
717.459	1.0	go	0.397	Go_X	1.0
719.983	1.0	go	0.393	Go_O	1.0
722.508	1.0	go	0.313	Go_X	1.0
725.032	1.0	go	0.397	Go_X	1.0
727.556	1.0	go	0.364	Go_O	1.0
730.08	0.2	stopfail	0.414	Go_X	0.0
732.605	1.0	go	0.363	Go_O	1.0
735.129	1.0	go	0.325	Go_X	1.0
737.653	0.15	stopsuccess	0.0	Go_O	1.0
740.177	0.2	stopfail	0.402	Go_X	0.0
742.701	1.0	go	0.241	Go_O	1.0
745.226	1.0	go	0.26	Go_X	1.0
747.75	1.0	go	0.386	Go_X	1.0
750.274	1.0	go	0.191	Go_O	1.0
752.798	0.15	stopsuccess	0.0	Go_O	1.0
755.322	1.0	go	0.242	Go_O	1.0
