onset	duration	trial_type	response_time	stim_file	accuracy
69.478	1.0	go	0.794	Go_X	0.0
72.002	1.0	go	0.365	Go_O	0.0
74.526	1.0	go	0.293	Go_O	1.0
77.051	1.0	go	0.545	Go_X	0.0
79.575	1.0	go	0.507	Go_O	0.0
82.099	1.0	go	0.303	Go_X	0.0
84.623	0.25	stopfail	0.275	Go_O	0.0
87.147	1.0	go	0.309	Go_O	1.0
89.672	0.2	stopfail	0.301	Go_X	0.0
92.196	1.0	go	0.553	Go_X	0.0
94.72	1.0	go	0.578	Go_X	0.0
97.244	1.0	go	0.581	Go_O	0.0
99.769	0.15	stopsuccess	0.0	Go_O	1.0
102.293	1.0	go	0.36	Go_X	0.0
104.817	1.0	go	0.48	Go_O	0.0
107.341	0.2	stopsuccess	0.0	Go_X	1.0
109.865	0.25	stopfail	0.435	Go_O	0.0
112.39	1.0	go	0.466	Go_X	0.0
114.914	1.0	go	0.555	Go_O	0.0
117.438	0.2	stopsuccess	0.0	Go_X	1.0
119.962	1.0	go	0.361	Go_X	0.0
122.486	1.0	go	0.975	Go_O	0.0
125.011	0.25	stopfail	0.346	Go_O	0.0
127.535	1.0	go	0.43	Go_X	0.0
130.059	1.0	go	0.455	Go_O	0.0
132.583	0.2	stopsuccess	0.0	Go_X	1.0
135.108	1.0	go	0.446	Go_O	0.0
137.632	1.0	go	0.535	Go_X	0.0
140.156	0.25	stopsuccess	0.0	Go_O	1.0
142.68	1.0	go	0.448	Go_X	0.0
145.204	1.0	go	0.528	Go_O	0.0
147.729	1.0	go	0.466	Go_O	1.0
150.253	1.0	go	0.514	Go_X	0.0
152.777	1.0	go	0.51	Go_O	0.0
155.301	0.3	stopsuccess	0.0	Go_X	1.0
157.825	1.0	go	0.921	Go_X	0.0
160.35	1.0	go	0.429	Go_O	0.0
162.874	1.0	go	0.655	Go_X	0.0
165.398	1.0	go	0.749	Go_O	0.0
167.922	1.0	go	0.342	Go_X	0.0
170.447	0.35	stopfail	0.441	Go_O	0.0
172.971	1.0	go	0.3	Go_X	0.0
175.495	1.0	go	0.31	Go_O	0.0
178.019	1.0	go	0.507	Go_O	0.0
180.543	1.0	go	0.419	Go_X	0.0
183.068	1.0	go	0.539	Go_X	0.0
185.592	1.0	go	0.505	Go_O	0.0
188.116	0.3	stopfail	0.691	Go_X	0.0
190.64	1.0	go	0.498	Go_O	0.0
193.164	1.0	go	0.464	Go_X	1.0
195.689	0.25	stopfail	0.373	Go_O	0.0
198.213	1.0	go	0.467	Go_O	0.0
200.737	0.2	stopsuccess	0.0	Go_X	1.0
203.261	0.25	stopsuccess	0.0	Go_O	1.0
205.786	1.0	go	0.97	Go_X	0.0
208.31	1.0	go	0.367	Go_O	0.0
210.834	1.0	go	0.824	Go_X	0.0
213.358	1.0	go	0.0	Go_X	0.0
215.882	0.3	stopfail	0.572	Go_X	0.0
218.407	1.0	go	0.545	Go_O	0.0
220.931	0.25	stopsuccess	0.0	Go_O	1.0
223.455	1.0	go	0.454	Go_X	0.0
225.979	1.0	go	0.555	Go_O	0.0
228.503	1.0	go	0.691	Go_X	0.0
231.028	1.0	go	0.447	Go_O	0.0
233.552	1.0	go	0.593	Go_X	0.0
236.076	1.0	go	0.516	Go_O	1.0
238.6	1.0	go	0.422	Go_O	0.0
241.125	1.0	go	0.523	Go_X	0.0
243.649	1.0	go	0.616	Go_X	0.0
246.173	0.3	stopsuccess	0.0	Go_X	1.0
248.697	1.0	go	0.492	Go_O	0.0
251.221	1.0	go	0.514	Go_X	0.0
253.746	1.0	go	0.524	Go_O	0.0
256.27	0.35	stopfail	0.497	Go_O	0.0
258.794	1.0	go	0.448	Go_X	0.0
261.318	1.0	go	0.533	Go_O	0.0
263.842	1.0	go	0.536	Go_X	0.0
266.367	1.0	go	0.674	Go_O	0.0
268.891	1.0	go	0.438	Go_O	0.0
271.415	1.0	go	0.541	Go_X	0.0
273.939	0.3	stopsuccess	0.0	Go_X	1.0
276.464	1.0	go	0.566	Go_O	0.0
278.988	1.0	go	0.674	Go_X	0.0
281.512	0.35	stopfail	0.459	Go_O	0.0
284.036	1.0	go	0.431	Go_X	0.0
286.56	1.0	go	0.585	Go_O	0.0
289.085	0.3	stopsuccess	0.0	Go_X	1.0
291.609	1.0	go	0.534	Go_O	0.0
294.133	0.35	stopfail	0.537	Go_O	0.0
296.657	1.0	go	0.394	Go_X	0.0
299.181	1.0	go	0.535	Go_O	0.0
301.706	1.0	go	0.561	Go_X	0.0
304.23	1.0	go	0.0	Go_X	0.0
306.754	1.0	go	0.338	Go_O	0.0
309.278	0.3	stopfail	0.493	Go_X	0.0
311.802	0.25	stopsuccess	0.0	Go_O	1.0
314.327	1.0	go	0.636	Go_O	0.0
316.851	1.0	go	0.618	Go_X	0.0
319.375	0.3	stopsuccess	0.0	Go_X	1.0
321.899	1.0	go	0.726	Go_O	0.0
324.424	1.0	go	0.592	Go_X	0.0
326.948	1.0	go	0.717	Go_O	0.0
329.472	1.0	go	0.545	Go_X	0.0
331.996	1.0	go	0.797	Go_O	0.0
334.52	1.0	go	0.0	Go_X	0.0
337.045	0.35	stopfail	0.507	Go_O	0.0
339.569	1.0	go	0.542	Go_X	0.0
342.093	1.0	go	0.427	Go_O	0.0
344.617	1.0	go	0.854	Go_X	0.0
347.141	1.0	go	0.613	Go_O	0.0
349.666	1.0	go	0.503	Go_X	1.0
352.19	0.3	stopfail	0.524	Go_X	0.0
354.714	1.0	go	0.59	Go_O	0.0
357.238	1.0	go	0.82	Go_X	0.0
359.763	1.0	go	0.36	Go_O	0.0
362.287	1.0	go	0.383	Go_O	0.0
364.811	0.25	stopfail	0.485	Go_O	0.0
367.335	1.0	go	0.696	Go_X	0.0
369.859	1.0	go	0.448	Go_X	0.0
372.384	0.2	stopfail	0.47	Go_X	0.0
374.908	1.0	go	0.343	Go_O	0.0
377.432	0.15	stopfail	0.445	Go_O	0.0
379.956	1.0	go	0.498	Go_X	0.0
382.48	1.0	go	0.561	Go_O	0.0
385.005	1.0	go	0.521	Go_O	0.0
387.529	1.0	go	0.419	Go_X	0.0
390.053	1.0	go	0.454	Go_O	0.0
392.577	1.0	go	0.586	Go_X	0.0
395.102	1.0	go	0.467	Go_O	0.0
397.626	0.1	stopsuccess	0.0	Go_X	1.0
400.15	1.0	go	0.481	Go_X	0.0
402.674	1.0	go	0.538	Go_O	0.0
405.198	1.0	go	0.496	Go_X	0.0
407.723	0.15	stopsuccess	0.0	Go_O	1.0
410.247	1.0	go	0.5	Go_X	0.0
412.771	1.0	go	0.646	Go_O	0.0
415.295	1.0	go	0.49	Go_X	0.0
417.819	1.0	go	0.667	Go_O	0.0
420.344	0.2	stopfail	0.422	Go_X	0.0
422.868	1.0	go	0.471	Go_O	0.0
425.392	1.0	go	0.436	Go_X	0.0
427.916	0.15	stopsuccess	0.0	Go_O	1.0
430.441	1.0	go	0.632	Go_O	0.0
432.965	1.0	go	0.458	Go_X	0.0
435.489	0.2	stopsuccess	0.0	Go_X	1.0
438.013	1.0	go	0.565	Go_X	0.0
440.537	1.0	go	0.6	Go_O	0.0
443.062	0.25	stopsuccess	0.0	Go_O	1.0
445.586	1.0	go	0.481	Go_X	0.0
448.11	1.0	go	0.536	Go_O	0.0
450.634	1.0	go	0.718	Go_X	0.0
453.158	1.0	go	0.653	Go_O	0.0
455.683	1.0	go	0.467	Go_O	0.0
458.207	1.0	go	0.538	Go_X	1.0
460.731	0.3	stopfail	0.464	Go_X	0.0
463.255	1.0	go	0.481	Go_X	0.0
465.78	0.25	stopfail	0.46	Go_O	0.0
468.304	1.0	go	0.534	Go_O	0.0
470.828	1.0	go	0.527	Go_O	0.0
473.352	1.0	go	0.457	Go_X	0.0
475.876	1.0	go	0.684	Go_O	0.0
478.401	1.0	go	0.908	Go_X	0.0
480.925	0.2	stopsuccess	0.0	Go_X	1.0
483.449	1.0	go	0.619	Go_O	0.0
485.973	1.0	go	0.569	Go_X	0.0
488.497	1.0	go	0.626	Go_X	0.0
491.022	0.25	stopfail	0.612	Go_O	0.0
493.546	0.2	stopsuccess	0.0	Go_X	1.0
496.07	0.25	stopsuccess	0.0	Go_O	1.0
498.594	1.0	go	0.7	Go_O	0.0
501.119	0.3	stopsuccess	0.0	Go_X	1.0
503.643	1.0	go	0.436	Go_O	0.0
506.167	1.0	go	0.36	Go_X	0.0
508.691	1.0	go	0.368	Go_O	0.0
511.215	1.0	go	0.533	Go_X	0.0
513.74	1.0	go	0.0	Go_O	0.0
516.264	1.0	go	0.48	Go_X	0.0
518.788	1.0	go	0.506	Go_X	0.0
521.312	1.0	go	0.443	Go_O	0.0
523.836	0.35	stopfail	0.571	Go_O	0.0
526.361	1.0	go	0.48	Go_X	0.0
528.885	1.0	go	0.53	Go_O	0.0
531.409	0.3	stopfail	0.436	Go_X	0.0
533.933	1.0	go	0.629	Go_X	0.0
536.458	1.0	go	0.45	Go_O	0.0
538.982	1.0	go	0.358	Go_X	0.0
541.506	1.0	go	0.588	Go_O	0.0
544.03	1.0	go	0.56	Go_O	0.0
546.554	0.25	stopfail	0.421	Go_O	0.0
549.079	1.0	go	0.407	Go_X	0.0
551.603	1.0	go	0.437	Go_O	0.0
554.127	1.0	go	0.623	Go_X	0.0
556.651	0.2	stopsuccess	0.0	Go_X	1.0
559.175	1.0	go	0.485	Go_X	1.0
561.7	0.25	stopsuccess	0.0	Go_O	1.0
564.224	1.0	go	0.623	Go_O	0.0
566.748	1.0	go	0.764	Go_O	0.0
569.272	1.0	go	0.599	Go_X	0.0
571.797	1.0	go	0.388	Go_O	0.0
574.321	1.0	go	0.479	Go_X	0.0
576.845	1.0	go	0.549	Go_O	0.0
579.369	1.0	go	0.458	Go_X	0.0
581.893	0.3	stopfail	0.591	Go_X	0.0
584.418	1.0	go	0.615	Go_O	0.0
586.942	1.0	go	0.916	Go_X	1.0
589.466	1.0	go	0.587	Go_O	0.0
591.99	1.0	go	0.502	Go_X	0.0
594.514	0.25	stopsuccess	0.0	Go_O	1.0
597.039	1.0	go	0.623	Go_X	0.0
599.58	0.3	stopfail	0.497	Go_X	0.0
602.104	1.0	go	0.489	Go_O	0.0
604.628	1.0	go	0.778	Go_O	1.0
607.152	0.25	stopsuccess	0.0	Go_O	1.0
609.676	1.0	go	0.82	Go_X	0.0
612.201	1.0	go	0.952	Go_X	0.0
614.725	1.0	go	0.819	Go_O	1.0
617.249	1.0	go	0.0	Go_X	0.0
619.773	1.0	go	0.326	Go_O	0.0
622.298	1.0	go	0.598	Go_O	0.0
624.822	1.0	go	0.502	Go_X	0.0
627.346	1.0	go	0.629	Go_X	0.0
629.87	1.0	go	0.0	Go_O	0.0
632.394	1.0	go	0.45	Go_O	0.0
634.919	0.3	stopfail	0.48	Go_X	0.0
637.443	1.0	go	0.941	Go_X	0.0
639.967	1.0	go	0.367	Go_O	0.0
642.491	0.25	stopfail	0.474	Go_O	0.0
645.015	1.0	go	0.0	Go_X	0.0
647.54	0.2	stopsuccess	0.0	Go_X	1.0
650.064	1.0	go	0.4	Go_O	0.0
652.588	1.0	go	0.626	Go_X	0.0
655.112	0.25	stopfail	0.398	Go_O	0.0
657.637	1.0	go	0.873	Go_X	0.0
660.161	0.2	stopfail	0.508	Go_X	0.0
662.685	1.0	go	0.241	Go_O	0.0
665.209	1.0	go	0.793	Go_X	0.0
667.733	1.0	go	0.272	Go_O	0.0
670.258	0.15	stopsuccess	0.0	Go_O	1.0
672.782	1.0	go	0.61	Go_O	0.0
675.306	1.0	go	0.0	Go_X	0.0
677.83	1.0	go	0.713	Go_O	0.0
680.354	1.0	go	0.741	Go_X	0.0
682.879	0.2	stopfail	0.584	Go_X	0.0
685.403	1.0	go	0.472	Go_O	1.0
687.927	1.0	go	0.271	Go_X	0.0
690.451	0.15	stopfail	0.419	Go_O	0.0
692.976	1.0	go	0.575	Go_O	0.0
695.5	1.0	go	0.572	Go_X	0.0
698.024	1.0	go	0.466	Go_X	0.0
700.548	1.0	go	0.423	Go_O	0.0
703.072	0.1	stopsuccess	0.0	Go_X	1.0
705.597	1.0	go	0.555	Go_X	0.0
708.121	0.15	stopsuccess	0.0	Go_O	1.0
710.645	1.0	go	0.636	Go_O	0.0
713.169	1.0	go	0.802	Go_X	0.0
715.693	0.2	stopfail	0.458	Go_X	0.0
718.218	1.0	go	0.512	Go_O	0.0
720.742	1.0	go	0.408	Go_X	0.0
723.266	1.0	go	0.573	Go_O	0.0
725.79	1.0	go	0.62	Go_X	0.0
728.314	0.15	stopsuccess	0.0	Go_O	1.0
730.839	1.0	go	0.478	Go_O	0.0
733.363	0.2	stopsuccess	0.0	Go_X	1.0
735.887	1.0	go	0.538	Go_O	0.0
738.411	1.0	go	0.0	Go_X	0.0
740.936	1.0	go	0.366	Go_O	0.0
743.46	1.0	go	0.342	Go_X	0.0
745.984	1.0	go	0.768	Go_O	0.0
748.508	1.0	go	0.506	Go_X	0.0
751.032	0.25	stopfail	0.59	Go_O	0.0
753.557	1.0	go	0.562	Go_O	0.0
756.081	1.0	go	0.739	Go_X	0.0
758.605	0.2	stopsuccess	0.0	Go_X	1.0
761.129	1.0	go	0.303	Go_O	0.0
763.653	1.0	go	0.45	Go_X	0.0
766.178	0.25	stopsuccess	0.0	Go_O	1.0
768.702	1.0	go	0.567	Go_O	0.0
771.226	1.0	go	0.484	Go_X	0.0
773.75	1.0	go	0.595	Go_X	0.0
776.275	1.0	go	0.768	Go_O	0.0
778.799	0.3	stopfail	0.473	Go_X	0.0
781.323	1.0	go	0.373	Go_O	0.0
783.847	0.25	stopsuccess	0.0	Go_O	1.0
786.388	1.0	go	0.277	Go_X	0.0
788.912	1.0	go	0.606	Go_O	0.0
791.437	1.0	go	0.578	Go_X	0.0
793.961	1.0	go	0.373	Go_O	0.0
796.485	1.0	go	0.355	Go_X	1.0
799.009	0.3	stopfail	0.286	Go_X	0.0
801.533	1.0	go	0.26	Go_X	0.0
804.058	1.0	go	0.494	Go_O	0.0
806.582	0.25	stopsuccess	0.0	Go_O	1.0
809.106	0.3	stopsuccess	0.0	Go_X	1.0
811.63	1.0	go	0.489	Go_X	0.0
814.154	1.0	go	0.928	Go_O	0.0
816.679	1.0	go	0.0	Go_O	0.0
819.203	1.0	go	0.282	Go_X	0.0
821.727	0.35	stopfail	0.833	Go_O	0.0
824.251	1.0	go	0.685	Go_O	0.0
