onset	duration	trial_type	response_time	stim_file	accuracy
0.5230000000000246	1.0	go	0.616	Go_O	0.0
3.0470000000000255	1.0	go	0.485	Go_X	0.0
5.571000000000026	1.0	go	0.444	Go_X	0.0
8.095000000000027	1.0	go	0.389	Go_O	0.0
10.619000000000028	1.0	go	0.41	Go_O	0.0
13.144000000000005	1.0	go	0.521	Go_X	0.0
15.668000000000006	0.25	stopsuccess	0.0	Go_O	1.0
18.192000000000007	1.0	go	0.438	Go_X	0.0
20.716000000000008	0.3	stopsuccess	0.0	Go_X	1.0
23.24000000000001	1.0	go	0.367	Go_O	0.0
25.764999999999986	1.0	go	0.568	Go_O	0.0
28.289000000000044	1.0	go	0.414	Go_X	0.0
30.813000000000045	0.35	stopfail	0.328	Go_O	0.0
33.337000000000046	1.0	go	0.439	Go_X	0.0
35.86100000000005	1.0	go	0.387	Go_O	0.0
38.386000000000024	0.3	stopfail	0.345	Go_X	0.0
40.910000000000025	0.25	stopfail	0.383	Go_O	0.0
43.434000000000026	1.0	go	0.43	Go_X	0.0
45.95800000000003	1.0	go	0.518	Go_O	0.0
48.48200000000003	0.2	stopsuccess	0.0	Go_X	1.0
51.007000000000005	1.0	go	0.37	Go_O	0.0
53.531000000000006	1.0	go	0.585	Go_X	0.0
56.05500000000001	0.25	stopfail	0.457	Go_O	0.0
58.57900000000001	1.0	go	0.5	Go_O	0.0
61.10300000000001	1.0	go	0.63	Go_X	0.0
63.62700000000001	0.2	stopsuccess	0.0	Go_X	1.0
66.15199999999999	1.0	go	0.524	Go_X	0.0
68.67599999999999	1.0	go	0.549	Go_O	0.0
71.19999999999999	0.25	stopsuccess	0.0	Go_O	1.0
73.72399999999999	1.0	go	0.557	Go_O	0.0
76.24799999999999	1.0	go	0.554	Go_X	0.0
78.77299999999997	1.0	go	0.571	Go_O	0.0
81.29699999999997	1.0	go	0.538	Go_X	0.0
83.82099999999997	1.0	go	0.585	Go_X	0.0
86.34499999999997	0.3	stopsuccess	0.0	Go_X	1.0
88.86899999999997	1.0	go	0.486	Go_O	0.0
91.39400000000006	1.0	go	0.633	Go_O	0.0
93.91800000000006	1.0	go	0.613	Go_X	1.0
96.44200000000006	1.0	go	0.81	Go_O	0.0
98.96600000000007	1.0	go	0.623	Go_X	0.0
101.49000000000007	0.35	stopfail	0.51	Go_O	0.0
104.01500000000004	1.0	go	0.577	Go_O	0.0
106.53900000000004	1.0	go	0.563	Go_X	0.0
109.06300000000005	1.0	go	0.59	Go_O	0.0
111.58700000000005	1.0	go	0.511	Go_X	0.0
114.11100000000005	1.0	go	0.527	Go_O	0.0
116.63600000000002	1.0	go	0.571	Go_X	0.0
119.16000000000003	0.3	stopsuccess	0.0	Go_X	1.0
121.68400000000003	1.0	go	0.505	Go_O	0.0
124.20800000000003	1.0	go	0.655	Go_X	0.0
126.73200000000003	0.35	stopsuccess	0.0	Go_O	1.0
129.25600000000003	1.0	go	0.617	Go_X	0.0
131.781	0.4	stopfail	0.551	Go_X	0.0
134.305	0.35	stopsuccess	0.0	Go_O	1.0
136.829	1.0	go	0.564	Go_O	0.0
139.353	1.0	go	0.62	Go_X	0.0
141.877	1.0	go	0.653	Go_O	0.0
144.402	1.0	go	0.56	Go_O	0.0
146.926	0.4	stopsuccess	0.0	Go_X	1.0
149.45	1.0	go	0.524	Go_X	0.0
151.974	0.45	stopsuccess	0.0	Go_O	1.0
154.498	1.0	go	0.551	Go_X	0.0
157.02299999999997	1.0	go	0.66	Go_O	0.0
159.54699999999997	1.0	go	0.791	Go_O	0.0
162.07099999999997	1.0	go	0.55	Go_X	0.0
164.59499999999997	1.0	go	0.732	Go_X	0.0
167.11899999999997	1.0	go	0.616	Go_O	0.0
169.64400000000006	1.0	go	0.65	Go_X	0.0
172.16800000000006	1.0	go	0.568	Go_O	0.0
174.69200000000006	1.0	go	0.579	Go_O	0.0
177.21600000000007	0.5	stopfail	0.521	Go_X	0.0
179.74000000000007	1.0	go	0.612	Go_X	0.0
182.26500000000004	1.0	go	0.498	Go_O	0.0
184.78900000000004	1.0	go	0.481	Go_X	0.0
187.31300000000005	0.45	stopfail	0.572	Go_O	0.0
189.83700000000005	1.0	go	0.751	Go_O	0.0
192.36100000000005	1.0	go	0.653	Go_X	0.0
194.88500000000005	1.0	go	0.465	Go_O	0.0
197.41000000000003	1.0	go	0.726	Go_X	0.0
199.93400000000003	1.0	go	0.592	Go_O	0.0
202.45800000000003	1.0	go	0.584	Go_X	0.0
204.98200000000003	0.4	stopsuccess	0.0	Go_X	1.0
207.50600000000003	1.0	go	0.578	Go_X	0.0
210.031	1.0	go	0.678	Go_O	0.0
212.555	0.45	stopfail	0.523	Go_O	0.0
215.079	1.0	go	0.676	Go_O	0.0
217.603	1.0	go	0.564	Go_X	0.0
220.127	0.4	stopsuccess	0.0	Go_X	1.0
222.652	1.0	go	0.0	Go_O	0.0
225.176	0.45	stopsuccess	0.0	Go_O	1.0
227.7	1.0	go	0.431	Go_X	0.0
230.224	1.0	go	0.848	Go_X	0.0
232.748	1.0	go	0.628	Go_O	0.0
235.27299999999997	1.0	go	0.709	Go_O	0.0
237.79699999999997	1.0	go	0.541	Go_X	0.0
240.32099999999997	0.5	stopfail	0.657	Go_X	0.0
242.84499999999997	0.45	stopfail	0.551	Go_O	0.0
245.36899999999997	1.0	go	0.701	Go_O	0.0
247.89400000000006	1.0	go	0.936	Go_X	0.0
250.41800000000006	0.4	stopsuccess	0.0	Go_X	1.0
252.94200000000006	1.0	go	0.802	Go_X	0.0
255.46600000000007	1.0	go	0.559	Go_O	0.0
257.99000000000007	1.0	go	0.5	Go_X	0.0
260.51399999999995	1.0	go	0.634	Go_O	0.0
263.03900000000004	1.0	go	0.853	Go_X	0.0
265.56300000000005	1.0	go	0.677	Go_O	0.0
268.08700000000005	0.45	stopfail	0.608	Go_O	0.0
270.61100000000005	1.0	go	0.708	Go_O	0.0
273.13500000000005	1.0	go	0.607	Go_X	0.0
275.66	1.0	go	0.0	Go_O	0.0
278.184	1.0	go	0.393	Go_X	0.0
280.708	1.0	go	0.403	Go_O	0.0
283.232	0.4	stopfail	0.175	Go_X	0.0
285.75600000000003	1.0	go	0.448	Go_X	0.0
288.281	1.0	go	0.353	Go_X	0.0
290.805	1.0	go	0.334	Go_O	0.0
293.329	1.0	go	0.353	Go_X	0.0
295.853	0.35	stopfail	0.074	Go_O	0.0
298.377	1.0	go	0.365	Go_O	0.0
300.902	1.0	go	0.063	Go_O	1.0
303.426	0.3	stopfail	0.225	Go_X	0.0
305.95	1.0	go	0.445	Go_X	0.0
308.474	0.25	stopfail	0.394	Go_O	0.0
310.998	1.0	go	0.515	Go_X	0.0
313.52299999999997	1.0	go	0.56	Go_O	0.0
316.04699999999997	1.0	go	0.448	Go_O	0.0
318.57099999999997	1.0	go	0.48	Go_X	0.0
321.09499999999997	1.0	go	0.374	Go_O	0.0
323.61899999999997	1.0	go	0.38	Go_X	0.0
326.143	1.0	go	0.348	Go_X	0.0
328.66800000000006	0.2	stopsuccess	0.0	Go_X	1.0
331.19200000000006	1.0	go	0.666	Go_O	0.0
333.71600000000007	1.0	go	0.406	Go_O	0.0
336.24000000000007	1.0	go	0.415	Go_X	0.0
338.76399999999995	0.25	stopfail	0.398	Go_O	0.0
341.28900000000004	1.0	go	0.415	Go_X	0.0
343.81300000000005	1.0	go	0.58	Go_O	0.0
346.33700000000005	1.0	go	0.0	Go_O	0.0
348.86100000000005	1.0	go	0.314	Go_X	0.0
351.38500000000005	0.2	stopsuccess	0.0	Go_X	1.0
353.91	1.0	go	0.395	Go_X	0.0
356.434	1.0	go	0.48	Go_O	0.0
358.958	0.25	stopsuccess	0.0	Go_O	1.0
361.482	1.0	go	0.435	Go_O	0.0
364.00600000000003	1.0	go	0.588	Go_X	0.0
366.531	0.3	stopsuccess	0.0	Go_X	1.0
369.055	1.0	go	0.42	Go_O	0.0
371.579	1.0	go	0.693	Go_X	0.0
374.103	0.35	stopsuccess	0.0	Go_O	1.0
376.627	1.0	go	0.561	Go_O	0.0
379.152	1.0	go	0.755	Go_X	0.0
381.676	1.0	go	0.732	Go_X	0.0
384.2	1.0	go	0.874	Go_O	0.0
386.724	1.0	go	0.655	Go_X	0.0
389.248	1.0	go	0.0	Go_O	0.0
391.772	0.4	stopsuccess	0.0	Go_X	1.0
394.29699999999997	1.0	go	0.468	Go_O	0.0
396.82099999999997	0.45	stopsuccess	0.0	Go_O	1.0
399.34499999999997	1.0	go	0.0	Go_X	0.0
401.86899999999997	1.0	go	0.496	Go_O	0.0
404.393	1.0	go	0.75	Go_X	0.0
406.91800000000006	1.0	go	0.821	Go_O	0.0
409.44200000000006	1.0	go	0.745	Go_X	0.0
411.983	0.5	stopsuccess	0.0	Go_X	1.0
414.507	1.0	go	0.0	Go_O	0.0
417.031	1.0	go	0.575	Go_X	1.0
419.555	1.0	go	0.667	Go_O	0.0
422.08	0.55	stopfail	0.56	Go_O	0.0
424.604	0.5	stopfail	0.662	Go_X	0.0
427.128	0.45	stopsuccess	0.0	Go_O	1.0
429.652	1.0	go	0.0	Go_X	0.0
432.19300000000004	0.5	stopsuccess	0.0	Go_X	1.0
434.71700000000004	1.0	go	0.0	Go_O	0.0
437.24100000000004	1.0	go	0.751	Go_X	0.0
439.766	1.0	go	0.872	Go_O	0.0
442.29	1.0	go	0.607	Go_X	0.0
444.814	1.0	go	0.643	Go_X	0.0
447.338	1.0	go	0.466	Go_O	0.0
449.862	1.0	go	0.813	Go_X	0.0
452.387	1.0	go	0.548	Go_O	0.0
454.911	0.55	stopfail	0.59	Go_O	0.0
457.435	1.0	go	0.0	Go_X	0.0
459.959	1.0	go	0.0	Go_O	0.0
462.483	0.5	stopsuccess	0.0	Go_X	1.0
465.007	1.0	go	0.942	Go_X	0.0
467.532	1.0	go	0.536	Go_O	0.0
470.056	1.0	go	0.573	Go_O	0.0
472.58	1.0	go	0.63	Go_X	0.0
475.104	1.0	go	0.0	Go_O	0.0
477.628	0.55	stopsuccess	0.0	Go_O	1.0
480.15299999999996	1.0	go	0.694	Go_X	0.0
482.67699999999996	1.0	go	0.703	Go_O	0.0
485.20099999999996	1.0	go	0.0	Go_X	0.0
487.72499999999997	0.6	stopsuccess	0.0	Go_X	1.0
490.24899999999997	1.0	go	0.0	Go_O	0.0
492.77400000000006	0.65	stopsuccess	0.0	Go_O	1.0
495.29800000000006	1.0	go	0.602	Go_X	0.0
497.82200000000006	1.0	go	0.0	Go_X	0.0
500.34600000000006	1.0	go	0.0	Go_O	0.0
502.87000000000006	1.0	go	0.926	Go_O	1.0
505.39500000000004	1.0	go	0.0	Go_X	0.0
507.91900000000004	1.0	go	0.0	Go_X	0.0
510.44300000000004	1.0	go	0.765	Go_O	0.0
512.9670000000001	0.7	stopsuccess	0.0	Go_X	1.0
515.491	1.0	go	0.597	Go_X	0.0
518.0160000000001	1.0	go	0.0	Go_O	0.0
520.54	1.0	go	0.0	Go_X	0.0
523.0640000000001	1.0	go	0.0	Go_O	0.0
525.588	0.75	stopsuccess	0.0	Go_O	1.0
528.1120000000001	1.0	go	0.0	Go_X	0.0
530.636	0.8	stopsuccess	0.0	Go_X	1.0
533.1610000000001	1.0	go	0.0	Go_O	0.0
535.685	1.0	go	0.0	Go_X	0.0
538.2090000000001	0.85	stopfail	0.37	Go_O	0.0
540.733	1.0	go	0.526	Go_O	0.0
543.2570000000001	1.0	go	0.559	Go_O	0.0
545.7819999999999	1.0	go	0.556	Go_X	0.0
548.306	1.0	go	0.691	Go_O	0.0
550.8299999999999	1.0	go	0.923	Go_X	0.0
553.354	1.0	go	0.0	Go_O	0.0
555.8779999999999	1.0	go	0.0	Go_X	0.0
558.403	1.0	go	0.0	Go_X	0.0
560.9269999999999	1.0	go	0.0	Go_O	0.0
563.451	1.0	go	0.238	Go_X	0.0
565.9749999999999	0.8	stopfail	0.626	Go_X	0.0
568.499	1.0	go	0.0	Go_O	0.0
571.0239999999999	1.0	go	0.0	Go_X	0.0
573.548	0.75	stopsuccess	0.0	Go_O	1.0
576.0719999999999	1.0	go	0.797	Go_O	0.0
578.596	0.8	stopsuccess	0.0	Go_X	1.0
581.1199999999999	1.0	go	0.0	Go_X	0.0
583.645	1.0	go	0.0	Go_O	0.0
586.1689999999999	0.85	stopsuccess	0.0	Go_O	1.0
588.693	1.0	go	0.0	Go_X	0.0
591.2169999999999	0.9	stopfail	0.525	Go_X	0.0
593.741	1.0	go	0.831	Go_O	0.0
596.2649999999999	1.0	go	0.0	Go_O	0.0
598.79	1.0	go	0.0	Go_X	0.0
601.3139999999999	0.85	stopsuccess	0.0	Go_O	1.0
603.838	1.0	go	0.0	Go_O	0.0
606.3619999999999	1.0	go	0.0	Go_X	0.0
608.886	1.0	go	0.0	Go_X	0.0
611.4110000000001	1.0	go	0.673	Go_O	0.0
613.935	0.9	stopsuccess	0.0	Go_X	1.0
616.4590000000001	1.0	go	0.0	Go_O	0.0
618.983	1.0	go	0.0	Go_X	0.0
621.5070000000001	0.95	stopsuccess	0.0	Go_O	1.0
624.0319999999999	1.0	go	0.0	Go_O	0.0
626.556	1.0	go	0.0	Go_X	0.0
629.0799999999999	1.0	go	0.0	Go_X	0.0
631.604	1.0	go	0.0	Go_O	0.0
634.1279999999999	1.0	stopsuccess	0.0	Go_X	1.0
636.6689999999999	1.0	go	0.0	Go_O	0.0
639.193	1.05	stopsuccess	0.0	Go_O	1.0
641.7849999999999	1.0	go	0.0	Go_X	0.0
644.309	1.0	go	0.0	Go_O	0.0
646.8329999999999	1.1	stopfail	0.87	Go_X	0.0
649.4739999999999	1.0	go	0.0	Go_X	0.0
651.998	1.0	go	0.0	Go_O	0.0
654.5229999999999	1.0	go	0.0	Go_X	0.0
657.047	1.0	go	0.835	Go_X	0.0
659.5709999999999	1.05	stopsuccess	0.0	Go_O	1.0
662.162	1.0	go	0.0	Go_O	0.0
664.6859999999999	1.1	stopsuccess	0.0	Go_X	1.0
667.327	1.0	go	0.0	Go_X	0.0
669.8519999999999	1.0	go	0.0	Go_O	0.0
672.376	1.0	go	0.833	Go_O	0.0
674.8999999999999	1.0	go	0.0	Go_X	0.0
677.424	1.0	go	0.0	Go_O	0.0
679.9479999999999	1.0	go	0.0	Go_X	0.0
682.473	1.15	stopsuccess	0.0	Go_O	1.0
685.164	1.0	go	0.0	Go_X	0.0
687.6879999999999	1.0	go	0.0	Go_O	0.0
690.212	1.2	stopsuccess	0.0	Go_X	1.0
692.954	1.0	go	0.0	Go_X	0.0
695.4780000000001	1.0	go	0.0	Go_O	0.0
698.002	1.25	stopsuccess	0.0	Go_O	1.0
700.7939999999999	1.0	go	0.0	Go_O	0.0
703.318	1.0	go	0.0	Go_X	0.0
705.8419999999999	1.0	go	0.0	Go_X	0.0
708.366	1.0	go	0.0	Go_O	0.0
710.8909999999998	1.3	stopsuccess	0.0	Go_X	1.0
713.732	1.0	go	0.0	Go_X	0.0
716.2570000000001	1.35	stopsuccess	0.0	Go_O	1.0
719.1489999999999	1.0	go	0.0	Go_O	0.0
721.673	1.0	go	0.0	Go_X	0.0
724.1969999999999	1.0	go	0.908	Go_O	0.0
726.721	1.0	go	0.0	Go_X	0.0
729.2449999999999	1.0	go	0.0	Go_O	0.0
731.769	1.4	stopsuccess	0.0	Go_X	1.0
734.712	1.0	go	0.0	Go_O	0.0
737.2359999999999	1.0	go	0.907	Go_X	0.0
739.76	1.45	stopsuccess	0.0	Go_O	1.0
742.752	1.5	stopsuccess	0.0	Go_X	1.0
745.7949999999998	1.0	go	0.0	Go_X	0.0
748.319	1.0	go	0.0	Go_O	0.0
750.8429999999998	1.0	go	0.0	Go_O	0.0
753.367	1.0	go	0.0	Go_X	0.0
755.8909999999998	1.55	stopsuccess	0.0	Go_O	1.0
758.9839999999999	1.0	go	0.0	Go_X	0.0
