onset	duration	trial_type	response_time	stim_file	accuracy
552.52	1.0	go	0.638	Go_X	1.0
555.045	1.0	go	0.311	Go_O	1.0
557.569	1.0	go	0.518	Go_O	1.0
560.093	1.0	go	0.299	Go_X	1.0
562.634	1.0	go	0.301	Go_O	1.0
565.158	1.0	go	0.281	Go_X	1.0
567.682	0.25	stop	0.281	Go_O	0.0
570.206	1.0	go	0.384	Go_X	1.0
572.731	0.2	stop	0.367	Go_X	0.0
575.255	1.0	go	0.296	Go_O	1.0
577.779	1.0	go	0.401	Go_X	1.0
580.303	1.0	go	0.38	Go_O	1.0
582.827	0.15	stop	0.0	Go_O	1.0
585.352	1.0	go	0.396	Go_O	1.0
587.876	1.0	go	0.443	Go_X	1.0
590.417	0.2	stop	0.373	Go_X	0.0
592.958	0.15	stop	0.0	Go_O	1.0
595.499	1.0	go	0.363	Go_O	1.0
598.023	1.0	go	0.354	Go_X	1.0
600.547	0.2	stop	0.0	Go_X	1.0
603.071	1.0	go	0.3	Go_O	1.0
605.595	1.0	go	0.513	Go_X	1.0
608.119	0.25	stop	0.36	Go_O	0.0
610.644	1.0	go	0.411	Go_O	1.0
613.168	1.0	go	0.457	Go_X	1.0
615.692	0.2	stop	0.0	Go_X	1.0
618.216	1.0	go	0.372	Go_X	0.0
620.74	1.0	go	0.359	Go_O	1.0
623.265	0.25	stop	0.0	Go_O	1.0
625.789	1.0	go	0.429	Go_O	1.0
628.33	1.0	go	0.395	Go_X	1.0
630.854	1.0	go	0.486	Go_X	1.0
633.378	1.0	go	0.43	Go_O	1.0
635.902	1.0	go	0.43	Go_X	1.0
638.426	0.3	stop	0.36	Go_X	0.0
640.951	1.0	go	0.399	Go_O	1.0
643.475	1.0	go	0.451	Go_X	1.0
645.999	1.0	go	0.487	Go_O	1.0
648.523	1.0	go	0.412	Go_O	1.0
651.047	1.0	go	0.571	Go_X	1.0
653.572	0.25	stop	0.0	Go_O	1.0
656.113	1.0	go	0.499	Go_O	1.0
658.637	1.0	go	0.41	Go_X	1.0
661.178	1.0	go	0.418	Go_O	1.0
663.702	1.0	go	0.42	Go_X	1.0
666.226	1.0	go	0.567	Go_X	1.0
668.75	1.0	go	0.482	Go_O	1.0
671.291	0.3	stop	0.445	Go_X	0.0
673.815	1.0	go	0.557	Go_X	1.0
676.34	1.0	go	0.442	Go_O	1.0
678.864	0.25	stop	0.409	Go_O	0.0
681.405	1.0	go	0.477	Go_O	1.0
683.929	0.2	stop	0.0	Go_X	1.0
686.47	0.25	stop	0.0	Go_O	1.0
688.994	1.0	go	0.376	Go_X	1.0
691.518	1.0	go	0.493	Go_X	1.0
694.042	1.0	go	0.466	Go_O	1.0
696.567	1.0	go	0.491	Go_X	1.0
699.091	0.3	stop	0.452	Go_X	0.0
701.615	1.0	go	0.425	Go_O	1.0
704.139	0.25	stop	0.0	Go_O	1.0
706.68	1.0	go	0.465	Go_O	1.0
709.204	1.0	go	0.574	Go_X	1.0
711.728	1.0	go	0.673	Go_X	1.0
714.253	1.0	go	0.559	Go_O	1.0
716.777	1.0	go	0.529	Go_O	1.0
719.301	1.0	go	0.423	Go_X	1.0
721.842	1.0	go	0.632	Go_X	1.0
724.366	1.0	go	0.428	Go_O	1.0
726.89	1.0	go	0.46	Go_O	1.0
729.431	0.3	stop	0.47	Go_X	0.0
731.955	1.0	go	0.475	Go_X	1.0
734.48	1.0	go	0.487	Go_X	1.0
737.02	1.0	go	0.63	Go_O	1.0
739.545	0.25	stop	0.0	Go_O	1.0
742.086	1.0	go	0.438	Go_X	1.0
744.61	1.0	go	0.597	Go_O	1.0
747.134	1.0	go	0.409	Go_X	1.0
749.675	1.0	go	0.63	Go_O	1.0
752.199	1.0	go	0.484	Go_O	1.0
754.723	1.0	go	0.454	Go_X	1.0
757.247	0.3	stop	0.433	Go_X	0.0
759.772	1.0	go	0.489	Go_O	1.0
762.313	1.0	go	0.446	Go_X	1.0
764.837	0.25	stop	0.0	Go_O	1.0
767.361	1.0	go	0.48	Go_O	1.0
769.885	1.0	go	0.534	Go_X	1.0
772.409	0.3	stop	0.497	Go_X	0.0
774.934	1.0	go	0.622	Go_X	1.0
777.458	0.25	stop	0.463	Go_O	0.0
779.999	1.0	go	0.491	Go_O	0.0
782.523	1.0	go	0.547	Go_X	1.0
785.047	1.0	go	0.427	Go_O	1.0
787.571	1.0	go	0.511	Go_O	1.0
790.095	1.0	go	0.552	Go_X	1.0
792.62	0.2	stop	0.0	Go_X	1.0
795.16	0.25	stop	0.0	Go_O	1.0
797.685	1.0	go	0.498	Go_X	1.0
800.209	1.0	go	0.515	Go_O	1.0
802.733	0.3	stop	0.579	Go_X	0.0
805.257	1.0	go	0.547	Go_O	1.0
807.781	1.0	go	0.454	Go_X	1.0
810.306	1.0	go	0.496	Go_O	1.0
812.83	1.0	go	0.604	Go_X	1.0
815.354	1.0	go	0.539	Go_X	1.0
817.878	1.0	go	0.56	Go_O	1.0
820.402	0.25	stop	0.454	Go_O	0.0
822.927	1.0	go	0.541	Go_O	1.0
825.451	1.0	go	0.472	Go_X	1.0
827.975	1.0	go	0.752	Go_X	1.0
830.499	1.0	go	0.549	Go_O	1.0
833.023	1.0	go	0.4	Go_O	1.0
835.564	0.2	stop	0.364	Go_X	0.0
838.088	1.0	go	0.503	Go_X	1.0
840.613	1.0	go	0.578	Go_X	1.0
843.137	1.0	go	0.385	Go_O	1.0
845.661	1.0	go	0.39	Go_O	1.0
848.187	0.15	stop	0.0	Go_O	1.0
850.743	1.0	go	0.554	Go_X	1.0
853.267	1.0	go	0.525	Go_X	1.0
855.791	0.2	stop	0.0	Go_X	1.0
858.332	1.0	go	0.495	Go_O	1.0
860.856	0.25	stop	0.469	Go_O	0.0
863.38	1.0	go	0.554	Go_X	1.0
865.905	1.0	go	0.452	Go_O	1.0
868.446	1.0	go	0.442	Go_X	1.0
870.97	1.0	go	0.609	Go_O	1.0
873.494	1.0	go	0.527	Go_O	1.0
876.018	1.0	go	0.509	Go_X	1.0
878.542	1.0	go	0.511	Go_O	1.0
881.067	0.2	stop	0.0	Go_X	1.0
883.591	1.0	go	0.484	Go_X	1.0
886.115	1.0	go	0.5	Go_X	1.0
888.639	1.0	go	0.874	Go_O	1.0
891.163	0.25	stop	0.0	Go_O	1.0
893.688	1.0	go	0.465	Go_X	1.0
896.228	1.0	go	0.522	Go_O	1.0
898.753	1.0	go	0.552	Go_O	1.0
901.294	1.0	go	0.416	Go_X	1.0
903.834	0.3	stop	0.546	Go_X	0.0
906.359	1.0	go	0.486	Go_X	1.0
908.883	1.0	go	0.681	Go_O	1.0
911.407	0.25	stop	0.0	Go_O	1.0
913.948	1.0	go	0.716	Go_X	1.0
916.472	1.0	go	0.473	Go_O	1.0
918.996	0.3	stop	0.571	Go_X	0.0
921.537	1.0	go	0.549	Go_O	1.0
924.061	1.0	go	0.733	Go_X	1.0
926.586	0.25	stop	0.403	Go_O	0.0
929.11	1.0	go	0.295	Go_X	1.0
931.651	1.0	go	0.407	Go_O	1.0
934.175	1.0	go	0.603	Go_X	1.0
936.699	1.0	go	0.504	Go_O	1.0
939.223	1.0	go	0.393	Go_X	1.0
941.747	1.0	go	0.0	Go_O	0.0
944.272	0.2	stop	0.339	Go_X	0.0
946.813	1.0	go	0.426	Go_X	1.0
949.337	0.15	stop	0.0	Go_O	1.0
951.878	1.0	go	0.448	Go_O	1.0
954.402	1.0	go	0.471	Go_X	1.0
956.926	1.0	go	0.628	Go_O	1.0
959.45	1.0	go	0.454	Go_O	1.0
961.974	1.0	go	0.444	Go_X	1.0
964.499	0.2	stop	0.0	Go_X	1.0
967.04	1.0	go	0.568	Go_X	1.0
969.564	1.0	go	0.722	Go_O	1.0
972.088	1.0	go	0.451	Go_O	1.0
974.612	0.25	stop	0.0	Go_O	1.0
977.153	0.3	stop	0.585	Go_X	0.0
979.694	0.25	stop	0.0	Go_O	1.0
982.218	1.0	go	0.36	Go_X	1.0
984.742	0.3	stop	0.402	Go_X	0.0
987.283	1.0	go	0.435	Go_O	1.0
989.807	1.0	go	0.463	Go_X	1.0
992.332	1.0	go	0.383	Go_O	1.0
994.856	1.0	go	0.495	Go_X	1.0
997.38	1.0	go	0.481	Go_X	1.0
999.921	1.0	go	0.874	Go_O	1.0
1002.445	1.0	go	0.516	Go_X	1.0
1004.969	1.0	go	0.537	Go_O	1.0
1007.493	0.25	stop	0.444	Go_O	0.0
1010.018	1.0	go	0.438	Go_X	1.0
1012.542	1.0	go	0.57	Go_O	1.0
1015.066	0.2	stop	0.0	Go_X	1.0
1017.59	1.0	go	0.443	Go_X	1.0
1020.115	1.0	go	0.503	Go_O	1.0
1022.639	1.0	go	0.736	Go_X	1.0
1025.163	1.0	go	0.485	Go_O	1.0
1027.687	1.0	go	0.61	Go_X	1.0
1030.211	0.25	stop	0.0	Go_O	1.0
1032.735	1.0	go	0.891	Go_O	1.0
1035.26	1.0	go	0.37	Go_X	1.0
1037.784	1.0	go	0.333	Go_O	1.0
1040.308	0.3	stop	0.0	Go_X	1.0
1042.849	1.0	go	0.401	Go_X	1.0
1045.373	0.35	stop	0.727	Go_O	0.0
1047.897	1.0	go	0.325	Go_O	0.0
1050.422	1.0	go	0.454	Go_O	1.0
1052.946	1.0	go	0.536	Go_X	1.0
1055.47	1.0	go	0.576	Go_O	1.0
1058.011	1.0	go	0.889	Go_X	1.0
1060.535	1.0	go	0.46	Go_X	1.0
1063.059	1.0	go	0.536	Go_O	1.0
1065.583	0.3	stop	0.0	Go_X	1.0
1068.108	1.0	go	0.484	Go_X	1.0
1070.648	1.0	go	0.541	Go_O	1.0
1073.173	1.0	go	0.691	Go_O	1.0
1075.697	1.0	go	0.495	Go_X	1.0
1078.221	0.35	stop	0.666	Go_O	0.0
1080.745	1.0	go	0.604	Go_O	1.0
1083.269	0.3	stop	0.0	Go_X	1.0
1085.794	1.0	go	0.489	Go_X	1.0
1088.335	1.0	go	0.739	Go_O	1.0
1090.859	0.35	stop	0.427	Go_O	0.0
1093.383	1.0	go	0.608	Go_X	1.0
1095.907	1.0	go	0.524	Go_O	1.0
1098.431	1.0	go	0.544	Go_X	1.0
1100.955	1.0	go	0.546	Go_X	1.0
1103.496	1.0	go	0.514	Go_O	1.0
1106.021	1.0	go	0.49	Go_X	1.0
1108.562	1.0	go	0.587	Go_O	1.0
1111.086	1.0	go	0.506	Go_X	0.0
1113.61	1.0	go	0.58	Go_O	1.0
1116.134	1.0	go	0.401	Go_X	1.0
1118.658	0.3	stop	0.342	Go_X	0.0
1121.182	1.0	go	0.641	Go_O	1.0
1123.707	1.0	go	0.523	Go_O	1.0
1126.231	0.25	stop	0.0	Go_O	1.0
1128.755	1.0	go	0.421	Go_X	1.0
1131.279	0.3	stop	0.0	Go_X	1.0
1133.803	1.0	go	0.38	Go_O	1.0
1136.328	1.0	go	0.515	Go_X	1.0
1138.868	0.35	stop	0.526	Go_O	0.0
1141.393	1.0	go	0.508	Go_O	1.0
1143.917	0.3	stop	0.415	Go_X	0.0
1146.458	1.0	go	0.731	Go_X	1.0
1148.999	1.0	go	0.434	Go_O	1.0
1151.523	1.0	go	0.416	Go_X	1.0
1154.047	0.25	stop	0.0	Go_O	1.0
1156.571	1.0	go	0.465	Go_O	1.0
1159.095	1.0	go	0.64	Go_X	1.0
1161.62	1.0	go	0.423	Go_X	1.0
1164.144	1.0	go	0.765	Go_O	1.0
1166.668	0.3	stop	0.0	Go_X	1.0
1169.209	1.0	go	0.703	Go_X	1.0
1171.733	1.0	go	0.46	Go_O	1.0
1174.257	0.35	stop	0.0	Go_O	1.0
1176.782	1.0	go	0.0	Go_X	0.0
1179.306	1.0	go	0.444	Go_O	0.0
1181.847	1.0	go	0.453	Go_O	1.0
1184.371	1.0	go	0.413	Go_X	1.0
1186.895	0.4	stop	0.482	Go_X	0.0
1189.419	1.0	go	0.685	Go_X	1.0
1191.943	0.35	stop	0.654	Go_O	0.0
1194.468	1.0	go	0.86	Go_O	1.0
1196.992	1.0	go	0.381	Go_O	1.0
1199.533	0.3	stop	0.548	Go_X	0.0
1202.074	1.0	go	0.406	Go_X	1.0
1204.598	1.0	go	0.459	Go_X	1.0
1207.122	1.0	go	0.628	Go_O	1.0
1209.646	1.0	go	0.532	Go_O	1.0
1212.187	0.25	stop	0.444	Go_O	0.0
1214.711	1.0	go	0.0	Go_X	0.0
1217.235	0.2	stop	0.292	Go_X	0.0
1219.76	1.0	go	0.341	Go_X	1.0
1222.301	1.0	go	0.399	Go_O	1.0
1224.825	1.0	go	0.324	Go_O	1.0
1227.349	1.0	go	0.405	Go_X	1.0
1229.873	1.0	go	0.358	Go_X	1.0
1232.397	1.0	go	0.293	Go_O	1.0
1234.922	0.15	stop	0.285	Go_O	0.0
1237.446	1.0	go	0.218	Go_X	1.0
1239.97	1.0	go	0.405	Go_O	1.0
1242.494	0.1	stop	0.0	Go_X	1.0
1245.018	1.0	go	0.392	Go_X	1.0
1247.542	1.0	go	0.299	Go_O	1.0
1250.067	0.15	stop	0.316	Go_O	0.0
1252.591	1.0	go	0.327	Go_O	1.0
1255.115	1.0	go	0.425	Go_X	1.0
1257.656	1.0	go	0.508	Go_X	1.0
1260.18	1.0	go	0.319	Go_O	1.0
1262.721	0.1	stop	0.0	Go_X	1.0
1265.245	1.0	go	0.408	Go_X	1.0
1267.769	0.15	stop	0.317	Go_O	0.0
1270.294	1.0	go	0.374	Go_O	1.0
1272.818	1.0	go	0.38	Go_O	1.0
1275.342	1.0	go	0.437	Go_X	1.0
1277.866	1.0	go	0.517	Go_O	1.0
1280.39	1.0	go	0.368	Go_X	1.0
1282.915	0.1	stop	0.0	Go_X	1.0
1285.456	1.0	go	0.402	Go_X	1.0
1287.98	1.0	go	0.428	Go_O	1.0
1290.521	0.15	stop	0.0	Go_O	1.0
1293.045	0.2	stop	0.355	Go_X	0.0
1295.569	1.0	go	0.384	Go_X	1.0
1298.093	1.0	go	0.31	Go_O	1.0
1300.617	1.0	go	0.387	Go_O	1.0
1303.142	1.0	go	0.359	Go_X	1.0
1305.666	0.15	stop	0.362	Go_O	0.0
1308.207	1.0	go	0.39	Go_X	1.0
