frame	onset	duration	trial_type	event_type	response_type	response_time	stim_file	accuracy
0	62.292		loss-reward	ImageDisplay1		0.0		
0	64.525	0.75	loss-reward	StartDisplay				
0	65.275		loss-reward	ImageDisplay2		0.0		
0	68.275	1.6	loss-reward	ChoiceDisplay	1	0.387	1	1
0	68.675	1.213	loss-reward	ChosenDisplay		0.0		
0	69.875	0.25	loss-reward	TurnDisplay				
0	70.125	0.75	loss-reward	OutcomeDisplay				
1	70.875		win-reward	ImageDisplay1		0.0		
1	72.875	0.75	win-reward	StartDisplay				
1	73.625		win-reward	ImageDisplay2		0.0		
1	76.875	1.6	win-reward	ChoiceDisplay	1	0.626	1	1
1	77.525	0.974	win-reward	ChosenDisplay		0.0		
1	78.475	0.25	win-reward	TurnDisplay				
1	78.725	0.75	win-reward	OutcomeDisplay				
2	79.474		win-reward	ImageDisplay1		0.0		
2	81.474	0.75	win-reward	StartDisplay				
2	82.224		win-reward	ImageDisplay2		0.0		
2	85.474	1.6	win-reward	ChoiceDisplay	1	0.626	1	1
2	86.124	0.974	win-reward	ChosenDisplay		0.0		
2	87.074	0.25	win-reward	TurnDisplay				
2	87.324	0.75	win-reward	OutcomeDisplay				
3	88.074		loss-reward	ImageDisplay1		0.0		
3	90.324	0.75	loss-reward	StartDisplay				
3	91.074		loss-reward	ImageDisplay2		0.0		
3	94.074	1.6	loss-reward	ChoiceDisplay	1	0.533	1	1
3	94.624	1.067	loss-reward	ChosenDisplay		0.0		
3	95.674	0.25	loss-reward	TurnDisplay				
3	95.924	0.75	loss-reward	OutcomeDisplay				
4	96.674		win-reward	ImageDisplay1		0.0		
4	98.924	0.75	win-reward	StartDisplay				
4	99.674		win-reward	ImageDisplay2		0.0		
4	102.674	1.6	win-reward	ChoiceDisplay	1	0.493	1	1
4	103.19	1.107	win-reward	ChosenDisplay		0.0		
4	104.274	0.25	win-reward	TurnDisplay				
4	104.524	0.75	win-reward	OutcomeDisplay				
5	105.273		loss-reward	ImageDisplay1		0.0		
5	107.273	0.75	loss-reward	StartDisplay				
5	108.023		loss-reward	ImageDisplay2		0.0		
5	111.273	1.6	loss-reward	ChoiceDisplay	1	0.513	1	1
5	111.807	1.087	loss-reward	ChosenDisplay		0.0		
5	112.873	0.25	loss-reward	TurnDisplay				
5	113.123	0.75	loss-reward	OutcomeDisplay				
6	113.873		win-noreward	ImageDisplay1		0.0		
6	115.873	0.75	win-noreward	StartDisplay				
6	116.623		win-noreward	ImageDisplay2		0.0		
6	119.873	1.6	win-noreward	ChoiceDisplay	1	0.675	1	1
6	120.573	0.925	win-noreward	ChosenDisplay		0.0		
6	121.473	0.25	win-noreward	TurnDisplay				
6	121.723	0.75	win-noreward	OutcomeDisplay				
7	122.473		control-reward	ImageDisplay1		0.0		
7	124.473	0.75	control-reward	StartDisplay				
7	125.223		control-reward	ImageDisplay2		0.0		
7	128.473	1.6	control-reward	ChoiceDisplay	1	0.644	1	1
7	129.139	0.956	control-reward	ChosenDisplay		0.0		
7	130.072	0.25	control-reward	TurnDisplay				
7	130.322	0.75	control-reward	OutcomeDisplay				
8	131.072		loss-noreward	ImageDisplay1		0.0		
8	133.072	0.75	loss-noreward	StartDisplay				
8	133.822		loss-noreward	ImageDisplay2		0.0		
8	137.072	1.6	loss-noreward	ChoiceDisplay	1	0.466	1	1
8	137.556	1.134	loss-noreward	ChosenDisplay		0.0		
8	138.672	0.25	loss-noreward	TurnDisplay				
8	138.922	0.75	loss-noreward	OutcomeDisplay				
9	139.672		win-noreward	ImageDisplay1		0.0		
9	141.922	0.75	win-noreward	StartDisplay				
9	142.672		win-noreward	ImageDisplay2		0.0		
9	145.672	1.6	win-noreward	ChoiceDisplay	1	0.68	1	1
9	146.372	0.92	win-noreward	ChosenDisplay		0.0		
9	147.272	0.25	win-noreward	TurnDisplay				
9	147.522	0.75	win-noreward	OutcomeDisplay				
10	148.272		loss-noreward	ImageDisplay1		0.0		
10	150.272	0.75	loss-noreward	StartDisplay				
10	151.022		loss-noreward	ImageDisplay2		0.0		
10	154.272	1.6	loss-noreward	ChoiceDisplay	1	0.308	1	1
10	154.605	1.292	loss-noreward	ChosenDisplay		0.0		
10	155.871	0.25	loss-noreward	TurnDisplay				
10	156.121	0.75	loss-noreward	OutcomeDisplay				
11	156.871		loss-reward	ImageDisplay1		0.0		
11	158.871	0.75	loss-reward	StartDisplay				
11	159.621		loss-reward	ImageDisplay2		0.0		
11	162.871	1.6	loss-reward	ChoiceDisplay	1	0.526	1	1
11	163.421	1.074	loss-reward	ChosenDisplay		0.0		
11	164.471	0.25	loss-reward	TurnDisplay				
11	164.721	0.75	loss-reward	OutcomeDisplay				
12	165.471		win-noreward	ImageDisplay1		0.0		
12	167.721	0.75	win-noreward	StartDisplay				
12	168.471		win-noreward	ImageDisplay2		0.0		
12	171.471	1.6	win-noreward	ChoiceDisplay	1	0.264	1	1
12	171.754	1.336	win-noreward	ChosenDisplay		0.0		
12	173.071	0.25	win-noreward	TurnDisplay				
12	173.321	0.75	win-noreward	OutcomeDisplay				
13	174.071		win-reward	ImageDisplay1		0.0		
13	176.321	0.75	win-reward	StartDisplay				
13	177.071		win-reward	ImageDisplay2		0.0		
13	180.07	1.6	win-reward	ChoiceDisplay	1	0.43	1	1
13	180.52	1.17	win-reward	ChosenDisplay		0.0		
13	181.67	0.25	win-reward	TurnDisplay				
13	181.92	0.75	win-reward	OutcomeDisplay				
14	182.67		loss-noreward	ImageDisplay1		0.0		
14	184.92	0.75	loss-noreward	StartDisplay				
14	185.67		loss-noreward	ImageDisplay2		0.0		
14	188.67	1.6	loss-noreward	ChoiceDisplay	1	0.496	1	1
14	189.187	1.104	loss-noreward	ChosenDisplay		0.0		
14	190.27	0.25	loss-noreward	TurnDisplay				
14	190.52	0.75	loss-noreward	OutcomeDisplay				
15	191.27		control-noreward	ImageDisplay1		0.0		
15	193.27	0.75	control-noreward	StartDisplay				
15	194.02		control-noreward	ImageDisplay2		0.0		
15	197.27	1.6	control-noreward	ChoiceDisplay	1	0.292	1	1
15	197.586	1.308	control-noreward	ChosenDisplay		0.0		
15	198.87	0.25	control-noreward	TurnDisplay				
15	199.12	0.75	control-noreward	OutcomeDisplay				
16	199.87		loss-reward	ImageDisplay1		0.0		
16	202.12	0.75	loss-reward	StartDisplay				
16	202.87		loss-reward	ImageDisplay2		0.0		
16	205.869	1.6	loss-reward	ChoiceDisplay	1	0.657	1	1
16	206.553	0.943	loss-reward	ChosenDisplay		0.0		
16	207.469	0.25	loss-reward	TurnDisplay				
16	207.719	0.75	loss-reward	OutcomeDisplay				
17	208.469		loss-noreward	ImageDisplay1		0.0		
17	210.719	0.75	loss-noreward	StartDisplay				
17	211.469		loss-noreward	ImageDisplay2		0.0		
17	214.469	1.6	loss-noreward	ChoiceDisplay	1	0.46	1	1
17	214.952	1.14	loss-noreward	ChosenDisplay		0.0		
17	216.069	0.25	loss-noreward	TurnDisplay				
17	216.319	0.75	loss-noreward	OutcomeDisplay				
18	217.069		loss-noreward	ImageDisplay1		0.0		
18	219.069	0.75	loss-noreward	StartDisplay				
18	219.819		loss-noreward	ImageDisplay2		0.0		
18	223.069	1.6	loss-noreward	ChoiceDisplay	1	0.283	1	1
18	223.369	1.317	loss-noreward	ChosenDisplay		0.0		
18	224.669	0.25	loss-noreward	TurnDisplay				
18	224.919	0.75	loss-noreward	OutcomeDisplay				
19	225.669		win-noreward	ImageDisplay1		0.0		
19	227.919	0.75	win-noreward	StartDisplay				
19	228.669		win-noreward	ImageDisplay2		0.0		
19	231.668	1.6	win-noreward	ChoiceDisplay	1	0.898	1	1
19	232.585	0.702	win-noreward	ChosenDisplay		0.0		
19	233.268	0.25	win-noreward	TurnDisplay				
19	233.518	0.75	win-noreward	OutcomeDisplay				
20	234.268		loss-reward	ImageDisplay1		0.0		
20	236.268	0.75	loss-reward	StartDisplay				
20	237.018		loss-reward	ImageDisplay2		0.0		
20	240.268	1.6	loss-reward	ChoiceDisplay	1	0.369	1	1
20	240.651	1.231	loss-reward	ChosenDisplay		0.0		
20	241.868	0.25	loss-reward	TurnDisplay				
20	242.118	0.75	loss-reward	OutcomeDisplay				
21	242.868		control-noreward	ImageDisplay1		0.0		
21	244.868	0.75	control-noreward	StartDisplay				
21	245.618		control-noreward	ImageDisplay2		0.0		
21	248.868	1.6	control-noreward	ChoiceDisplay	1	0.468	1	1
21	249.351	1.132	control-noreward	ChosenDisplay		0.0		
21	250.468	0.25	control-noreward	TurnDisplay				
21	250.718	0.75	control-noreward	OutcomeDisplay				
22	251.468		loss-reward	ImageDisplay1		0.0		
22	253.468	0.75	loss-reward	StartDisplay				
22	254.218		loss-reward	ImageDisplay2		0.0		
22	257.467	1.6	loss-reward	ChoiceDisplay	1	0.207	1	1
22	257.701	1.393	loss-reward	ChosenDisplay		0.0		
22	259.067	0.25	loss-reward	TurnDisplay				
22	259.317	0.75	loss-reward	OutcomeDisplay				
23	260.067		win-reward	ImageDisplay1		0.0		
23	262.317	0.75	win-reward	StartDisplay				
23	263.067		win-reward	ImageDisplay2		0.0		
23	266.067	1.6	win-reward	ChoiceDisplay	1	0.247	1	1
23	266.334	1.353	win-reward	ChosenDisplay		0.0		
23	267.667	0.25	win-reward	TurnDisplay				
23	267.917	0.75	win-reward	OutcomeDisplay				
24	268.667		win-reward	ImageDisplay1		0.0		
24	270.667	0.75	win-reward	StartDisplay				
24	271.417		win-reward	ImageDisplay2		0.0		
24	274.667	1.6	win-reward	ChoiceDisplay	1	0.483	1	1
24	275.167	1.117	win-reward	ChosenDisplay		0.0		
24	276.267	0.25	win-reward	TurnDisplay				
24	276.517	0.75	win-reward	OutcomeDisplay				
25	277.267		win-noreward	ImageDisplay1		0.0		
25	279.267	0.75	win-noreward	StartDisplay				
25	280.016		win-noreward	ImageDisplay2		0.0		
25	283.266	1.6	win-noreward	ChoiceDisplay	1	0.287	1	1
25	283.566	1.313	win-noreward	ChosenDisplay		0.0		
25	284.866	0.25	win-noreward	TurnDisplay				
25	285.116	0.75	win-noreward	OutcomeDisplay				
26	285.866		control-reward	ImageDisplay1		0.0		
26	287.866	0.75	control-reward	StartDisplay				
26	288.616		control-reward	ImageDisplay2		0.0		
26	291.866	1.6	control-reward	ChoiceDisplay	1	0.539	1	1
26	292.433	1.061	control-reward	ChosenDisplay		0.0		
26	293.466	0.25	control-reward	TurnDisplay				
26	293.716	0.75	control-reward	OutcomeDisplay				
27	294.466		loss-noreward	ImageDisplay1		0.0		
27	296.466	0.75	loss-noreward	StartDisplay				
27	297.216		loss-noreward	ImageDisplay2		0.0		
27	300.466	1.6	loss-noreward	ChoiceDisplay	1	0.446	1	1
27	300.932	1.154	loss-noreward	ChosenDisplay		0.0		
27	302.066	0.25	loss-noreward	TurnDisplay				
27	302.316	0.75	loss-noreward	OutcomeDisplay				
28	303.066		win-reward	ImageDisplay1		0.0		
28	305.065	0.75	win-reward	StartDisplay				
28	305.815		win-reward	ImageDisplay2		0.0		
28	309.065	1.6	win-reward	ChoiceDisplay	1	0.718	1	1
28	309.799	0.882	win-reward	ChosenDisplay		0.0		
28	310.665	0.25	win-reward	TurnDisplay				
28	310.915	0.75	win-reward	OutcomeDisplay				
29	311.665		loss-noreward	ImageDisplay1		0.0		
29	313.665	0.75	loss-noreward	StartDisplay				
29	314.415		loss-noreward	ImageDisplay2		0.0		
29	317.665	1.6	loss-noreward	ChoiceDisplay	1	0.547	1	1
29	318.232	1.053	loss-noreward	ChosenDisplay		0.0		
29	319.265	0.25	loss-noreward	TurnDisplay				
29	319.515	0.75	loss-noreward	OutcomeDisplay				
30	320.265		control-noreward	ImageDisplay1		0.0		
30	322.265	0.75	control-noreward	StartDisplay				
30	323.015		control-noreward	ImageDisplay2		0.0		
30	326.265	1.6	control-noreward	ChoiceDisplay	1	0.448	1	1
30	326.731	1.152	control-noreward	ChosenDisplay		0.0		
30	327.865	0.25	control-noreward	TurnDisplay				
30	328.115	0.75	control-noreward	OutcomeDisplay				
31	328.865		control-noreward	ImageDisplay1		0.0		
31	331.114	0.75	control-noreward	StartDisplay				
31	331.864		control-noreward	ImageDisplay2		0.0		
31	334.864	1.6	control-noreward	ChoiceDisplay	1	0.379	1	1
31	335.264	1.221	control-noreward	ChosenDisplay		0.0		
31	336.464	0.25	control-noreward	TurnDisplay				
31	336.714	0.75	control-noreward	OutcomeDisplay				
32	337.464		win-reward	ImageDisplay1		0.0		
32	339.714	0.75	win-reward	StartDisplay				
32	340.464		win-reward	ImageDisplay2		0.0		
32	343.464	1.6	win-reward	ChoiceDisplay	1	0.267	1	1
32	343.747	1.333	win-reward	ChosenDisplay		0.0		
32	345.064	0.25	win-reward	TurnDisplay				
32	345.314	0.75	win-reward	OutcomeDisplay				
33	346.064		loss-reward	ImageDisplay1		0.0		
33	348.314	0.75	loss-reward	StartDisplay				
33	349.064		loss-reward	ImageDisplay2		0.0		
33	352.064	1.6	loss-reward	ChoiceDisplay	1	0.253	1	1
33	352.33	1.347	loss-reward	ChosenDisplay		0.0		
33	353.664	0.25	loss-reward	TurnDisplay				
33	353.914	0.75	loss-reward	OutcomeDisplay				
34	354.664		control-noreward	ImageDisplay1		0.0		
34	356.663	0.75	control-noreward	StartDisplay				
34	357.413		control-noreward	ImageDisplay2		0.0		
34	360.663	1.6	control-noreward	ChoiceDisplay	1	0.532	1	1
34	361.213	1.068	control-noreward	ChosenDisplay		0.0		
34	362.263	0.25	control-noreward	TurnDisplay				
34	362.513	0.75	control-noreward	OutcomeDisplay				
35	363.263		loss-reward	ImageDisplay1		0.0		
35	365.263	0.75	loss-reward	StartDisplay				
35	366.013		loss-reward	ImageDisplay2		0.0		
35	369.263	1.6	loss-reward	ChoiceDisplay	1	0.265	1	1
35	369.546	1.335	loss-reward	ChosenDisplay		0.0		
35	370.863	0.25	loss-reward	TurnDisplay				
35	371.113	0.75	loss-reward	OutcomeDisplay				
36	371.863		loss-reward	ImageDisplay1		0.0		
36	374.113	0.75	loss-reward	StartDisplay				
36	374.863		loss-reward	ImageDisplay2		0.0		
36	377.863	1.6	loss-reward	ChoiceDisplay	1	0.332	1	1
36	378.213	1.268	loss-reward	ChosenDisplay		0.0		
36	379.463	0.25	loss-reward	TurnDisplay				
36	379.712	0.75	loss-reward	OutcomeDisplay				
37	380.462		win-reward	ImageDisplay1		0.0		
37	382.462	0.75	win-reward	StartDisplay				
37	383.212		win-reward	ImageDisplay2		0.0		
37	386.462	1.6	win-reward	ChoiceDisplay	1	0.329	1	1
37	386.812	1.271	win-reward	ChosenDisplay		0.0		
37	388.062	0.25	win-reward	TurnDisplay				
37	388.312	0.75	win-reward	OutcomeDisplay				
38	389.062		win-reward	ImageDisplay1		0.0		
38	391.312	0.75	win-reward	StartDisplay				
38	392.062		win-reward	ImageDisplay2		0.0		
38	395.062	1.6	win-reward	ChoiceDisplay	1	0.259	1	1
38	395.345	1.341	win-reward	ChosenDisplay		0.0		
38	396.662	0.25	win-reward	TurnDisplay				
38	396.912	0.75	win-reward	OutcomeDisplay				
39	397.662		loss-reward	ImageDisplay1		0.0		
39	399.662	0.75	loss-reward	StartDisplay				
39	400.412		loss-reward	ImageDisplay2		0.0		
39	403.662	1.6	loss-reward	ChoiceDisplay	1	0.397	1	1
39	404.078	1.203	loss-reward	ChosenDisplay		0.0		
39	405.262	0.25	loss-reward	TurnDisplay				
39	405.511	0.75	loss-reward	OutcomeDisplay				
40	406.261		win-reward	ImageDisplay1		0.0		
40	408.261	0.75	win-reward	StartDisplay				
40	409.011		win-reward	ImageDisplay2		0.0		
40	412.261	1.6	win-reward	ChoiceDisplay	1	0.274	1	1
40	412.561	1.326	win-reward	ChosenDisplay		0.0		
40	413.861	0.25	win-reward	TurnDisplay				
40	414.111	0.75	win-reward	OutcomeDisplay				
41	414.861		win-noreward	ImageDisplay1		0.0		
41	416.861	0.75	win-noreward	StartDisplay				
41	417.611		win-noreward	ImageDisplay2		0.0		
41	420.861	1.6	win-noreward	ChoiceDisplay	1	0.216	1	1
41	421.094	1.384	win-noreward	ChosenDisplay		0.0		
41	422.461	0.25	win-noreward	TurnDisplay				
41	422.711	0.75	win-noreward	OutcomeDisplay				
42	423.461		loss-noreward	ImageDisplay1		0.0		
42	425.711	0.75	loss-noreward	StartDisplay				
42	426.461		loss-noreward	ImageDisplay2		0.0		
42	429.461	1.6	loss-noreward	ChoiceDisplay	1	0.362	1	1
42	429.844	1.238	loss-noreward	ChosenDisplay		0.0		
42	431.06	0.25	loss-noreward	TurnDisplay				
42	431.31	0.75	loss-noreward	OutcomeDisplay				
43	432.06		loss-reward	ImageDisplay1		0.0		
43	434.31	0.75	loss-reward	StartDisplay				
43	435.06		loss-reward	ImageDisplay2		0.0		
43	438.06	1.6	loss-reward	ChoiceDisplay	1	0.264	1	1
43	438.343	1.336	loss-reward	ChosenDisplay		0.0		
43	439.66	0.25	loss-reward	TurnDisplay				
43	439.91	0.75	loss-reward	OutcomeDisplay				
44	440.66		control-noreward	ImageDisplay1		0.0		
44	442.66	0.75	control-noreward	StartDisplay				
44	443.41		control-noreward	ImageDisplay2		0.0		
44	446.66	1.6	control-noreward	ChoiceDisplay	1	0.519	1	1
44	447.193	1.081	control-noreward	ChosenDisplay		0.0		
44	448.26	0.25	control-noreward	TurnDisplay				
44	448.51	0.75	control-noreward	OutcomeDisplay				
45	449.26		loss-noreward	ImageDisplay1		0.0		
45	451.26	0.75	loss-noreward	StartDisplay				
45	452.01		loss-noreward	ImageDisplay2		0.0		
45	455.259	1.6	loss-noreward	ChoiceDisplay	1	0.24	1	1
45	455.526	1.36	loss-noreward	ChosenDisplay		0.0		
45	456.859	0.25	loss-noreward	TurnDisplay				
45	457.109	0.75	loss-noreward	OutcomeDisplay				
46	457.859		control-reward	ImageDisplay1		0.0		
46	460.109	0.75	control-reward	StartDisplay				
46	460.859		control-reward	ImageDisplay2		0.0		
46	463.859	1.6	control-reward	ChoiceDisplay	1	0.285	1	1
46	464.159	1.315	control-reward	ChosenDisplay		0.0		
46	465.459	0.25	control-reward	TurnDisplay				
46	465.709	0.75	control-reward	OutcomeDisplay				
47	466.459		loss-reward	ImageDisplay1		0.0		
47	468.459	0.75	loss-reward	StartDisplay				
47	469.209		loss-reward	ImageDisplay2		0.0		
47	472.459	1.6	loss-reward	ChoiceDisplay	1	0.406	1	1
47	472.892	1.194	loss-reward	ChosenDisplay		0.0		
47	474.059	0.25	loss-reward	TurnDisplay				
47	474.309	0.75	loss-reward	OutcomeDisplay				
48	475.059		win-reward	ImageDisplay1		0.0		
48	477.309	0.75	win-reward	StartDisplay				
48	478.059		win-reward	ImageDisplay2		0.0		
48	481.058	1.6	win-reward	ChoiceDisplay	1	0.418	1	1
48	481.492	1.182	win-reward	ChosenDisplay		0.0		
48	482.658	0.25	win-reward	TurnDisplay				
48	482.908	0.75	win-reward	OutcomeDisplay				
49	483.658		win-noreward	ImageDisplay1		0.0		
49	485.658	0.75	win-noreward	StartDisplay				
49	486.408		win-noreward	ImageDisplay2		0.0		
49	489.658	1.6	win-noreward	ChoiceDisplay	1	0.358	1	1
49	490.041	1.242	win-noreward	ChosenDisplay		0.0		
49	491.258	0.25	win-noreward	TurnDisplay				
49	491.508	0.75	win-noreward	OutcomeDisplay				
50	492.258		loss-reward	ImageDisplay1		0.0		
50	494.508	0.75	loss-reward	StartDisplay				
50	495.258		loss-reward	ImageDisplay2		0.0		
50	498.258	1.6	loss-reward	ChoiceDisplay	1	0.621	1	1
50	498.891	0.979	loss-reward	ChosenDisplay		0.0		
50	499.858	0.25	loss-reward	TurnDisplay				
50	500.108	0.75	loss-reward	OutcomeDisplay				
51	500.858		control-reward	ImageDisplay1		0.0		
51	502.858	0.75	control-reward	StartDisplay				
51	503.608		control-reward	ImageDisplay2		0.0		
51	506.857	1.6	control-reward	ChoiceDisplay	1	0.452	1	1
51	507.324	1.148	control-reward	ChosenDisplay		0.0		
51	508.457	0.25	control-reward	TurnDisplay				
51	508.707	0.75	control-reward	OutcomeDisplay				
52	509.457		control-noreward	ImageDisplay1		0.0		
52	511.457	0.75	control-noreward	StartDisplay				
52	512.207		control-noreward	ImageDisplay2		0.0		
52	515.457	1.6	control-noreward	ChoiceDisplay	1	0.423	1	1
52	515.907	1.177	control-noreward	ChosenDisplay		0.0		
52	517.057	0.25	control-noreward	TurnDisplay				
52	517.307	0.75	control-noreward	OutcomeDisplay				
53	518.057		control-noreward	ImageDisplay1		0.0		
53	520.307	0.75	control-noreward	StartDisplay				
53	521.057		control-noreward	ImageDisplay2		0.0		
53	524.057	1.6	control-noreward	ChoiceDisplay	1	0.263	1	1
53	524.34	1.337	control-noreward	ChosenDisplay		0.0		
53	525.657	0.25	control-noreward	TurnDisplay				
53	525.907	0.75	control-noreward	OutcomeDisplay				
54	526.657		control-noreward	ImageDisplay1		0.0		
54	528.657	0.75	control-noreward	StartDisplay				
54	529.407		control-noreward	ImageDisplay2		0.0		
54	532.656	1.6	control-noreward	ChoiceDisplay	1	0.434	1	1
54	533.106	1.166	control-noreward	ChosenDisplay		0.0		
54	534.256	0.25	control-noreward	TurnDisplay				
54	534.506	0.75	control-noreward	OutcomeDisplay				
55	535.256		loss-noreward	ImageDisplay1		0.0		
55	537.256	0.75	loss-noreward	StartDisplay				
55	538.006		loss-noreward	ImageDisplay2		0.0		
55	541.256	1.6	loss-noreward	ChoiceDisplay	1	0.417	1	1
55	541.689	1.183	loss-noreward	ChosenDisplay		0.0		
55	542.856	0.25	loss-noreward	TurnDisplay				
55	543.106	0.75	loss-noreward	OutcomeDisplay				
56	543.856		win-noreward	ImageDisplay1		0.0		
56	546.106	0.75	win-noreward	StartDisplay				
56	546.856		win-noreward	ImageDisplay2		0.0		
56	549.856	1.6	win-noreward	ChoiceDisplay	1	0.323	1	1
56	550.206	1.277	win-noreward	ChosenDisplay		0.0		
56	551.456	0.25	win-noreward	TurnDisplay				
56	551.706	0.75	win-noreward	OutcomeDisplay				
57	552.456		win-reward	ImageDisplay1		0.0		
57	554.706	0.75	win-reward	StartDisplay				
57	555.455		win-reward	ImageDisplay2		0.0		
57	558.455	1.6	win-reward	ChoiceDisplay	1	0.439	1	1
57	558.905	1.161	win-reward	ChosenDisplay		0.0		
57	560.055	0.25	win-reward	TurnDisplay				
57	560.305	0.75	win-reward	OutcomeDisplay				
58	561.055		win-noreward	ImageDisplay1		0.0		
58	563.305	0.75	win-noreward	StartDisplay				
58	564.055		win-noreward	ImageDisplay2		0.0		
58	567.055	1.6	win-noreward	ChoiceDisplay	1	0.252	1	1
58	567.322	1.348	win-noreward	ChosenDisplay		0.0		
58	568.655	0.25	win-noreward	TurnDisplay				
58	568.905	0.75	win-noreward	OutcomeDisplay				
59	569.655		control-reward	ImageDisplay1		0.0		
59	571.655	0.75	control-reward	StartDisplay				
59	572.405		control-reward	ImageDisplay2		0.0		
59	575.655	1.6	control-reward	ChoiceDisplay	1	0.256	1	1
59	575.938	1.344	control-reward	ChosenDisplay		0.0		
59	577.255	0.25	control-reward	TurnDisplay				
59	577.505	0.75	control-reward	OutcomeDisplay				
60	578.255		win-noreward	ImageDisplay1		0.0		
60	580.255	0.75	win-noreward	StartDisplay				
60	581.004		win-noreward	ImageDisplay2		0.0		
60	584.254	1.6	win-noreward	ChoiceDisplay	1	0.404	1	1
60	584.671	1.196	win-noreward	ChosenDisplay		0.0		
60	585.854	0.25	win-noreward	TurnDisplay				
60	586.104	0.75	win-noreward	OutcomeDisplay				
61	586.854		win-reward	ImageDisplay1		0.0		
61	588.854	0.75	win-reward	StartDisplay				
61	589.604		win-reward	ImageDisplay2		0.0		
61	592.854	1.6	win-reward	ChoiceDisplay	1	0.324	1	1
61	593.204	1.276	win-reward	ChosenDisplay		0.0		
61	594.454	0.25	win-reward	TurnDisplay				
61	594.704	0.75	win-reward	OutcomeDisplay				
62	595.454		loss-reward	ImageDisplay1		0.0		
62	597.704	0.75	loss-reward	StartDisplay				
62	598.454		loss-reward	ImageDisplay2		0.0		
62	601.454	1.6	loss-reward	ChoiceDisplay	1	0.398	1	1
62	601.87	1.202	loss-reward	ChosenDisplay		0.0		
62	603.054	0.25	loss-reward	TurnDisplay				
62	603.304	0.75	loss-reward	OutcomeDisplay				
63	604.054		win-noreward	ImageDisplay1		0.0		
63	606.303	0.75	win-noreward	StartDisplay				
63	607.053		win-noreward	ImageDisplay2		0.0		
63	610.053	1.6	win-noreward	ChoiceDisplay	1	0.262	1	1
63	610.337	1.338	win-noreward	ChosenDisplay		0.0		
63	611.653	0.25	win-noreward	TurnDisplay				
63	611.903	0.75	win-noreward	OutcomeDisplay				
64	612.653		win-reward	ImageDisplay1		0.0		
64	614.903	0.75	win-reward	StartDisplay				
64	615.653		win-reward	ImageDisplay2		0.0		
64	618.653	1.6	win-reward	ChoiceDisplay	1	0.344	1	1
64	619.02	1.256	win-reward	ChosenDisplay		0.0		
64	620.253	0.25	win-reward	TurnDisplay				
64	620.503	0.75	win-reward	OutcomeDisplay				
65	621.253		control-reward	ImageDisplay1		0.0		
65	623.253	0.75	control-reward	StartDisplay				
65	624.003		control-reward	ImageDisplay2		0.0		
65	627.253	1.6	control-reward	ChoiceDisplay	1	0.274	1	1
65	627.553	1.326	control-reward	ChosenDisplay		0.0		
65	628.853	0.25	control-reward	TurnDisplay				
65	629.103	0.75	control-reward	OutcomeDisplay				
66	629.853		control-reward	ImageDisplay1		0.0		
66	632.102	0.75	control-reward	StartDisplay				
66	632.852		control-reward	ImageDisplay2		0.0		
66	635.852	1.6	control-reward	ChoiceDisplay	1	0.639	1	1
66	636.502	0.961	control-reward	ChosenDisplay		0.0		
66	637.452	0.25	control-reward	TurnDisplay				
66	637.702	0.75	control-reward	OutcomeDisplay				
67	638.452		control-reward	ImageDisplay1		0.0		
67	640.702	0.75	control-reward	StartDisplay				
67	641.452		control-reward	ImageDisplay2		0.0		
67	644.452	1.6	control-reward	ChoiceDisplay	1	0.317	1	1
67	644.785	1.283	control-reward	ChosenDisplay		0.0		
67	646.052	0.25	control-reward	TurnDisplay				
67	646.302	0.75	control-reward	OutcomeDisplay				
68	647.052		win-noreward	ImageDisplay1		0.0		
68	649.052	0.75	win-noreward	StartDisplay				
68	649.802		win-noreward	ImageDisplay2		0.0		
68	653.052	1.6	win-noreward	ChoiceDisplay	1	0.349	1	1
68	653.418	1.251	win-noreward	ChosenDisplay		0.0		
68	654.652	0.25	win-noreward	TurnDisplay				
68	654.902	0.75	win-noreward	OutcomeDisplay				
69	655.651		control-noreward	ImageDisplay1		0.0		
69	657.901	0.75	control-noreward	StartDisplay				
69	658.651		control-noreward	ImageDisplay2		0.0		
69	661.651	1.6	control-noreward	ChoiceDisplay	1	0.44	1	1
69	662.118	1.16	control-noreward	ChosenDisplay		0.0		
69	663.251	0.25	control-noreward	TurnDisplay				
69	663.501	0.75	control-noreward	OutcomeDisplay				
70	664.251		loss-reward	ImageDisplay1		0.0		
70	666.251	0.75	loss-reward	StartDisplay				
70	667.001		loss-reward	ImageDisplay2		0.0		
70	670.251	1.6	loss-reward	ChoiceDisplay	1	0.339	1	1
70	670.618	1.261	loss-reward	ChosenDisplay		0.0		
70	671.851	0.25	loss-reward	TurnDisplay				
70	672.101	0.75	loss-reward	OutcomeDisplay				
71	672.851		control-reward	ImageDisplay1		0.0		
71	675.101	0.75	control-reward	StartDisplay				
71	675.851		control-reward	ImageDisplay2		0.0		
71	678.851	1.6	control-reward	ChoiceDisplay	1	0.473	1	1
71	679.351	1.127	control-reward	ChosenDisplay		0.0		
71	680.45	0.25	control-reward	TurnDisplay				
71	680.7	0.75	control-reward	OutcomeDisplay				
72	681.45		control-reward	ImageDisplay1		0.0		
72	683.45	0.75	control-reward	StartDisplay				
72	684.2		control-reward	ImageDisplay2		0.0		
72	687.45	1.6	control-reward	ChoiceDisplay	1	0.664	1	1
72	688.134	0.936	control-reward	ChosenDisplay		0.0		
72	689.05	0.25	control-reward	TurnDisplay				
72	689.3	0.75	control-reward	OutcomeDisplay				
73	690.05		loss-noreward	ImageDisplay1		0.0		
73	692.3	0.75	loss-noreward	StartDisplay				
73	693.05		loss-noreward	ImageDisplay2		0.0		
73	696.05	1.6	loss-noreward	ChoiceDisplay	1	0.233	1	1
73	696.3	1.367	loss-noreward	ChosenDisplay		0.0		
73	697.65	0.25	loss-noreward	TurnDisplay				
73	697.9	0.75	loss-noreward	OutcomeDisplay				
74	698.65		control-noreward	ImageDisplay1		0.0		
74	700.9	0.75	control-noreward	StartDisplay				
74	701.65		control-noreward	ImageDisplay2		0.0		
74	704.65	1.6	control-noreward	ChoiceDisplay	1	0.583	1	1
74	705.249	1.017	control-noreward	ChosenDisplay		0.0		
74	706.249	0.25	control-noreward	TurnDisplay				
74	706.499	0.75	control-noreward	OutcomeDisplay				
75	707.249		loss-reward	ImageDisplay1		0.0		
75	709.249	0.75	loss-reward	StartDisplay				
75	709.999		loss-reward	ImageDisplay2		0.0		
75	713.249	1.6	loss-reward	ChoiceDisplay	1	0.326	1	1
75	713.599	1.274	loss-reward	ChosenDisplay		0.0		
75	714.849	0.25	loss-reward	TurnDisplay				
75	715.099	0.75	loss-reward	OutcomeDisplay				
76	715.849		loss-noreward	ImageDisplay1		0.0		
76	718.099	0.75	loss-noreward	StartDisplay				
76	718.849		loss-noreward	ImageDisplay2		0.0		
76	721.849	1.6	loss-noreward	ChoiceDisplay	1	0.404	1	1
76	722.265	1.196	loss-noreward	ChosenDisplay		0.0		
76	723.449	0.25	loss-noreward	TurnDisplay				
76	723.699	0.75	loss-noreward	OutcomeDisplay				
77	724.449		control-noreward	ImageDisplay1		0.0		
77	726.699	0.75	control-noreward	StartDisplay				
77	727.449		control-noreward	ImageDisplay2		0.0		
77	730.448	1.6	control-noreward	ChoiceDisplay	1	0.452	1	1
77	730.915	1.148	control-noreward	ChosenDisplay		0.0		
77	732.048	0.25	control-noreward	TurnDisplay				
77	732.298	0.75	control-noreward	OutcomeDisplay				
78	733.048		control-noreward	ImageDisplay1		0.0		
78	735.298	0.75	control-noreward	StartDisplay				
78	736.048		control-noreward	ImageDisplay2		0.0		
78	739.048	1.6	control-noreward	ChoiceDisplay	1	0.475	1	1
78	739.548	1.125	control-noreward	ChosenDisplay		0.0		
78	740.648	0.25	control-noreward	TurnDisplay				
78	740.898	0.75	control-noreward	OutcomeDisplay				
79	741.648		control-reward	ImageDisplay1		0.0		
79	743.898	0.75	control-reward	StartDisplay				
79	744.648		control-reward	ImageDisplay2		0.0		
79	747.648	1.6	control-reward	ChoiceDisplay	1	0.249	1	1
79	747.914	1.351	control-reward	ChosenDisplay		0.0		
79	749.248	0.25	control-reward	TurnDisplay				
79	749.498	0.75	control-reward	OutcomeDisplay				
80	750.248		loss-noreward	ImageDisplay1		0.0		
80	752.498	0.75	loss-noreward	StartDisplay				
80	753.248		loss-noreward	ImageDisplay2		0.0		
80	756.247	1.6	loss-noreward	ChoiceDisplay	1	0.542	1	1
80	756.814	1.058	loss-noreward	ChosenDisplay		0.0		
80	757.847	0.25	loss-noreward	TurnDisplay				
80	758.097	0.75	loss-noreward	OutcomeDisplay				
81	758.847		control-reward	ImageDisplay1		0.0		
81	761.097	0.75	control-reward	StartDisplay				
81	761.847		control-reward	ImageDisplay2		0.0		
81	764.847	1.6	control-reward	ChoiceDisplay	1	0.411	1	1
81	765.28	1.189	control-reward	ChosenDisplay		0.0		
81	766.447	0.25	control-reward	TurnDisplay				
81	766.697	0.75	control-reward	OutcomeDisplay				
82	767.447		control-reward	ImageDisplay1		0.0		
82	769.697	0.75	control-reward	StartDisplay				
82	770.447		control-reward	ImageDisplay2		0.0		
82	773.447	1.6	control-reward	ChoiceDisplay	1	0.492	1	1
82	773.963	1.108	control-reward	ChosenDisplay		0.0		
82	775.047	0.25	control-reward	TurnDisplay				
82	775.297	0.75	control-reward	OutcomeDisplay				
83	776.047		win-reward	ImageDisplay1		0.0		
83	778.047	0.75	win-reward	StartDisplay				
83	778.797		win-reward	ImageDisplay2		0.0		
83	782.046	1.6	win-reward	ChoiceDisplay	1	0.363	1	1
83	782.43	1.237	win-reward	ChosenDisplay		0.0		
83	783.646	0.25	win-reward	TurnDisplay				
83	783.896	0.75	win-reward	OutcomeDisplay				
84	784.646		win-noreward	ImageDisplay1		0.0		
84	786.896	0.75	win-noreward	StartDisplay				
84	787.646		win-noreward	ImageDisplay2		0.0		
84	790.646	1.6	win-noreward	ChoiceDisplay	1	0.548	1	1
84	791.213	1.052	win-noreward	ChosenDisplay		0.0		
84	792.246	0.25	win-noreward	TurnDisplay				
84	792.496	0.75	win-noreward	OutcomeDisplay				
85	793.246		win-reward	ImageDisplay1		0.0		
85	795.496	0.75	win-reward	StartDisplay				
85	796.246		win-reward	ImageDisplay2		0.0		
85	799.246	1.6	win-reward	ChoiceDisplay	1	0.447	1	1
85	799.712	1.153	win-reward	ChosenDisplay		0.0		
85	800.846	0.25	win-reward	TurnDisplay				
85	801.096	0.75	win-reward	OutcomeDisplay				
86	801.846		control-noreward	ImageDisplay1		0.0		
86	804.096	0.75	control-noreward	StartDisplay				
86	804.846		control-noreward	ImageDisplay2		0.0		
86	807.845	1.6	control-noreward	ChoiceDisplay	1	0.449	1	1
86	808.312	1.151	control-noreward	ChosenDisplay		0.0		
86	809.445	0.25	control-noreward	TurnDisplay				
86	809.695	0.75	control-noreward	OutcomeDisplay				
87	810.445		control-noreward	ImageDisplay1		0.0		
87	812.445	0.75	control-noreward	StartDisplay				
87	813.195		control-noreward	ImageDisplay2		0.0		
87	816.445	1.6	control-noreward	ChoiceDisplay	1	0.307	1	1
87	816.778	1.293	control-noreward	ChosenDisplay		0.0		
87	818.045	0.25	control-noreward	TurnDisplay				
87	818.295	0.75	control-noreward	OutcomeDisplay				
88	819.045		control-reward	ImageDisplay1		0.0		
88	821.295	0.75	control-reward	StartDisplay				
88	822.045		control-reward	ImageDisplay2		0.0		
88	825.045	1.6	control-reward	ChoiceDisplay	1	0.381	1	1
88	825.445	1.219	control-reward	ChosenDisplay		0.0		
88	826.645	0.25	control-reward	TurnDisplay				
88	826.895	0.75	control-reward	OutcomeDisplay				
89	827.645		loss-noreward	ImageDisplay1		0.0		
89	829.895	0.75	loss-noreward	StartDisplay				
89	830.645		loss-noreward	ImageDisplay2		0.0		
89	833.644	1.6	loss-noreward	ChoiceDisplay	1	0.334	1	1
89	833.994	1.266	loss-noreward	ChosenDisplay		0.0		
89	835.244	0.25	loss-noreward	TurnDisplay				
89	835.494	0.75	loss-noreward	OutcomeDisplay				
90	836.244		win-reward	ImageDisplay1		0.0		
90	838.244	0.75	win-reward	StartDisplay				
90	838.994		win-reward	ImageDisplay2		0.0		
90	842.244	1.6	win-reward	ChoiceDisplay	1	0.26	1	1
90	842.527	1.34	win-reward	ChosenDisplay		0.0		
90	843.844	0.25	win-reward	TurnDisplay				
90	844.094	0.75	win-reward	OutcomeDisplay				
91	844.844		control-reward	ImageDisplay1		0.0		
91	846.844	0.75	control-reward	StartDisplay				
91	847.594		control-reward	ImageDisplay2		0.0		
91	850.844	1.6	control-reward	ChoiceDisplay	1	0.829	1	1
91	851.694	0.771	control-reward	ChosenDisplay		0.0		
91	852.444	0.25	control-reward	TurnDisplay				
91	852.694	0.75	control-reward	OutcomeDisplay				
92	853.444		control-reward	ImageDisplay1		0.0		
92	855.443	0.75	control-reward	StartDisplay				
92	856.193		control-reward	ImageDisplay2		0.0		
92	859.443	1.6	control-reward	ChoiceDisplay	1	0.43	1	1
92	859.893	1.17	control-reward	ChosenDisplay		0.0		
92	861.043	0.25	control-reward	TurnDisplay				
92	861.293	0.75	control-reward	OutcomeDisplay				
93	862.043		control-noreward	ImageDisplay1		0.0		
93	864.293	0.75	control-noreward	StartDisplay				
93	865.043		control-noreward	ImageDisplay2		0.0		
93	868.043	1.6	control-noreward	ChoiceDisplay	1	0.378	1	1
93	868.443	1.222	control-noreward	ChosenDisplay		0.0		
93	869.643	0.25	control-noreward	TurnDisplay				
93	869.893	0.75	control-noreward	OutcomeDisplay				
94	870.643		win-noreward	ImageDisplay1		0.0		
94	872.643	0.75	win-noreward	StartDisplay				
94	873.393		win-noreward	ImageDisplay2		0.0		
94	876.643	1.6	win-noreward	ChoiceDisplay	1	0.582	1	1
94	877.243	1.018	win-noreward	ChosenDisplay		0.0		
94	878.243	0.25	win-noreward	TurnDisplay				
94	878.493	0.75	win-noreward	OutcomeDisplay				
95	879.243		loss-reward	ImageDisplay1		0.0		
95	881.492	0.75	loss-reward	StartDisplay				
95	882.242		loss-reward	ImageDisplay2		0.0		
95	885.242	1.6	loss-reward	ChoiceDisplay	1	0.583	1	1
95	885.842	1.017	loss-reward	ChosenDisplay		0.0		
95	886.842	0.25	loss-reward	TurnDisplay				
95	887.092	0.75	loss-reward	OutcomeDisplay				
