onset	duration	trial_type	response_time	stim_file	accuracy
43.572	1.0	go	0.511	Go_X	0.0
46.105	1.0	go	0.29	Go_O	1.0
48.639	1.0	go	0.506	Go_X	1.0
51.172	1.0	go	0.37	Go_O	1.0
53.705	1.0	go	0.359	Go_O	1.0
56.238	1.0	go	0.302	Go_X	1.0
58.772	0.25	stopfail	0.375	Go_O	0.0
61.305	1.0	go	0.335	Go_O	1.0
63.838	0.2	stopfail	0.318	Go_X	0.0
66.371	1.0	go	0.574	Go_X	1.0
68.905	1.0	go	0.482	Go_O	1.0
71.454	1.0	go	0.434	Go_X	1.0
73.988	0.15	stopfail	0.311	Go_O	0.0
76.521	1.0	go	0.568	Go_O	1.0
79.054	1.0	go	0.388	Go_X	1.0
81.587	0.1	stopsuccess	0.0	Go_X	1.0
84.121	0.15	stopfail	0.334	Go_O	0.0
86.654	1.0	go	0.46	Go_X	1.0
89.187	1.0	go	0.367	Go_O	1.0
91.72	0.1	stopsuccess	0.0	Go_X	1.0
94.254	1.0	go	0.447	Go_X	1.0
96.803	1.0	go	0.492	Go_O	1.0
99.337	0.15	stopsuccess	0.0	Go_O	1.0
101.87	1.0	go	0.281	Go_O	1.0
104.403	1.0	go	0.581	Go_X	1.0
106.936	0.2	stopsuccess	0.0	Go_X	1.0
109.47	1.0	go	0.328	Go_O	1.0
112.003	1.0	go	0.532	Go_X	1.0
114.536	0.25	stopfail	0.427	Go_O	0.0
117.069	1.0	go	0.452	Go_O	1.0
119.602	1.0	go	0.361	Go_X	1.0
122.136	1.0	go	0.339	Go_O	1.0
124.669	1.0	go	0.285	Go_X	1.0
127.202	1.0	go	0.484	Go_X	1.0
129.735	0.2	stopfail	0.376	Go_X	0.0
132.269	1.0	go	0.309	Go_O	1.0
134.802	1.0	go	0.282	Go_O	1.0
137.335	1.0	go	0.435	Go_X	1.0
139.868	1.0	go	0.506	Go_X	1.0
142.402	1.0	go	0.366	Go_O	1.0
144.935	0.15	stopsuccess	0.0	Go_O	1.0
147.468	1.0	go	0.255	Go_O	1.0
150.001	1.0	go	0.463	Go_X	1.0
152.535	1.0	go	0.328	Go_O	1.0
155.084	1.0	go	0.318	Go_X	1.0
157.618	1.0	go	0.356	Go_X	1.0
160.151	1.0	go	0.391	Go_O	1.0
162.684	0.2	stopsuccess	0.0	Go_X	1.0
165.217	1.0	go	0.36	Go_O	1.0
167.751	1.0	go	0.447	Go_X	1.0
170.284	0.25	stopfail	0.374	Go_O	0.0
172.817	1.0	go	0.288	Go_O	1.0
175.35	0.2	stopsuccess	0.0	Go_X	1.0
177.884	0.25	stopfail	0.326	Go_O	0.0
180.433	1.0	go	0.372	Go_X	1.0
182.967	1.0	go	0.477	Go_X	1.0
185.5	1.0	go	0.315	Go_O	1.0
188.033	1.0	go	0.476	Go_O	1.0
190.566	0.2	stopsuccess	0.0	Go_X	1.0
193.1	1.0	go	0.46	Go_X	1.0
195.633	0.25	stopfail	0.363	Go_O	0.0
198.166	1.0	go	0.347	Go_X	1.0
200.699	1.0	go	0.419	Go_O	1.0
203.232	1.0	go	0.471	Go_X	1.0
205.766	1.0	go	0.359	Go_O	1.0
208.299	1.0	go	0.388	Go_X	1.0
210.832	1.0	go	0.489	Go_O	1.0
213.365	1.0	go	0.385	Go_O	1.0
215.899	1.0	go	0.328	Go_X	1.0
218.432	1.0	go	0.463	Go_X	1.0
220.965	0.2	stopfail	0.388	Go_X	0.0
223.498	1.0	go	0.451	Go_O	1.0
226.032	1.0	go	0.356	Go_X	1.0
228.565	1.0	go	0.321	Go_O	1.0
231.098	0.15	stopsuccess	0.0	Go_O	1.0
233.631	1.0	go	0.418	Go_O	1.0
236.165	1.0	go	0.33	Go_X	1.0
238.714	1.0	go	0.496	Go_X	1.0
241.248	1.0	go	0.39	Go_O	1.0
243.781	1.0	go	0.408	Go_O	1.0
246.314	1.0	go	0.609	Go_X	1.0
248.847	0.2	stopsuccess	0.0	Go_X	1.0
251.381	1.0	go	0.413	Go_X	1.0
253.914	1.0	go	0.299	Go_O	1.0
256.447	0.25	stopfail	0.413	Go_O	0.0
258.98	1.0	go	0.278	Go_O	0.0
261.513	1.0	go	0.306	Go_X	1.0
264.047	0.2	stopfail	0.373	Go_X	0.0
266.58	1.0	go	0.392	Go_O	1.0
269.113	0.15	stopsuccess	0.0	Go_O	1.0
271.646	1.0	go	0.43	Go_X	1.0
274.18	1.0	go	0.406	Go_X	1.0
276.713	1.0	go	0.451	Go_O	1.0
279.246	1.0	go	0.532	Go_O	1.0
281.779	1.0	go	0.491	Go_X	1.0
284.313	0.2	stopsuccess	0.0	Go_X	1.0
286.846	0.25	stopfail	0.291	Go_O	0.0
289.379	1.0	go	0.844	Go_O	0.0
291.912	1.0	go	0.373	Go_X	1.0
294.446	0.2	stopsuccess	0.0	Go_X	1.0
296.995	1.0	go	0.444	Go_O	1.0
299.529	1.0	go	0.562	Go_X	1.0
302.062	1.0	go	0.358	Go_O	1.0
304.595	1.0	go	0.614	Go_X	1.0
307.128	1.0	go	0.448	Go_O	1.0
309.662	1.0	go	0.423	Go_X	1.0
312.195	0.25	stopsuccess	0.0	Go_O	1.0
314.728	1.0	go	0.297	Go_O	1.0
317.261	1.0	go	0.455	Go_X	1.0
319.794	1.0	go	0.446	Go_X	1.0
322.328	1.0	go	0.455	Go_O	1.0
324.861	1.0	go	0.365	Go_O	1.0
327.394	0.3	stopfail	0.318	Go_X	0.0
329.927	1.0	go	0.511	Go_X	1.0
332.461	1.0	go	0.35	Go_O	1.0
334.994	1.0	go	0.403	Go_X	1.0
337.527	1.0	go	0.482	Go_X	1.0
340.06	0.25	stopfail	0.337	Go_O	0.0
342.594	1.0	go	0.281	Go_O	0.0
345.127	1.0	go	0.413	Go_O	1.0
347.66	0.2	stopsuccess	0.0	Go_X	1.0
350.193	1.0	go	0.331	Go_X	1.0
352.727	0.25	stopfail	0.37	Go_O	0.0
355.276	1.0	go	0.474	Go_X	1.0
357.81	1.0	go	0.275	Go_O	1.0
360.343	1.0	go	0.382	Go_O	1.0
362.876	1.0	go	0.531	Go_X	1.0
365.409	1.0	go	0.379	Go_X	1.0
367.943	1.0	go	0.464	Go_O	1.0
370.476	1.0	go	0.631	Go_X	1.0
373.009	0.2	stopsuccess	0.0	Go_X	1.0
375.542	1.0	go	0.373	Go_O	1.0
378.075	1.0	go	0.359	Go_X	1.0
380.609	1.0	go	0.428	Go_O	1.0
383.142	0.25	stopsuccess	0.0	Go_O	1.0
385.675	1.0	go	0.334	Go_X	1.0
388.208	1.0	go	0.44	Go_O	1.0
390.742	1.0	go	0.509	Go_O	1.0
393.275	1.0	go	0.471	Go_X	1.0
395.808	0.3	stopfail	0.439	Go_X	0.0
398.341	1.0	go	0.418	Go_X	1.0
400.875	1.0	go	0.379	Go_O	1.0
403.408	0.25	stopsuccess	0.0	Go_O	1.0
405.941	1.0	go	0.696	Go_X	0.0
408.474	1.0	go	0.559	Go_O	1.0
411.008	0.3	stopfail	0.452	Go_X	0.0
413.557	1.0	go	0.448	Go_X	1.0
416.091	1.0	go	0.483	Go_O	1.0
418.624	0.25	stopsuccess	0.0	Go_O	1.0
421.157	1.0	go	0.522	Go_O	1.0
423.69	1.0	go	0.463	Go_X	1.0
426.224	1.0	go	0.554	Go_X	1.0
428.757	1.0	go	0.438	Go_O	1.0
431.29	1.0	go	0.521	Go_X	1.0
433.823	1.0	go	0.317	Go_O	1.0
436.357	0.3	stopfail	0.392	Go_X	0.0
438.906	1.0	go	0.435	Go_O	1.0
441.44	0.25	stopsuccess	0.0	Go_O	1.0
443.973	1.0	go	0.281	Go_X	1.0
446.506	1.0	go	0.582	Go_X	1.0
449.039	1.0	go	0.341	Go_O	1.0
451.573	1.0	go	0.525	Go_X	1.0
454.106	1.0	go	0.244	Go_O	1.0
456.639	0.3	stopfail	0.221	Go_X	0.0
459.172	1.0	go	0.294	Go_X	1.0
461.705	1.0	go	0.223	Go_O	1.0
464.239	1.0	go	0.429	Go_O	1.0
466.772	0.25	stopfail	0.412	Go_O	0.0
469.305	0.2	stopfail	0.358	Go_X	0.0
471.838	0.15	stopfail	0.266	Go_O	0.0
474.372	1.0	go	0.524	Go_X	1.0
476.905	0.1	stopsuccess	0.0	Go_X	1.0
479.438	1.0	go	0.504	Go_X	1.0
481.971	1.0	go	0.457	Go_O	1.0
484.505	1.0	go	0.527	Go_X	1.0
487.038	1.0	go	0.616	Go_O	1.0
489.571	1.0	go	0.603	Go_X	1.0
492.104	1.0	go	0.453	Go_O	1.0
494.638	1.0	go	0.46	Go_O	1.0
497.187	1.0	go	0.502	Go_X	1.0
499.721	0.15	stopsuccess	0.0	Go_O	1.0
502.254	1.0	go	0.541	Go_O	1.0
504.787	1.0	go	0.497	Go_X	1.0
507.32	0.2	stopsuccess	0.0	Go_X	1.0
509.854	1.0	go	0.345	Go_X	1.0
512.387	1.0	go	0.591	Go_O	1.0
514.92	1.0	go	0.475	Go_X	1.0
517.453	1.0	go	0.419	Go_O	1.0
519.986	1.0	go	0.516	Go_O	1.0
522.52	0.25	stopsuccess	0.0	Go_O	1.0
525.053	1.0	go	0.476	Go_X	1.0
527.586	1.0	go	0.4	Go_O	1.0
530.119	1.0	go	0.471	Go_X	1.0
532.653	0.3	stopsuccess	0.0	Go_X	1.0
535.186	1.0	go	0.438	Go_O	1.0
537.719	0.35	stopfail	0.47	Go_O	0.0
540.252	1.0	go	0.46	Go_X	1.0
542.786	1.0	go	0.481	Go_X	1.0
545.319	1.0	go	0.372	Go_O	1.0
547.852	1.0	go	0.484	Go_O	1.0
550.385	1.0	go	0.485	Go_X	1.0
552.919	1.0	go	0.514	Go_O	1.0
555.468	1.0	go	0.406	Go_X	1.0
558.002	0.3	stopsuccess	0.0	Go_X	1.0
560.535	1.0	go	0.371	Go_O	1.0
563.068	1.0	go	0.507	Go_X	1.0
565.601	1.0	go	0.411	Go_X	1.0
568.135	1.0	go	0.544	Go_O	1.0
570.668	0.35	stopfail	0.489	Go_O	0.0
573.201	1.0	go	0.393	Go_O	1.0
575.734	0.3	stopfail	0.379	Go_X	0.0
578.267	1.0	go	0.481	Go_X	1.0
580.801	1.0	go	0.618	Go_X	1.0
583.334	0.25	stopsuccess	0.0	Go_O	1.0
585.867	1.0	go	0.493	Go_O	1.0
588.4	1.0	go	0.505	Go_O	1.0
590.934	1.0	go	0.514	Go_X	1.0
593.467	1.0	go	0.432	Go_O	1.0
596.0	1.0	go	0.506	Go_X	1.0
598.533	1.0	go	0.561	Go_X	1.0
601.067	1.0	go	0.501	Go_O	1.0
603.6	1.0	go	0.478	Go_O	1.0
606.133	1.0	go	0.443	Go_X	1.0
608.666	1.0	go	0.395	Go_X	1.0
611.2	0.3	stopsuccess	0.0	Go_X	1.0
613.749	1.0	go	0.349	Go_O	1.0
616.283	1.0	go	0.402	Go_O	1.0
618.816	0.35	stopfail	0.392	Go_O	0.0
621.349	1.0	go	0.446	Go_X	1.0
623.882	0.3	stopfail	0.418	Go_X	0.0
626.416	1.0	go	0.399	Go_X	1.0
628.949	1.0	go	0.367	Go_O	1.0
631.482	0.25	stopsuccess	0.0	Go_O	1.0
634.015	1.0	go	0.55	Go_X	1.0
636.549	0.3	stopfail	0.366	Go_X	0.0
639.098	1.0	go	0.234	Go_O	1.0
641.632	1.0	go	0.566	Go_O	1.0
644.165	1.0	go	0.494	Go_X	1.0
646.698	0.25	stopsuccess	0.0	Go_O	1.0
649.231	1.0	go	0.341	Go_X	1.0
651.765	1.0	go	0.561	Go_O	1.0
654.298	1.0	go	0.49	Go_X	1.0
656.831	1.0	go	0.598	Go_O	1.0
659.364	0.3	stopsuccess	0.0	Go_X	1.0
661.897	1.0	go	0.462	Go_X	1.0
664.431	1.0	go	0.519	Go_O	1.0
666.964	0.35	stopsuccess	0.0	Go_O	1.0
669.497	1.0	go	0.412	Go_O	1.0
672.03	1.0	go	0.493	Go_X	1.0
674.564	1.0	go	0.687	Go_O	1.0
677.097	1.0	go	0.353	Go_X	1.0
679.63	0.4	stopfail	0.446	Go_X	0.0
682.163	1.0	go	0.427	Go_X	0.0
684.697	0.35	stopsuccess	0.0	Go_O	1.0
687.23	1.0	go	0.362	Go_O	1.0
689.763	1.0	go	0.445	Go_X	1.0
692.296	0.4	stopfail	0.385	Go_X	0.0
694.83	1.0	go	0.407	Go_O	1.0
697.379	1.0	go	0.397	Go_O	1.0
699.913	1.0	go	0.449	Go_X	1.0
702.446	1.0	go	0.41	Go_X	1.0
704.979	0.35	stopfail	0.45	Go_O	0.0
707.512	1.0	go	0.421	Go_O	1.0
710.046	0.3	stopfail	0.414	Go_X	0.0
712.579	1.0	go	0.538	Go_O	1.0
715.112	1.0	go	0.417	Go_X	1.0
717.645	1.0	go	0.386	Go_O	1.0
720.178	1.0	go	0.426	Go_X	1.0
722.712	1.0	go	0.634	Go_O	1.0
725.245	1.0	go	0.35	Go_X	1.0
727.778	0.25	stopsuccess	0.0	Go_O	1.0
730.311	1.0	go	0.37	Go_O	1.0
732.845	1.0	go	0.323	Go_X	1.0
735.378	0.3	stopsuccess	0.0	Go_X	1.0
737.911	1.0	go	0.539	Go_X	1.0
740.444	1.0	go	0.457	Go_O	1.0
742.978	0.35	stopfail	0.459	Go_O	0.0
745.511	1.0	go	0.483	Go_X	1.0
748.044	1.0	go	0.647	Go_O	1.0
750.577	1.0	go	0.477	Go_X	1.0
753.111	1.0	go	0.529	Go_O	0.0
755.66	0.3	stopsuccess	0.0	Go_X	1.0
758.194	1.0	go	0.334	Go_X	1.0
760.727	0.35	stopfail	0.477	Go_O	0.0
763.26	1.0	go	0.378	Go_O	1.0
765.793	1.0	go	0.478	Go_X	1.0
768.327	1.0	go	0.486	Go_O	1.0
770.86	1.0	go	0.773	Go_X	1.0
773.393	1.0	go	0.495	Go_O	1.0
775.926	0.3	stopsuccess	0.0	Go_X	1.0
778.459	1.0	go	0.409	Go_O	1.0
780.993	1.0	go	0.539	Go_X	1.0
783.526	0.35	stopfail	0.326	Go_O	0.0
786.059	0.3	stopfail	0.413	Go_X	0.0
788.592	1.0	go	0.376	Go_O	1.0
791.126	1.0	go	0.606	Go_X	1.0
793.659	1.0	go	0.515	Go_O	1.0
796.192	1.0	go	0.377	Go_X	1.0
798.725	0.25	stopfail	0.328	Go_O	0.0
801.259	1.0	go	0.409	Go_X	1.0
