onset	duration	trial_type	response_time	stim_file	accuracy
0.5219999999999985	1.0	go	0.535	Go_O	1.0
3.0459999999999994	1.0	go	0.345	Go_X	1.0
5.57	1.0	go	0.4	Go_O	1.0
8.094000000000001	1.0	go	0.357	Go_X	1.0
10.619	1.0	go	0.328	Go_O	1.0
13.159999999999997	1.0	go	0.34	Go_X	1.0
15.683999999999997	0.25	stopfail	0.312	Go_O	0.0
18.208	1.0	go	0.3	Go_X	1.0
20.732	0.2	stopsuccess	0.0	Go_X	1.0
23.256	1.0	go	0.274	Go_O	1.0
25.781	1.0	go	0.269	Go_X	1.0
28.305	1.0	go	0.323	Go_O	1.0
30.829	0.25	stopsuccess	0.0	Go_O	1.0
33.353	1.0	go	0.433	Go_O	1.0
35.87799999999999	1.0	go	0.364	Go_X	1.0
38.401999999999994	0.3	stopsuccess	0.0	Go_X	1.0
40.925999999999995	0.35	stopfail	0.315	Go_O	0.0
43.449999999999996	1.0	go	0.598	Go_O	1.0
45.974	1.0	go	0.26	Go_X	1.0
48.499	0.3	stopfail	0.382	Go_X	0.0
51.023	1.0	go	0.303	Go_O	1.0
53.547000000000004	1.0	go	0.332	Go_X	1.0
56.071000000000005	0.25	stopfail	0.313	Go_O	0.0
58.59499999999999	1.0	go	0.623	Go_O	0.0
61.12	1.0	go	0.515	Go_X	1.0
63.644	0.2	stopsuccess	0.0	Go_X	1.0
66.168	1.0	go	0.305	Go_O	1.0
68.69200000000001	1.0	go	0.421	Go_X	1.0
71.21600000000001	0.25	stopsuccess	0.0	Go_O	1.0
73.74099999999999	1.0	go	0.335	Go_O	1.0
76.26499999999999	1.0	go	0.316	Go_X	1.0
78.78899999999999	1.0	go	0.691	Go_O	1.0
81.314	1.0	go	0.327	Go_X	1.0
83.838	1.0	go	0.41	Go_X	0.0
86.362	0.3	stopsuccess	0.0	Go_X	1.0
88.886	1.0	go	0.303	Go_O	1.0
91.41	1.0	go	0.427	Go_X	1.0
93.934	1.0	go	0.591	Go_O	1.0
96.459	1.0	go	0.574	Go_X	1.0
98.983	1.0	go	0.331	Go_O	1.0
101.507	0.35	stopsuccess	0.0	Go_O	1.0
104.031	1.0	go	0.466	Go_X	1.0
106.555	1.0	go	0.522	Go_O	1.0
109.08000000000001	1.0	go	0.529	Go_X	1.0
111.60400000000001	1.0	go	0.382	Go_O	1.0
114.12800000000001	1.0	go	0.617	Go_X	1.0
116.65200000000002	1.0	go	0.38	Go_O	1.0
119.17699999999999	0.4	stopfail	0.504	Go_X	0.0
121.701	1.0	go	0.404	Go_O	1.0
124.225	1.0	go	0.366	Go_X	1.0
126.749	0.35	stopsuccess	0.0	Go_O	1.0
129.273	1.0	go	0.528	Go_O	1.0
131.798	0.4	stopfail	0.258	Go_X	0.0
134.322	0.35	stopfail	0.46	Go_O	0.0
136.863	1.0	go	0.497	Go_X	1.0
139.387	1.0	go	0.324	Go_O	1.0
141.911	1.0	go	0.328	Go_X	1.0
144.435	1.0	go	0.604	Go_X	1.0
146.96	0.3	stopfail	0.382	Go_X	0.0
149.484	1.0	go	0.724	Go_O	1.0
152.008	0.25	stopsuccess	0.0	Go_O	1.0
154.532	1.0	go	0.343	Go_X	1.0
157.056	1.0	go	0.597	Go_O	1.0
159.58100000000002	1.0	go	0.594	Go_O	1.0
162.10500000000002	1.0	go	0.485	Go_X	1.0
164.62900000000002	1.0	go	0.762	Go_X	1.0
167.15300000000002	1.0	go	0.351	Go_O	1.0
169.678	1.0	go	0.616	Go_X	1.0
172.202	1.0	go	0.598	Go_O	1.0
174.743	1.0	go	0.781	Go_O	1.0
177.284	0.3	stopsuccess	0.0	Go_X	1.0
179.808	1.0	go	0.59	Go_X	1.0
182.332	1.0	go	0.557	Go_X	1.0
184.856	1.0	go	0.705	Go_O	1.0
187.38	0.35	stopsuccess	0.0	Go_O	1.0
189.905	1.0	go	0.369	Go_X	1.0
192.429	1.0	go	0.535	Go_O	1.0
194.97	1.0	go	0.434	Go_X	1.0
197.511	1.0	go	0.663	Go_O	1.0
200.035	1.0	go	0.536	Go_X	1.0
202.559	1.0	go	0.662	Go_O	1.0
205.083	0.4	stopfail	0.387	Go_X	0.0
207.608	1.0	go	0.615	Go_X	1.0
210.149	1.0	go	0.503	Go_O	1.0
212.673	0.35	stopfail	0.495	Go_O	0.0
215.197	1.0	go	0.614	Go_O	1.0
217.721	1.0	go	0.89	Go_X	1.0
220.245	0.3	stopsuccess	0.0	Go_X	1.0
222.76999999999998	1.0	go	0.463	Go_X	1.0
225.31	0.35	stopsuccess	0.0	Go_O	1.0
227.83499999999998	1.0	go	0.805	Go_O	1.0
230.35899999999998	1.0	go	0.0	Go_O	0.0
232.88299999999998	1.0	go	0.758	Go_X	1.0
235.40699999999998	1.0	go	0.584	Go_X	1.0
237.93200000000002	1.0	go	0.622	Go_O	1.0
240.45600000000002	0.4	stopsuccess	0.0	Go_X	1.0
242.98000000000002	0.45	stopfail	0.474	Go_O	0.0
245.50400000000002	1.0	go	0.846	Go_X	1.0
248.02800000000002	1.0	go	0.598	Go_O	1.0
250.553	0.4	stopfail	0.402	Go_X	0.0
253.077	1.0	go	0.549	Go_X	1.0
255.601	1.0	go	0.511	Go_O	1.0
258.125	1.0	go	0.463	Go_O	1.0
260.649	1.0	go	0.797	Go_X	1.0
263.174	1.0	go	0.0	Go_O	0.0
265.698	1.0	go	0.683	Go_X	1.0
268.222	0.35	stopfail	0.441	Go_O	0.0
270.748	1.0	go	0.906	Go_X	1.0
273.271	1.0	go	0.5	Go_O	1.0
275.795	1.0	go	0.865	Go_X	0.0
278.319	1.0	go	0.386	Go_O	1.0
280.843	1.0	go	0.463	Go_O	1.0
283.367	0.3	stopfail	0.344	Go_X	0.0
285.892	1.0	go	0.562	Go_X	1.0
288.416	1.0	go	0.635	Go_O	1.0
290.94	1.0	go	0.424	Go_X	1.0
293.464	1.0	go	0.317	Go_X	1.0
295.988	0.25	stopsuccess	0.0	Go_O	1.0
298.51300000000003	1.0	go	0.67	Go_O	1.0
301.05400000000003	1.0	go	0.378	Go_O	1.0
303.57800000000003	0.3	stopsuccess	0.0	Go_X	1.0
306.10200000000003	1.0	go	0.483	Go_X	1.0
308.62600000000003	0.35	stopsuccess	0.0	Go_O	1.0
311.151	1.0	go	0.461	Go_X	1.0
313.675	1.0	go	0.563	Go_O	1.0
316.199	1.0	go	0.465	Go_X	1.0
318.723	1.0	go	0.927	Go_O	1.0
321.247	1.0	go	0.0	Go_O	0.0
323.772	1.0	go	0.0	Go_X	0.0
326.313	1.0	go	0.0	Go_X	0.0
328.837	0.4	stopfail	0.409	Go_X	0.0
331.361	1.0	go	0.806	Go_O	1.0
333.885	1.0	go	0.675	Go_X	1.0
336.409	1.0	go	0.679	Go_O	1.0
338.934	0.35	stopfail	0.476	Go_O	0.0
341.475	1.0	go	0.517	Go_O	1.0
343.999	1.0	go	0.377	Go_X	1.0
346.523	1.0	go	0.0	Go_X	0.0
349.047	1.0	go	0.394	Go_O	1.0
351.571	0.3	stopsuccess	0.0	Go_X	1.0
354.096	1.0	go	0.265	Go_O	1.0
356.62	1.0	go	0.609	Go_X	1.0
359.144	0.35	stopsuccess	0.0	Go_O	1.0
361.668	1.0	go	0.307	Go_O	1.0
364.192	1.0	go	0.315	Go_X	1.0
366.717	0.4	stopfail	0.464	Go_X	0.0
369.245	1.0	go	0.375	Go_O	1.0
371.782	1.0	go	0.609	Go_X	1.0
374.306	0.35	stopsuccess	0.0	Go_O	1.0
376.847	1.0	go	0.426	Go_X	1.0
379.371	1.0	go	0.647	Go_O	1.0
381.895	1.0	go	0.564	Go_X	1.0
384.42	1.0	go	0.488	Go_O	1.0
386.944	1.0	go	0.731	Go_O	1.0
389.468	1.0	go	0.691	Go_X	1.0
392.009	0.4	stopsuccess	0.0	Go_X	1.0
394.533	1.0	go	0.498	Go_O	1.0
397.057	0.45	stopfail	0.612	Go_O	0.0
399.582	1.0	go	0.734	Go_X	1.0
402.106	1.0	go	0.466	Go_X	1.0
404.63	1.0	go	0.614	Go_O	1.0
407.154	1.0	go	0.932	Go_O	0.0
409.678	1.0	go	0.526	Go_X	1.0
412.20300000000003	0.4	stopfail	0.436	Go_X	0.0
414.72700000000003	1.0	go	0.509	Go_X	1.0
417.25100000000003	1.0	go	0.575	Go_O	1.0
419.77500000000003	1.0	go	0.395	Go_X	1.0
422.3	0.35	stopsuccess	0.0	Go_O	1.0
424.84000000000003	0.4	stopsuccess	0.0	Go_X	1.0
427.365	0.45	stopsuccess	0.0	Go_O	1.0
429.889	1.0	go	0.633	Go_O	1.0
432.413	0.5	stopfail	0.625	Go_X	0.0
434.937	1.0	go	0.796	Go_X	1.0
437.462	1.0	go	0.596	Go_O	1.0
439.986	1.0	go	0.803	Go_X	0.0
442.527	1.0	go	0.336	Go_O	1.0
445.051	1.0	go	0.937	Go_O	1.0
447.575	1.0	go	0.0	Go_X	0.0
450.099	1.0	go	0.479	Go_O	1.0
452.624	1.0	go	0.533	Go_X	1.0
455.148	0.45	stopsuccess	0.0	Go_O	1.0
457.689	1.0	go	0.407	Go_O	1.0
460.213	1.0	go	0.302	Go_X	1.0
462.754	0.5	stopfail	0.6	Go_X	0.0
465.278	1.0	go	0.386	Go_O	1.0
467.802	1.0	go	0.352	Go_X	1.0
470.326	1.0	go	0.685	Go_X	1.0
472.851	1.0	go	0.842	Go_O	1.0
475.37500000000006	1.0	go	0.551	Go_X	1.0
477.89900000000006	0.45	stopsuccess	0.0	Go_O	1.0
480.42300000000006	1.0	go	0.623	Go_O	1.0
482.94700000000006	1.0	go	0.831	Go_X	0.0
485.47200000000004	1.0	go	0.579	Go_O	1.0
487.99600000000004	0.5	stopfail	0.573	Go_X	0.0
490.52000000000004	1.0	go	0.553	Go_O	1.0
493.04400000000004	0.45	stopsuccess	0.0	Go_O	1.0
495.569	1.0	go	0.0	Go_X	0.0
498.093	1.0	go	0.0	Go_O	0.0
500.617	1.0	go	0.0	Go_X	0.0
503.141	1.0	go	0.309	Go_O	1.0
505.665	1.0	go	0.429	Go_X	1.0
508.19	1.0	go	0.572	Go_O	1.0
510.714	1.0	go	0.756	Go_X	1.0
513.2379999999999	0.5	stopfail	0.561	Go_X	0.0
515.762	1.0	go	0.269	Go_O	1.0
518.286	1.0	go	0.0	Go_X	0.0
520.8109999999999	1.0	go	0.283	Go_O	1.0
523.3349999999999	1.0	go	0.369	Go_X	1.0
525.8589999999999	0.45	stopfail	0.37	Go_O	0.0
528.3829999999999	1.0	go	0.308	Go_O	0.0
530.9079999999999	0.4	stopfail	0.485	Go_X	0.0
533.448	1.0	go	0.983	Go_X	0.0
535.973	1.0	go	0.888	Go_O	0.0
538.497	0.35	stopfail	0.501	Go_O	0.0
541.021	1.0	go	0.355	Go_X	1.0
543.545	1.0	go	0.897	Go_O	1.0
546.0699999999999	1.0	go	0.72	Go_X	1.0
548.6099999999999	1.0	go	0.549	Go_X	1.0
551.135	1.0	go	0.462	Go_O	1.0
553.659	1.0	go	0.608	Go_X	0.0
556.1999999999999	1.0	go	0.341	Go_O	1.0
558.7239999999999	1.0	go	0.641	Go_O	1.0
561.2479999999999	1.0	go	0.578	Go_X	1.0
563.7719999999999	1.0	go	0.488	Go_O	1.0
566.2969999999999	0.3	stopsuccess	0.0	Go_X	1.0
568.8209999999999	1.0	go	0.0	Go_X	0.0
571.3449999999999	1.0	go	0.596	Go_X	1.0
573.8689999999999	0.35	stopsuccess	0.0	Go_O	1.0
576.394	1.0	go	0.318	Go_O	1.0
578.9179999999999	0.4	stopfail	0.64	Go_X	0.0
581.459	1.0	go	0.577	Go_O	1.0
583.983	1.0	go	0.0	Go_X	0.0
586.507	0.35	stopfail	0.395	Go_O	0.0
589.031	1.0	go	0.481	Go_O	1.0
591.5559999999999	0.3	stopsuccess	0.0	Go_X	1.0
594.0799999999999	1.0	go	0.283	Go_X	1.0
596.6039999999999	1.0	go	0.614	Go_X	1.0
599.1279999999999	1.0	go	0.721	Go_O	1.0
601.6519999999999	0.35	stopsuccess	0.0	Go_O	1.0
604.1769999999999	1.0	go	0.553	Go_O	1.0
606.704	1.0	go	0.416	Go_X	1.0
609.2249999999999	1.0	go	0.526	Go_X	1.0
611.7489999999999	1.0	go	0.0	Go_O	0.0
614.2729999999999	0.4	stopfail	0.449	Go_X	0.0
616.814	1.0	go	0.763	Go_X	1.0
619.3389999999999	1.0	go	0.384	Go_O	1.0
621.8629999999999	0.35	stopfail	0.496	Go_O	0.0
624.387	1.0	go	0.421	Go_X	1.0
626.911	1.0	go	0.0	Go_O	0.0
629.435	1.0	go	0.442	Go_X	1.0
631.9599999999999	1.0	go	0.752	Go_O	1.0
634.4839999999999	0.3	stopsuccess	0.0	Go_X	1.0
637.0079999999999	1.0	go	0.95	Go_O	1.0
639.5319999999999	0.35	stopsuccess	0.0	Go_O	1.0
642.0569999999999	1.0	go	0.318	Go_X	1.0
644.5809999999999	1.0	go	0.574	Go_X	1.0
647.1049999999999	0.4	stopfail	0.386	Go_X	0.0
649.6289999999999	1.0	go	0.505	Go_O	1.0
652.1529999999999	1.0	go	0.886	Go_X	1.0
654.678	1.0	go	0.302	Go_O	1.0
657.202	1.0	go	0.303	Go_X	1.0
659.726	0.35	stopfail	0.539	Go_O	0.0
662.25	1.0	go	0.712	Go_O	1.0
664.775	0.3	stopsuccess	0.0	Go_X	1.0
667.299	1.0	go	0.691	Go_O	1.0
669.823	1.0	go	0.426	Go_X	1.0
672.347	1.0	go	0.424	Go_O	1.0
674.871	1.0	go	0.58	Go_X	1.0
677.396	1.0	go	0.574	Go_O	1.0
679.92	1.0	go	0.0	Go_X	0.0
682.444	0.35	stopfail	0.426	Go_O	0.0
684.968	1.0	go	0.0	Go_X	0.0
687.492	1.0	go	0.269	Go_O	1.0
690.0169999999999	0.3	stopfail	0.552	Go_X	0.0
692.558	1.0	go	0.403	Go_X	0.0
695.082	1.0	go	0.642	Go_O	1.0
697.606	0.25	stopsuccess	0.0	Go_O	1.0
700.13	1.0	go	0.856	Go_X	1.0
702.654	1.0	go	0.913	Go_O	1.0
705.179	1.0	go	0.0	Go_O	0.0
707.703	1.0	go	0.442	Go_X	1.0
710.227	0.3	stopsuccess	0.0	Go_X	1.0
712.751	1.0	go	0.266	Go_O	1.0
715.275	0.35	stopfail	0.613	Go_O	0.0
717.8159999999999	1.0	go	0.512	Go_X	1.0
720.3409999999999	1.0	go	0.686	Go_O	1.0
722.8649999999999	1.0	go	0.543	Go_X	1.0
725.3889999999999	1.0	go	0.346	Go_X	1.0
727.93	1.0	go	0.648	Go_O	1.0
730.454	0.3	stopfail	0.721	Go_X	0.0
732.978	1.0	go	0.0	Go_X	0.0
735.519	1.0	go	0.543	Go_O	1.0
738.044	0.25	stopsuccess	0.0	Go_O	1.0
740.584	0.3	stopsuccess	0.0	Go_X	1.0
743.125	1.0	go	0.512	Go_X	1.0
745.65	1.0	go	0.642	Go_O	1.0
748.1909999999999	1.0	go	0.647	Go_O	0.0
750.7149999999999	1.0	go	0.269	Go_X	1.0
753.2389999999999	0.35	stopfail	0.248	Go_O	0.0
755.7629999999999	1.0	go	0.463	Go_X	1.0
