frame	onset	duration	trial_type	event_type	response_type	response_time	stim_file	accuracy
0	29.322		win-noreward	ImageDisplay1		0.0		
0	31.561	0.75	win-noreward	StartDisplay				
0	32.297		win-noreward	ImageDisplay2		0.0		
0	35.306	1.6	win-noreward	ChoiceDisplay	1	1.085	1	1
0	36.409	0.515	win-noreward	ChosenDisplay		0.0		
0	36.911	0.25	win-noreward	TurnDisplay				
0	37.162	0.75	win-noreward	OutcomeDisplay				
1	37.914		control-reward	ImageDisplay1		0.0		
1	39.903	0.75	control-reward	StartDisplay				
1	40.655		control-reward	ImageDisplay2		0.0		
1	43.915	1.6	control-reward	ChoiceDisplay	1	1.409	1	1
1	45.336	0.191	control-reward	ChosenDisplay		0.0		
1	45.52	0.25	control-reward	TurnDisplay				
1	45.771	0.75	control-reward	OutcomeDisplay				
2	46.523		control-reward	ImageDisplay1		0.0		
2	48.763	0.75	control-reward	StartDisplay				
2	49.515		control-reward	ImageDisplay2		0.0		
2	52.524	1.6	control-reward	ChoiceDisplay	1	0.974	1	1
2	53.51	0.626	control-reward	ChosenDisplay		0.0		
2	54.129	0.25	control-reward	TurnDisplay				
2	54.38	0.75	control-reward	OutcomeDisplay				
3	55.132		loss-reward	ImageDisplay1		0.0		
3	57.121	0.75	loss-reward	StartDisplay				
3	57.873		loss-reward	ImageDisplay2		0.0		
3	61.133	1.6	loss-reward	ChoiceDisplay	1	1.041	1	1
3	62.186	0.559	loss-reward	ChosenDisplay		0.0		
3	62.738	0.25	loss-reward	TurnDisplay				
3	62.989	0.75	loss-reward	OutcomeDisplay				
4	63.741		loss-reward	ImageDisplay1		0.0		
4	65.981	0.75	loss-reward	StartDisplay				
4	66.733		loss-reward	ImageDisplay2		0.0		
4	69.742	1.6	loss-reward	ChoiceDisplay	1	1.197	1	1
4	70.963	0.403	loss-reward	ChosenDisplay		0.0		
4	71.347	0.25	loss-reward	TurnDisplay				
4	71.598	0.75	loss-reward	OutcomeDisplay				
5	72.35		control-reward	ImageDisplay1		0.0		
5	74.339	0.75	control-reward	StartDisplay				
5	75.092		control-reward	ImageDisplay2		0.0		
5	78.351	1.6	control-reward	ChoiceDisplay	1	0.945	1	1
5	79.321	0.655	control-reward	ChosenDisplay		0.0		
5	79.956	0.25	control-reward	TurnDisplay				
5	80.207	0.75	control-reward	OutcomeDisplay				
6	80.959		loss-reward	ImageDisplay1		0.0		
6	83.199	0.75	loss-reward	StartDisplay				
6	83.952		loss-reward	ImageDisplay2		0.0		
6	86.96	1.6	loss-reward	ChoiceDisplay	1	1.245	1	1
6	88.231	0.355	loss-reward	ChosenDisplay		0.0		
6	88.565	0.25	loss-reward	TurnDisplay				
6	88.816	0.75	loss-reward	OutcomeDisplay				
7	89.568		loss-reward	ImageDisplay1		0.0		
7	91.808	0.75	loss-reward	StartDisplay				
7	92.561		loss-reward	ImageDisplay2		0.0		
7	95.57	1.6	loss-reward	ChoiceDisplay	1	1.115	1	1
7	96.706	0.485	loss-reward	ChosenDisplay		0.0		
7	97.174	0.25	loss-reward	TurnDisplay				
7	97.425	0.75	loss-reward	OutcomeDisplay				
8	98.177		loss-noreward	ImageDisplay1		0.0		
8	100.183	0.75	loss-noreward	StartDisplay				
8	100.919		loss-noreward	ImageDisplay2		0.0		
8	104.179	1.6	loss-noreward	ChoiceDisplay	1	1.159	1	1
8	105.366	0.441	loss-noreward	ChosenDisplay		0.0		
8	105.783	0.25	loss-noreward	TurnDisplay				
8	106.034	0.75	loss-noreward	OutcomeDisplay				
9	106.786		control-noreward	ImageDisplay1		0.0		
9	109.026	0.75	control-noreward	StartDisplay				
9	109.779		control-noreward	ImageDisplay2		0.0		
9	112.788	1.6	control-noreward	ChoiceDisplay	1	1.24	1	1
9	114.041	0.36	control-noreward	ChosenDisplay		0.0		
9	114.392	0.25	control-noreward	TurnDisplay				
9	114.643	0.75	control-noreward	OutcomeDisplay				
10	115.396		loss-reward	ImageDisplay1		0.0		
10	117.385	0.75	loss-reward	StartDisplay				
10	118.137		loss-reward	ImageDisplay2		0.0		
10	121.397	1.6	loss-reward	ChoiceDisplay	1	1.095	1	1
10	122.517	0.505	loss-reward	ChosenDisplay		0.0		
10	123.002	0.25	loss-reward	TurnDisplay				
10	123.252	0.75	loss-reward	OutcomeDisplay				
11	124.005		loss-reward	ImageDisplay1		0.0		
11	125.994	0.75	loss-reward	StartDisplay				
11	126.746		loss-reward	ImageDisplay2		0.0		
11	130.006	1.6	loss-reward	ChoiceDisplay	1	1.143	1	1
11	131.176	0.457	loss-reward	ChosenDisplay		0.0		
11	131.611	0.25	loss-reward	TurnDisplay				
11	131.861	0.75	loss-reward	OutcomeDisplay				
12	132.614		win-reward	ImageDisplay1		0.0		
12	134.603	0.75	win-reward	StartDisplay				
12	135.355		win-reward	ImageDisplay2		0.0		
12	138.615	1.6	win-reward	ChoiceDisplay	1	0.935	1	1
12	139.568	0.665	win-reward	ChosenDisplay		0.0		
12	140.22	0.25	win-reward	TurnDisplay				
12	140.47	0.75	win-reward	OutcomeDisplay				
13	141.223		control-reward	ImageDisplay1		0.0		
13	143.212	0.75	control-reward	StartDisplay				
13	143.964		control-reward	ImageDisplay2		0.0		
13	147.224	1.6	control-reward	ChoiceDisplay	1	1.198	1	1
13	148.444	0.402	control-reward	ChosenDisplay		0.0		
13	148.829	0.25	control-reward	TurnDisplay				
13	149.08	0.75	control-reward	OutcomeDisplay				
14	149.832		control-reward	ImageDisplay1		0.0		
14	151.821	0.75	control-reward	StartDisplay				
14	152.573		control-reward	ImageDisplay2		0.0		
14	155.833	1.6	control-reward	ChoiceDisplay	1	1.075	1	1
14	156.936	0.525	control-reward	ChosenDisplay		0.0		
14	157.438	0.25	control-reward	TurnDisplay				
14	157.689	0.75	control-reward	OutcomeDisplay				
15	158.441		win-reward	ImageDisplay1		0.0		
15	160.681	0.75	win-reward	StartDisplay				
15	161.433		win-reward	ImageDisplay2		0.0		
15	164.442	1.6	win-reward	ChoiceDisplay	1	1.025	1	1
15	165.495	0.575	win-reward	ChosenDisplay		0.0		
15	166.047	0.25	win-reward	TurnDisplay				
15	166.298	0.75	win-reward	OutcomeDisplay				
16	167.05		loss-reward	ImageDisplay1		0.0		
16	169.039	0.75	loss-reward	StartDisplay				
16	169.792		loss-reward	ImageDisplay2		0.0		
16	173.051	1.6	loss-reward	ChoiceDisplay	1	1.151	1	1
16	174.221	0.449	loss-reward	ChosenDisplay		0.0		
16	174.656	0.25	loss-reward	TurnDisplay				
16	174.907	0.75	loss-reward	OutcomeDisplay				
17	175.659		loss-reward	ImageDisplay1		0.0		
17	177.899	0.75	loss-reward	StartDisplay				
17	178.651		loss-reward	ImageDisplay2		0.0		
17	181.66	1.6	loss-reward	ChoiceDisplay	1	0.913	1	1
17	182.596	0.687	loss-reward	ChosenDisplay		0.0		
17	183.265	0.25	loss-reward	TurnDisplay				
17	183.516	0.75	loss-reward	OutcomeDisplay				
18	184.268		control-noreward	ImageDisplay1		0.0		
18	186.257	0.75	control-noreward	StartDisplay				
18	187.01		control-noreward	ImageDisplay2		0.0		
18	190.269	1.6	control-noreward	ChoiceDisplay	1	1.059	1	1
18	191.356	0.541	control-noreward	ChosenDisplay		0.0		
18	191.874	0.25	control-noreward	TurnDisplay				
18	192.125	0.75	control-noreward	OutcomeDisplay				
19	192.877		win-noreward	ImageDisplay1		0.0		
19	195.117	0.75	win-noreward	StartDisplay				
19	195.869		win-noreward	ImageDisplay2		0.0		
19	198.878	1.6	win-noreward	ChoiceDisplay	1	0.991	1	1
19	199.882	0.609	win-noreward	ChosenDisplay		0.0		
19	200.483	0.25	win-noreward	TurnDisplay				
19	200.734	0.75	win-noreward	OutcomeDisplay				
20	201.486		loss-noreward	ImageDisplay1		0.0		
20	203.475	0.75	loss-noreward	StartDisplay				
20	204.228		loss-noreward	ImageDisplay2		0.0		
20	207.487	1.6	loss-noreward	ChoiceDisplay	1	1.059	1	1
20	208.574	0.541	loss-noreward	ChosenDisplay		0.0		
20	209.092	0.25	loss-noreward	TurnDisplay				
20	209.343	0.75	loss-noreward	OutcomeDisplay				
21	210.095		control-reward	ImageDisplay1		0.0		
21	212.335	0.75	control-reward	StartDisplay				
21	213.088		control-reward	ImageDisplay2		0.0		
21	216.097	1.6	control-reward	ChoiceDisplay	1	1.184	1	1
21	217.3	0.416	control-reward	ChosenDisplay		0.0		
21	217.701	0.25	control-reward	TurnDisplay				
21	217.952	0.75	control-reward	OutcomeDisplay				
22	218.704		win-reward	ImageDisplay1		0.0		
22	220.944	0.75	win-reward	StartDisplay				
22	221.697		win-reward	ImageDisplay2		0.0		
22	224.706	1.6	win-reward	ChoiceDisplay	1	1.083	1	1
22	225.809	0.517	win-reward	ChosenDisplay		0.0		
22	226.31	0.25	win-reward	TurnDisplay				
22	226.561	0.75	win-reward	OutcomeDisplay				
23	227.314		control-noreward	ImageDisplay1		0.0		
23	229.319	0.75	control-noreward	StartDisplay				
23	230.055		control-noreward	ImageDisplay2		0.0		
23	233.315	1.6	control-noreward	ChoiceDisplay	1	1.001	1	1
23	234.334	0.599	control-noreward	ChosenDisplay		0.0		
23	234.92	0.25	control-noreward	TurnDisplay				
23	235.17	0.75	control-noreward	OutcomeDisplay				
24	235.923		control-reward	ImageDisplay1		0.0		
24	237.912	0.75	control-reward	StartDisplay				
24	238.664		control-reward	ImageDisplay2		0.0		
24	241.924	1.6	control-reward	ChoiceDisplay	1	1.169	1	1
24	243.111	0.431	control-reward	ChosenDisplay		0.0		
24	243.529	0.25	control-reward	TurnDisplay				
24	243.779	0.75	control-reward	OutcomeDisplay				
25	244.532		loss-noreward	ImageDisplay1		0.0		
25	246.772	0.75	loss-noreward	StartDisplay				
25	247.524		loss-noreward	ImageDisplay2		0.0		
25	250.533	1.6	loss-noreward	ChoiceDisplay	1	1.398	1	1
25	251.954	0.202	loss-noreward	ChosenDisplay		0.0		
25	252.138	0.25	loss-noreward	TurnDisplay				
25	252.388	0.75	loss-noreward	OutcomeDisplay				
26	253.141		win-reward	ImageDisplay1		0.0		
26	255.381	0.75	win-reward	StartDisplay				
26	256.133		win-reward	ImageDisplay2		0.0		
26	259.142	1.6	win-reward	ChoiceDisplay	1	1.487	1	1
26	260.647	0.113	win-reward	ChosenDisplay		0.0		
26	260.747	0.25	win-reward	TurnDisplay				
26	260.998	0.75	win-reward	OutcomeDisplay				
27	261.75		loss-noreward	ImageDisplay1		0.0		
27	263.99	0.75	loss-noreward	StartDisplay				
27	264.742		loss-noreward	ImageDisplay2		0.0		
27	267.751	1.6	loss-noreward	ChoiceDisplay	1	1.312	1	1
27	269.088	0.288	loss-noreward	ChosenDisplay		0.0		
27	269.356	0.25	loss-noreward	TurnDisplay				
27	269.607	0.75	loss-noreward	OutcomeDisplay				
28	270.359		win-reward	ImageDisplay1		0.0		
28	272.365	0.75	win-reward	StartDisplay				
28	273.1		win-reward	ImageDisplay2		0.0		
28	276.36	1.6	win-reward	ChoiceDisplay	1	1.195	1	1
28	277.58	0.405	win-reward	ChosenDisplay		0.0		
28	277.965	0.25	win-reward	TurnDisplay				
28	278.216	0.75	win-reward	OutcomeDisplay				
29	278.968		loss-noreward	ImageDisplay1		0.0		
29	281.208	0.75	loss-noreward	StartDisplay				
29	281.96		loss-noreward	ImageDisplay2		0.0		
29	284.969	1.6	loss-noreward	ChoiceDisplay	1	1.274	1	1
29	286.256	0.326	loss-noreward	ChosenDisplay		0.0		
29	286.574	0.25	loss-noreward	TurnDisplay				
29	286.825	0.75	loss-noreward	OutcomeDisplay				
30	287.577		win-noreward	ImageDisplay1		0.0		
30	289.566	0.75	win-noreward	StartDisplay				
30	290.319		win-noreward	ImageDisplay2		0.0		
30	293.578	1.6	win-noreward	ChoiceDisplay	1	1.246	1	1
30	294.849	0.354	win-noreward	ChosenDisplay		0.0		
30	295.183	0.25	win-noreward	TurnDisplay				
30	295.434	0.75	win-noreward	OutcomeDisplay				
31	296.186		loss-reward	ImageDisplay1		0.0		
31	298.175	0.75	loss-reward	StartDisplay				
31	298.928		loss-reward	ImageDisplay2		0.0		
31	302.187	1.6	loss-reward	ChoiceDisplay	1	1.328	1	1
31	303.541	0.272	loss-reward	ChosenDisplay		0.0		
31	303.792	0.25	loss-reward	TurnDisplay				
31	304.043	0.75	loss-reward	OutcomeDisplay				
32	304.795		control-reward	ImageDisplay1		0.0		
32	306.784	0.75	control-reward	StartDisplay				
32	307.537		control-reward	ImageDisplay2		0.0		
32	310.796	1.6	control-reward	ChoiceDisplay	1	0.903	1	1
32	311.716	0.697	control-reward	ChosenDisplay		0.0		
32	312.401	0.25	control-reward	TurnDisplay				
32	312.652	0.75	control-reward	OutcomeDisplay				
33	313.404		control-noreward	ImageDisplay1		0.0		
33	315.644	0.75	control-noreward	StartDisplay				
33	316.396		control-noreward	ImageDisplay2		0.0		
33	319.405	1.6	control-noreward	ChoiceDisplay	1	1.203	1	1
33	320.626	0.397	control-noreward	ChosenDisplay		0.0		
33	321.01	0.25	control-noreward	TurnDisplay				
33	321.261	0.75	control-noreward	OutcomeDisplay				
34	322.013		win-reward	ImageDisplay1		0.0		
34	324.003	0.75	win-reward	StartDisplay				
34	324.755		win-reward	ImageDisplay2		0.0		
34	328.015	1.6	win-reward	ChoiceDisplay	1	1.122	1	1
34	329.151	0.478	win-reward	ChosenDisplay		0.0		
34	329.619	0.25	win-reward	TurnDisplay				
34	329.87	0.75	win-reward	OutcomeDisplay				
35	330.622		loss-reward	ImageDisplay1		0.0		
35	332.862	0.75	loss-reward	StartDisplay				
35	333.615		loss-reward	ImageDisplay2		0.0		
35	336.624	1.6	loss-reward	ChoiceDisplay	1	1.372	1	1
35	338.011	0.228	loss-reward	ChosenDisplay		0.0		
35	338.228	0.25	loss-reward	TurnDisplay				
35	338.479	0.75	loss-reward	OutcomeDisplay				
36	339.231		win-reward	ImageDisplay1		0.0		
36	341.471	0.75	win-reward	StartDisplay				
36	342.224		win-reward	ImageDisplay2		0.0		
36	345.233	1.6	win-reward	ChoiceDisplay		0.0		
36	346.821	0.0	win-reward	ChosenDisplay		0.0		
36	346.838	0.25	win-reward	TurnDisplay				
36	347.072	0.75	win-reward	OutcomeDisplay				
37	347.824		loss-noreward	ImageDisplay1		0.0		
37	350.081	0.75	loss-noreward	StartDisplay				
37	350.833		loss-noreward	ImageDisplay2		0.0		
37	353.825	1.6	loss-noreward	ChoiceDisplay	1	0.961	1	1
37	354.811	0.639	loss-noreward	ChosenDisplay		0.0		
37	355.43	0.25	loss-noreward	TurnDisplay				
37	355.681	0.75	loss-noreward	OutcomeDisplay				
38	356.433		win-reward	ImageDisplay1		0.0		
38	358.673	0.75	win-reward	StartDisplay				
38	359.425		win-reward	ImageDisplay2		0.0		
38	362.434	1.6	win-reward	ChoiceDisplay	1	1.293	1	1
38	363.755	0.307	win-reward	ChosenDisplay		0.0		
38	364.039	0.25	win-reward	TurnDisplay				
38	364.29	0.75	win-reward	OutcomeDisplay				
39	365.042		win-noreward	ImageDisplay1		0.0		
39	367.031	0.75	win-noreward	StartDisplay				
39	367.783		win-noreward	ImageDisplay2		0.0		
39	371.043	1.6	win-noreward	ChoiceDisplay	1	1.342	1	1
39	372.397	0.258	win-noreward	ChosenDisplay		0.0		
39	372.648	0.25	win-noreward	TurnDisplay				
39	372.899	0.75	win-noreward	OutcomeDisplay				
40	373.651		win-noreward	ImageDisplay1		0.0		
40	375.64	0.75	win-noreward	StartDisplay				
40	376.393		win-noreward	ImageDisplay2		0.0		
40	379.652	1.6	win-noreward	ChoiceDisplay	1	1.306	1	1
40	380.973	0.294	win-noreward	ChosenDisplay		0.0		
40	381.257	0.25	win-noreward	TurnDisplay				
40	381.508	0.75	win-noreward	OutcomeDisplay				
41	382.26		loss-reward	ImageDisplay1		0.0		
41	384.5	0.75	loss-reward	StartDisplay				
41	385.252		loss-reward	ImageDisplay2		0.0		
41	388.261	1.6	loss-reward	ChoiceDisplay	1	1.521	1	1
41	389.799	0.0	loss-reward	ChosenDisplay		0.0		
41	389.866	0.25	loss-reward	TurnDisplay				
41	390.033	0.75	loss-reward	OutcomeDisplay				
42	390.786		loss-noreward	ImageDisplay1		0.0		
42	392.792	0.75	loss-noreward	StartDisplay				
42	393.544		loss-noreward	ImageDisplay2		0.0		
42	396.787	1.6	loss-noreward	ChoiceDisplay	1	0.859	1	1
42	397.673	0.741	loss-noreward	ChosenDisplay		0.0		
42	398.392	0.25	loss-noreward	TurnDisplay				
42	398.642	0.75	loss-noreward	OutcomeDisplay				
43	399.395		loss-noreward	ImageDisplay1		0.0		
43	401.384	0.75	loss-noreward	StartDisplay				
43	402.136		loss-noreward	ImageDisplay2		0.0		
43	405.396	1.6	loss-noreward	ChoiceDisplay	1	1.255	1	1
43	406.666	0.345	loss-noreward	ChosenDisplay		0.0		
43	407.001	0.25	loss-noreward	TurnDisplay				
43	407.251	0.75	loss-noreward	OutcomeDisplay				
44	408.004		control-reward	ImageDisplay1		0.0		
44	409.993	0.75	control-reward	StartDisplay				
44	410.745		control-reward	ImageDisplay2		0.0		
44	414.005	1.6	control-reward	ChoiceDisplay	1	1.267	1	1
44	415.292	0.333	control-reward	ChosenDisplay		0.0		
44	415.61	0.25	control-reward	TurnDisplay				
44	415.861	0.75	control-reward	OutcomeDisplay				
45	416.613		control-noreward	ImageDisplay1		0.0		
45	418.853	0.75	control-noreward	StartDisplay				
45	419.605		control-noreward	ImageDisplay2		0.0		
45	422.614	1.6	control-noreward	ChoiceDisplay	1	1.413	1	1
45	424.052	0.187	control-noreward	ChosenDisplay		0.0		
45	424.219	0.25	control-noreward	TurnDisplay				
45	424.47	0.75	control-noreward	OutcomeDisplay				
46	425.222		control-reward	ImageDisplay1		0.0		
46	427.462	0.75	control-reward	StartDisplay				
46	428.214		control-reward	ImageDisplay2		0.0		
46	431.223	1.6	control-reward	ChoiceDisplay	1	0.986	1	1
46	432.226	0.614	control-reward	ChosenDisplay		0.0		
46	432.828	0.25	control-reward	TurnDisplay				
46	433.079	0.75	control-reward	OutcomeDisplay				
47	433.831		win-reward	ImageDisplay1		0.0		
47	435.82	0.75	win-reward	StartDisplay				
47	436.572		win-reward	ImageDisplay2		0.0		
47	439.832	1.6	win-reward	ChoiceDisplay	1	1.236	1	1
47	441.086	0.364	win-reward	ChosenDisplay		0.0		
47	441.437	0.25	win-reward	TurnDisplay				
47	441.688	0.75	win-reward	OutcomeDisplay				
48	442.44		control-noreward	ImageDisplay1		0.0		
48	444.68	0.75	control-noreward	StartDisplay				
48	445.432		control-noreward	ImageDisplay2		0.0		
48	448.441	1.6	control-noreward	ChoiceDisplay	1	1.497	1	1
48	449.946	0.0	control-noreward	ChosenDisplay		0.0		
48	450.046	0.25	control-noreward	TurnDisplay				
48	450.197	0.75	control-noreward	OutcomeDisplay				
49	450.949		control-reward	ImageDisplay1		0.0		
49	453.189	0.75	control-reward	StartDisplay				
49	453.941		control-reward	ImageDisplay2		0.0		
49	456.95	1.6	control-reward	ChoiceDisplay	1	1.364	1	1
49	458.338	0.236	control-reward	ChosenDisplay		0.0		
49	458.555	0.25	control-reward	TurnDisplay				
49	458.806	0.75	control-reward	OutcomeDisplay				
50	459.558		win-noreward	ImageDisplay1		0.0		
50	461.798	0.75	win-noreward	StartDisplay				
50	462.55		win-noreward	ImageDisplay2		0.0		
50	465.559	1.6	win-noreward	ChoiceDisplay	1	1.22	1	1
50	466.796	0.38	win-noreward	ChosenDisplay		0.0		
50	467.164	0.25	win-noreward	TurnDisplay				
50	467.415	0.75	win-noreward	OutcomeDisplay				
51	468.167		control-noreward	ImageDisplay1		0.0		
51	470.156	0.75	control-noreward	StartDisplay				
51	470.908		control-noreward	ImageDisplay2		0.0		
51	474.168	1.6	control-noreward	ChoiceDisplay	1	1.382	1	1
51	475.572	0.218	control-noreward	ChosenDisplay		0.0		
51	475.773	0.25	control-noreward	TurnDisplay				
51	476.024	0.75	control-noreward	OutcomeDisplay				
52	476.776		win-noreward	ImageDisplay1		0.0		
52	479.016	0.75	win-noreward	StartDisplay				
52	479.768		win-noreward	ImageDisplay2		0.0		
52	482.777	1.6	win-noreward	ChoiceDisplay	1	1.196	1	1
52	483.998	0.404	win-noreward	ChosenDisplay		0.0		
52	484.382	0.25	win-noreward	TurnDisplay				
52	484.633	0.75	win-noreward	OutcomeDisplay				
53	485.385		loss-reward	ImageDisplay1		0.0		
53	487.391	0.75	loss-reward	StartDisplay				
53	488.143		loss-reward	ImageDisplay2		0.0		
53	491.386	1.6	loss-reward	ChoiceDisplay	1	1.089	1	1
53	492.49	0.511	loss-reward	ChosenDisplay		0.0		
53	492.991	0.25	loss-reward	TurnDisplay				
53	493.242	0.75	loss-reward	OutcomeDisplay				
54	493.994		win-noreward	ImageDisplay1		0.0		
54	496.234	0.75	win-noreward	StartDisplay				
54	496.986		win-noreward	ImageDisplay2		0.0		
54	499.995	1.6	win-noreward	ChoiceDisplay	1	1.572	1	1
54	501.583	0.0	win-noreward	ChosenDisplay		0.0		
54	501.6	0.25	win-noreward	TurnDisplay				
54	501.818	0.75	win-noreward	OutcomeDisplay				
55	502.57		control-reward	ImageDisplay1		0.0		
55	504.827	0.75	control-reward	StartDisplay				
55	505.579		control-reward	ImageDisplay2		0.0		
55	508.571	1.6	control-reward	ChoiceDisplay	1	0.647	1	1
55	509.24	0.953	control-reward	ChosenDisplay		0.0		
55	510.176	0.25	control-reward	TurnDisplay				
55	510.427	0.75	control-reward	OutcomeDisplay				
56	511.179		loss-noreward	ImageDisplay1		0.0		
56	513.168	0.75	loss-noreward	StartDisplay				
56	513.92		loss-noreward	ImageDisplay2		0.0		
56	517.18	1.6	loss-noreward	ChoiceDisplay	1	1.366	1	1
56	518.568	0.234	loss-noreward	ChosenDisplay		0.0		
56	518.785	0.25	loss-noreward	TurnDisplay				
56	519.036	0.75	loss-noreward	OutcomeDisplay				
57	519.788		win-reward	ImageDisplay1		0.0		
57	522.028	0.75	win-reward	StartDisplay				
57	522.78		win-reward	ImageDisplay2		0.0		
57	525.789	1.6	win-reward	ChoiceDisplay	1	1.576	1	1
57	527.377	0.0	win-reward	ChosenDisplay		0.0		
57	527.396	0.25	win-reward	TurnDisplay				
57	527.611	0.75	win-reward	OutcomeDisplay				
58	528.364		loss-noreward	ImageDisplay1		0.0		
58	530.37	0.75	loss-noreward	StartDisplay				
58	531.122		loss-noreward	ImageDisplay2		0.0		
58	534.365	1.6	loss-noreward	ChoiceDisplay	1	1.477	1	1
58	535.869	0.123	loss-noreward	ChosenDisplay		0.0		
58	535.97	0.25	loss-noreward	TurnDisplay				
58	536.22	0.75	loss-noreward	OutcomeDisplay				
59	536.973		control-noreward	ImageDisplay1		0.0		
59	539.213	0.75	control-noreward	StartDisplay				
59	539.965		control-noreward	ImageDisplay2		0.0		
59	542.974	1.6	control-noreward	ChoiceDisplay	1	1.313	1	1
59	544.311	0.287	control-noreward	ChosenDisplay		0.0		
59	544.579	0.25	control-noreward	TurnDisplay				
59	544.829	0.75	control-noreward	OutcomeDisplay				
60	545.582		win-reward	ImageDisplay1		0.0		
60	547.588	0.75	win-reward	StartDisplay				
60	548.323		win-reward	ImageDisplay2		0.0		
60	551.583	1.6	win-reward	ChoiceDisplay	1	1.007	1	1
60	552.603	0.593	win-reward	ChosenDisplay		0.0		
60	553.188	0.25	win-reward	TurnDisplay				
60	553.439	0.75	win-reward	OutcomeDisplay				
61	554.191		win-noreward	ImageDisplay1		0.0		
61	556.431	0.75	win-noreward	StartDisplay				
61	557.183		win-noreward	ImageDisplay2		0.0		
61	560.192	1.6	win-noreward	ChoiceDisplay	1	1.216	1	1
61	561.429	0.384	win-noreward	ChosenDisplay		0.0		
61	561.797	0.25	win-noreward	TurnDisplay				
61	562.048	0.75	win-noreward	OutcomeDisplay				
62	562.8		loss-reward	ImageDisplay1		0.0		
62	565.04	0.75	loss-reward	StartDisplay				
62	565.792		loss-reward	ImageDisplay2		0.0		
62	568.801	1.6	loss-reward	ChoiceDisplay		0.0		
62	570.389	0.0	loss-reward	ChosenDisplay		0.0		
62	570.406	0.25	loss-reward	TurnDisplay				
62	570.64	0.75	loss-reward	OutcomeDisplay				
63	571.392		control-noreward	ImageDisplay1		0.0		
63	573.398	0.75	control-noreward	StartDisplay				
63	574.15		control-noreward	ImageDisplay2		0.0		
63	577.394	1.6	control-noreward	ChoiceDisplay	1	1.078	1	1
63	578.497	0.522	control-noreward	ChosenDisplay		0.0		
63	578.998	0.25	control-noreward	TurnDisplay				
63	579.249	0.75	control-noreward	OutcomeDisplay				
64	580.001		win-noreward	ImageDisplay1		0.0		
64	581.991	0.75	win-noreward	StartDisplay				
64	582.743		win-noreward	ImageDisplay2		0.0		
64	586.003	1.6	win-noreward	ChoiceDisplay	1	1.077	1	1
64	587.106	0.523	win-noreward	ChosenDisplay		0.0		
64	587.607	0.25	win-noreward	TurnDisplay				
64	587.858	0.75	win-noreward	OutcomeDisplay				
65	588.61		win-reward	ImageDisplay1		0.0		
65	590.85	0.75	win-reward	StartDisplay				
65	591.603		win-reward	ImageDisplay2		0.0		
65	594.612	1.6	win-reward	ChoiceDisplay	1	1.224	1	1
65	595.849	0.376	win-reward	ChosenDisplay		0.0		
65	596.216	0.25	win-reward	TurnDisplay				
65	596.467	0.75	win-reward	OutcomeDisplay				
66	597.219		control-noreward	ImageDisplay1		0.0		
66	599.209	0.75	control-noreward	StartDisplay				
66	599.961		control-noreward	ImageDisplay2		0.0		
66	603.221	1.6	control-noreward	ChoiceDisplay	1	1.191	1	1
66	604.441	0.409	control-noreward	ChosenDisplay		0.0		
66	604.826	0.25	control-noreward	TurnDisplay				
66	605.076	0.75	control-noreward	OutcomeDisplay				
67	605.829		loss-noreward	ImageDisplay1		0.0		
67	608.069	0.75	loss-noreward	StartDisplay				
67	608.821		loss-noreward	ImageDisplay2		0.0		
67	611.83	1.6	loss-noreward	ChoiceDisplay	1	1.43	1	1
67	613.284	0.17	loss-noreward	ChosenDisplay		0.0		
67	613.435	0.25	loss-noreward	TurnDisplay				
67	613.685	0.75	loss-noreward	OutcomeDisplay				
68	614.438		control-noreward	ImageDisplay1		0.0		
68	616.427	0.75	control-noreward	StartDisplay				
68	617.179		control-noreward	ImageDisplay2		0.0		
68	620.439	1.6	control-noreward	ChoiceDisplay		0.0		
68	622.027	0.0	control-noreward	ChosenDisplay		0.0		
68	622.044	0.25	control-noreward	TurnDisplay				
68	622.278	0.75	control-noreward	OutcomeDisplay				
69	623.03		loss-noreward	ImageDisplay1		0.0		
69	625.036	0.75	loss-noreward	StartDisplay				
69	625.788		loss-noreward	ImageDisplay2		0.0		
69	629.031	1.6	loss-noreward	ChoiceDisplay	1	1.102	1	1
69	630.151	0.498	loss-noreward	ChosenDisplay		0.0		
69	630.636	0.25	loss-noreward	TurnDisplay				
69	630.887	0.75	loss-noreward	OutcomeDisplay				
70	631.639		win-reward	ImageDisplay1		0.0		
70	633.628	0.75	win-reward	StartDisplay				
70	634.381		win-reward	ImageDisplay2		0.0		
70	637.64	1.6	win-reward	ChoiceDisplay	1	1.117	1	1
70	638.777	0.483	win-reward	ChosenDisplay		0.0		
70	639.245	0.25	win-reward	TurnDisplay				
70	639.496	0.75	win-reward	OutcomeDisplay				
71	640.248		win-reward	ImageDisplay1		0.0		
71	642.488	0.75	win-reward	StartDisplay				
71	643.24		win-reward	ImageDisplay2		0.0		
71	646.249	1.6	win-reward	ChoiceDisplay	1	1.324	1	1
71	647.587	0.276	win-reward	ChosenDisplay		0.0		
71	647.854	0.25	win-reward	TurnDisplay				
71	648.105	0.75	win-reward	OutcomeDisplay				
72	648.857		control-reward	ImageDisplay1		0.0		
72	651.097	0.75	control-reward	StartDisplay				
72	651.849		control-reward	ImageDisplay2		0.0		
72	654.858	1.6	control-reward	ChoiceDisplay	1	1.185	1	1
72	656.062	0.415	control-reward	ChosenDisplay		0.0		
72	656.463	0.25	control-reward	TurnDisplay				
72	656.714	0.75	control-reward	OutcomeDisplay				
73	657.466		win-reward	ImageDisplay1		0.0		
73	659.456	0.75	win-reward	StartDisplay				
73	660.208		win-reward	ImageDisplay2		0.0		
73	663.47	1.6	win-reward	ChoiceDisplay	1	1.138	1	1
73	664.621	0.462	win-reward	ChosenDisplay		0.0		
73	665.072	0.25	win-reward	TurnDisplay				
73	665.323	0.75	win-reward	OutcomeDisplay				
74	666.075		loss-reward	ImageDisplay1		0.0		
74	668.315	0.75	loss-reward	StartDisplay				
74	669.068		loss-reward	ImageDisplay2		0.0		
74	672.077	1.6	loss-reward	ChoiceDisplay	1	1.518	1	1
74	673.615	0.0	loss-reward	ChosenDisplay		0.0		
74	673.681	0.25	loss-reward	TurnDisplay				
74	673.849	0.75	loss-reward	OutcomeDisplay				
75	674.601		loss-reward	ImageDisplay1		0.0		
75	676.858	0.75	loss-reward	StartDisplay				
75	677.593		loss-reward	ImageDisplay2		0.0		
75	680.602	1.6	loss-reward	ChoiceDisplay	1	1.01	1	1
75	681.639	0.59	loss-reward	ChosenDisplay		0.0		
75	682.207	0.25	loss-reward	TurnDisplay				
75	682.458	0.75	loss-reward	OutcomeDisplay				
76	683.21		control-reward	ImageDisplay1		0.0		
76	685.199	0.75	control-reward	StartDisplay				
76	685.951		control-reward	ImageDisplay2		0.0		
76	689.211	1.6	control-reward	ChoiceDisplay	1	1.094	1	1
76	690.331	0.506	control-reward	ChosenDisplay		0.0		
76	690.816	0.25	control-reward	TurnDisplay				
76	691.067	0.75	control-reward	OutcomeDisplay				
77	691.819		win-reward	ImageDisplay1		0.0		
77	693.808	0.75	win-reward	StartDisplay				
77	694.56		win-reward	ImageDisplay2		0.0		
77	697.82	1.6	win-reward	ChoiceDisplay	1	1.159	1	1
77	699.007	0.441	win-reward	ChosenDisplay		0.0		
77	699.425	0.25	win-reward	TurnDisplay				
77	699.676	0.75	win-reward	OutcomeDisplay				
78	700.428		win-noreward	ImageDisplay1		0.0		
78	702.434	0.75	win-noreward	StartDisplay				
78	703.17		win-noreward	ImageDisplay2		0.0		
78	706.429	1.6	win-noreward	ChoiceDisplay	1	1.501	1	1
78	707.951	0.0	win-noreward	ChosenDisplay		0.0		
78	708.034	0.25	win-noreward	TurnDisplay				
78	708.185	0.75	win-noreward	OutcomeDisplay				
79	708.937		win-noreward	ImageDisplay1		0.0		
79	710.943	0.75	win-noreward	StartDisplay				
79	711.678		win-noreward	ImageDisplay2		0.0		
79	714.938	1.6	win-noreward	ChoiceDisplay	1	1.122	1	1
79	716.075	0.478	win-noreward	ChosenDisplay		0.0		
79	716.543	0.25	win-noreward	TurnDisplay				
79	716.794	0.75	win-noreward	OutcomeDisplay				
80	717.546		control-noreward	ImageDisplay1		0.0		
80	719.535	0.75	control-noreward	StartDisplay				
80	720.287		control-noreward	ImageDisplay2		0.0		
80	723.547	1.6	control-noreward	ChoiceDisplay	1	1.061	1	1
80	724.634	0.539	control-noreward	ChosenDisplay		0.0		
80	725.152	0.25	control-noreward	TurnDisplay				
80	725.403	0.75	control-noreward	OutcomeDisplay				
81	726.155		loss-noreward	ImageDisplay1		0.0		
81	728.395	0.75	loss-noreward	StartDisplay				
81	729.147		loss-noreward	ImageDisplay2		0.0		
81	732.156	1.6	loss-noreward	ChoiceDisplay	1	1.219	1	1
81	733.393	0.381	loss-noreward	ChosenDisplay		0.0		
81	733.761	0.25	loss-noreward	TurnDisplay				
81	734.012	0.75	loss-noreward	OutcomeDisplay				
82	734.764		win-reward	ImageDisplay1		0.0		
82	736.753	0.75	win-reward	StartDisplay				
82	737.506		win-reward	ImageDisplay2		0.0		
82	740.765	1.6	win-reward	ChoiceDisplay	1	1.073	1	1
82	741.852	0.527	win-reward	ChosenDisplay		0.0		
82	742.37	0.25	win-reward	TurnDisplay				
82	742.621	0.75	win-reward	OutcomeDisplay				
83	743.373		control-noreward	ImageDisplay1		0.0		
83	745.613	0.75	control-noreward	StartDisplay				
83	746.365		control-noreward	ImageDisplay2		0.0		
83	749.374	1.6	control-noreward	ChoiceDisplay	1	1.226	1	1
83	750.628	0.374	control-noreward	ChosenDisplay		0.0		
83	750.979	0.25	control-noreward	TurnDisplay				
83	751.23	0.75	control-noreward	OutcomeDisplay				
84	751.982		control-noreward	ImageDisplay1		0.0		
84	754.222	0.75	control-noreward	StartDisplay				
84	754.974		control-noreward	ImageDisplay2		0.0		
84	757.983	1.6	control-noreward	ChoiceDisplay		0.0		
84	759.572	0.0	control-noreward	ChosenDisplay		0.0		
84	759.588	0.25	control-noreward	TurnDisplay				
84	759.822	0.75	control-noreward	OutcomeDisplay				
85	760.575		control-noreward	ImageDisplay1		0.0		
85	762.581	0.75	control-noreward	StartDisplay				
85	763.333		control-noreward	ImageDisplay2		0.0		
85	766.576	1.6	control-noreward	ChoiceDisplay	1	1.217	1	1
85	767.813	0.383	control-noreward	ChosenDisplay		0.0		
85	768.181	0.25	control-noreward	TurnDisplay				
85	768.431	0.75	control-noreward	OutcomeDisplay				
86	769.184		win-noreward	ImageDisplay1		0.0		
86	771.173	0.75	win-noreward	StartDisplay				
86	771.925		win-noreward	ImageDisplay2		0.0		
86	775.185	1.6	win-noreward	ChoiceDisplay	1	1.097	1	1
86	776.305	0.503	win-noreward	ChosenDisplay		0.0		
86	776.79	0.25	win-noreward	TurnDisplay				
86	777.04	0.75	win-noreward	OutcomeDisplay				
87	777.793		loss-reward	ImageDisplay1		0.0		
87	779.782	0.75	loss-reward	StartDisplay				
87	780.534		loss-reward	ImageDisplay2		0.0		
87	783.794	1.6	loss-reward	ChoiceDisplay	1	1.085	1	1
87	784.897	0.515	loss-reward	ChosenDisplay		0.0		
87	785.399	0.25	loss-reward	TurnDisplay				
87	785.65	0.75	loss-reward	OutcomeDisplay				
88	786.402		control-noreward	ImageDisplay1		0.0		
88	788.642	0.75	control-noreward	StartDisplay				
88	789.394		control-noreward	ImageDisplay2		0.0		
88	792.403	1.6	control-noreward	ChoiceDisplay	1	1.576	1	1
88	793.991	0.0	control-noreward	ChosenDisplay		0.0		
88	794.008	0.25	control-noreward	TurnDisplay				
88	794.242	0.75	control-noreward	OutcomeDisplay				
89	794.977		win-reward	ImageDisplay1		0.0		
89	797.234	0.75	win-reward	StartDisplay				
89	797.986		win-reward	ImageDisplay2		0.0		
89	800.979	1.6	win-reward	ChoiceDisplay		0.0		
89	802.583	0.0	win-reward	ChosenDisplay		0.0		
89	802.6	0.25	win-reward	TurnDisplay				
89	802.834	0.75	win-reward	OutcomeDisplay				
90	803.586		loss-reward	ImageDisplay1		0.0		
90	805.576	0.75	loss-reward	StartDisplay				
90	806.328		loss-reward	ImageDisplay2		0.0		
90	809.588	1.6	loss-reward	ChoiceDisplay	1	1.122	1	1
90	810.724	0.478	loss-reward	ChosenDisplay		0.0		
90	811.193	0.25	loss-reward	TurnDisplay				
90	811.443	0.75	loss-reward	OutcomeDisplay				
91	812.196		control-reward	ImageDisplay1		0.0		
91	814.436	0.75	control-reward	StartDisplay				
91	815.188		control-reward	ImageDisplay2		0.0		
91	818.197	1.6	control-reward	ChoiceDisplay	1	1.081	1	1
91	819.3	0.519	control-reward	ChosenDisplay		0.0		
91	819.802	0.25	control-reward	TurnDisplay				
91	820.052	0.75	control-reward	OutcomeDisplay				
92	820.805		loss-noreward	ImageDisplay1		0.0		
92	823.045	0.75	loss-noreward	StartDisplay				
92	823.797		loss-noreward	ImageDisplay2		0.0		
92	826.806	1.6	loss-noreward	ChoiceDisplay	1	1.199	1	1
92	828.026	0.401	loss-noreward	ChosenDisplay		0.0		
92	828.411	0.25	loss-noreward	TurnDisplay				
92	828.661	0.75	loss-noreward	OutcomeDisplay				
93	829.414		loss-reward	ImageDisplay1		0.0		
93	831.42	0.75	loss-reward	StartDisplay				
93	832.155		loss-reward	ImageDisplay2		0.0		
93	835.415	1.6	loss-reward	ChoiceDisplay	1	1.303	1	1
93	836.736	0.297	loss-reward	ChosenDisplay		0.0		
93	837.02	0.25	loss-reward	TurnDisplay				
93	837.271	0.75	loss-reward	OutcomeDisplay				
94	838.023		control-reward	ImageDisplay1		0.0		
94	840.263	0.75	control-reward	StartDisplay				
94	841.015		control-reward	ImageDisplay2		0.0		
94	844.024	1.6	control-reward	ChoiceDisplay		0.0		
94	845.612	0.0	control-reward	ChosenDisplay		0.0		
94	845.629	0.25	control-reward	TurnDisplay				
94	845.863	0.75	control-reward	OutcomeDisplay				
95	846.615		win-noreward	ImageDisplay1		0.0		
95	848.872	0.75	win-noreward	StartDisplay				
95	849.624		win-noreward	ImageDisplay2		0.0		
95	852.616	1.6	win-noreward	ChoiceDisplay	1	0.811	1	1
95	853.452	0.789	win-noreward	ChosenDisplay		0.0		
95	854.221	0.25	win-noreward	TurnDisplay				
95	854.472	0.75	win-noreward	OutcomeDisplay				
