onset	duration	trial_type	response_time	stim_file	accuracy
70.086	1.0	go	0.0	Go_X	0.0
72.61	1.0	go	0.559	Go_O	1.0
75.134	1.0	go	0.616	Go_O	1.0
77.658	1.0	go	0.529	Go_X	1.0
80.183	1.0	go	0.624	Go_X	1.0
82.707	1.0	go	0.597	Go_O	1.0
85.231	0.25	stop	0.0	Go_O	1.0
87.755	1.0	go	0.489	Go_X	1.0
90.279	0.3	stop	0.0	Go_X	1.0
92.804	1.0	go	0.381	Go_O	1.0
95.328	1.0	go	0.0	Go_X	0.0
97.852	1.0	go	0.484	Go_O	1.0
100.376	0.35	stop	0.446	Go_O	0.0
102.9	1.0	go	0.777	Go_X	1.0
105.425	1.0	go	0.365	Go_O	1.0
107.949	0.3	stop	0.0	Go_X	1.0
110.473	0.35	stop	0.403	Go_O	0.0
112.997	1.0	go	0.778	Go_X	1.0
115.521	1.0	go	0.402	Go_O	1.0
118.046	0.3	stop	0.0	Go_X	1.0
120.57	1.0	go	0.859	Go_X	1.0
123.094	1.0	go	0.786	Go_O	1.0
125.618	0.35	stop	0.0	Go_O	1.0
128.142	1.0	go	0.0	Go_X	0.0
130.667	1.0	go	0.67	Go_O	1.0
133.191	0.4	stop	0.617	Go_X	0.0
135.715	1.0	go	0.582	Go_O	1.0
138.239	1.0	go	0.812	Go_X	1.0
140.763	0.35	stop	0.52	Go_O	0.0
143.304	1.0	go	0.682	Go_X	1.0
145.829	1.0	go	0.905	Go_O	1.0
148.353	1.0	go	0.609	Go_X	1.0
150.877	1.0	go	0.489	Go_O	1.0
153.401	1.0	go	0.932	Go_O	1.0
155.925	0.3	stop	0.0	Go_X	1.0
158.45	1.0	go	0.572	Go_X	1.0
160.974	1.0	go	0.677	Go_X	1.0
163.498	1.0	go	0.607	Go_O	1.0
166.022	1.0	go	0.596	Go_O	1.0
168.546	1.0	go	0.735	Go_X	1.0
171.071	0.35	stop	0.0	Go_O	1.0
173.595	1.0	go	0.69	Go_X	1.0
176.119	1.0	go	0.674	Go_O	1.0
178.643	1.0	go	0.757	Go_X	1.0
181.167	1.0	go	0.723	Go_O	1.0
183.692	1.0	go	0.766	Go_X	1.0
186.216	1.0	go	0.56	Go_O	1.0
188.74	0.4	stop	0.0	Go_X	1.0
191.264	1.0	go	0.7	Go_O	1.0
193.788	1.0	go	0.809	Go_X	1.0
196.313	0.45	stop	0.704	Go_O	0.0
198.837	1.0	go	0.0	Go_X	0.0
201.361	0.4	stop	0.0	Go_X	1.0
203.885	0.45	stop	0.567	Go_O	0.0
206.409	1.0	go	0.876	Go_O	1.0
208.934	1.0	go	0.774	Go_O	1.0
211.458	1.0	go	0.8	Go_X	1.0
213.982	1.0	go	0.88	Go_O	1.0
216.506	0.4	stop	0.0	Go_X	1.0
219.03	1.0	go	0.725	Go_X	1.0
221.555	0.45	stop	0.0	Go_O	1.0
224.079	1.0	go	0.712	Go_O	1.0
226.603	1.0	go	0.832	Go_X	1.0
229.127	1.0	go	0.752	Go_X	1.0
231.651	1.0	go	0.701	Go_O	1.0
234.176	1.0	go	0.0	Go_X	0.0
236.7	1.0	go	0.61	Go_O	1.0
239.224	1.0	go	0.959	Go_O	1.0
241.748	1.0	go	0.829	Go_X	1.0
244.272	1.0	go	0.8	Go_X	1.0
246.797	0.5	stop	0.626	Go_X	0.0
249.321	1.0	go	0.59	Go_O	1.0
251.845	1.0	go	0.647	Go_O	1.0
254.369	1.0	go	0.529	Go_X	1.0
256.893	0.45	stop	0.0	Go_O	1.0
259.418	1.0	go	0.76	Go_O	1.0
261.942	1.0	go	0.91	Go_X	1.0
264.466	1.0	go	0.548	Go_O	1.0
266.99	1.0	go	0.575	Go_X	1.0
269.514	1.0	go	0.658	Go_X	1.0
272.039	1.0	go	0.778	Go_O	1.0
274.563	0.5	stop	0.627	Go_X	0.0
277.087	1.0	go	0.595	Go_O	1.0
279.611	1.0	go	0.896	Go_X	1.0
282.136	0.45	stop	0.0	Go_O	1.0
284.66	1.0	go	0.531	Go_O	1.0
287.184	1.0	go	0.607	Go_X	1.0
289.708	0.5	stop	0.0	Go_X	1.0
292.232	1.0	go	0.0	Go_O	0.0
294.757	0.55	stop	0.616	Go_O	0.0
297.281	1.0	go	0.594	Go_X	1.0
299.805	1.0	go	0.527	Go_O	1.0
302.329	1.0	go	0.769	Go_X	1.0
304.853	1.0	go	0.0	Go_X	0.0
307.378	1.0	go	0.417	Go_O	1.0
309.902	0.5	stop	0.634	Go_X	0.0
312.426	0.45	stop	0.484	Go_O	0.0
314.95	1.0	go	0.847	Go_X	1.0
317.474	1.0	go	0.681	Go_O	1.0
319.999	0.4	stop	0.0	Go_X	1.0
322.523	1.0	go	0.612	Go_X	1.0
325.047	1.0	go	0.863	Go_O	1.0
327.571	1.0	go	0.959	Go_X	1.0
330.095	1.0	go	0.497	Go_O	1.0
332.62	1.0	go	0.768	Go_O	1.0
335.144	1.0	go	0.988	Go_X	1.0
337.668	0.45	stop	0.581	Go_O	0.0
340.192	1.0	go	0.628	Go_O	0.0
342.716	1.0	go	0.751	Go_X	0.0
345.241	1.0	go	0.529	Go_X	1.0
347.765	1.0	go	0.572	Go_O	1.0
350.289	1.0	go	0.561	Go_X	1.0
352.813	0.4	stop	0.585	Go_X	0.0
355.337	1.0	go	0.537	Go_O	1.0
357.862	1.0	go	0.617	Go_O	1.0
360.386	1.0	go	0.816	Go_X	1.0
362.91	1.0	go	0.715	Go_X	1.0
365.434	0.35	stop	0.0	Go_O	1.0
367.958	1.0	go	0.685	Go_O	1.0
370.483	1.0	go	0.737	Go_O	1.0
373.007	0.4	stop	0.0	Go_X	1.0
375.531	1.0	go	0.643	Go_X	1.0
378.055	0.45	stop	0.0	Go_O	1.0
380.579	1.0	go	0.685	Go_X	1.0
383.104	1.0	go	0.709	Go_O	1.0
385.628	1.0	go	0.831	Go_X	1.0
388.152	1.0	go	0.772	Go_O	1.0
390.676	1.0	go	0.924	Go_X	1.0
393.2	1.0	go	0.663	Go_O	1.0
395.725	1.0	go	0.0	Go_O	0.0
398.249	0.5	stop	0.589	Go_X	0.0
400.773	1.0	go	0.0	Go_X	0.0
403.297	1.0	go	0.639	Go_X	1.0
405.821	1.0	go	0.604	Go_O	1.0
408.346	0.45	stop	0.688	Go_O	0.0
410.87	1.0	go	0.578	Go_O	1.0
413.394	1.0	go	0.574	Go_X	1.0
415.918	1.0	go	0.682	Go_X	1.0
418.442	1.0	go	0.868	Go_O	1.0
420.967	0.4	stop	0.0	Go_X	1.0
423.491	1.0	go	0.711	Go_X	1.0
426.015	1.0	go	0.492	Go_O	1.0
428.539	0.45	stop	0.539	Go_O	0.0
431.063	1.0	go	0.0	Go_O	0.0
433.588	1.0	go	0.759	Go_X	1.0
436.112	0.4	stop	0.579	Go_X	0.0
438.636	1.0	go	0.558	Go_O	1.0
441.16	1.0	go	0.781	Go_X	0.0
443.685	0.35	stop	0.0	Go_O	1.0
446.209	1.0	go	0.871	Go_X	1.0
448.733	1.0	go	0.409	Go_O	1.0
451.257	1.0	go	0.664	Go_X	1.0
453.781	1.0	go	0.602	Go_O	1.0
456.306	1.0	go	0.689	Go_O	1.0
458.83	1.0	go	0.958	Go_X	1.0
461.354	0.4	stop	0.0	Go_X	1.0
463.878	1.0	go	0.51	Go_O	1.0
466.402	0.45	stop	0.0	Go_O	1.0
468.927	1.0	go	0.776	Go_X	1.0
471.451	1.0	go	0.538	Go_X	1.0
473.975	1.0	go	0.43	Go_O	1.0
476.499	1.0	go	0.816	Go_O	1.0
479.023	1.0	go	0.78	Go_X	1.0
481.548	0.5	stop	0.0	Go_X	1.0
484.088	1.0	go	0.583	Go_O	1.0
486.613	1.0	go	0.0	Go_X	0.0
489.137	1.0	go	0.445	Go_O	1.0
491.661	0.55	stop	0.65	Go_O	0.0
494.185	0.5	stop	0.476	Go_X	0.0
496.709	0.45	stop	0.593	Go_O	0.0
499.234	1.0	go	0.767	Go_X	1.0
501.758	0.4	stop	0.0	Go_X	1.0
504.282	1.0	go	0.622	Go_O	1.0
506.806	1.0	go	0.883	Go_X	1.0
509.33	1.0	go	0.902	Go_X	1.0
511.855	1.0	go	0.605	Go_O	1.0
514.379	1.0	go	0.654	Go_X	1.0
516.903	1.0	go	0.748	Go_O	1.0
519.427	1.0	go	0.894	Go_O	1.0
521.951	1.0	go	0.904	Go_X	1.0
524.476	0.45	stop	0.0	Go_O	1.0
527.017	1.0	go	0.608	Go_O	1.0
529.541	1.0	go	0.0	Go_X	0.0
532.065	0.5	stop	0.41	Go_X	0.0
534.589	1.0	go	0.709	Go_O	1.0
537.113	1.0	go	0.74	Go_X	1.0
539.638	1.0	go	0.716	Go_X	1.0
542.162	1.0	go	0.716	Go_O	1.0
544.686	1.0	go	0.75	Go_O	1.0
547.21	0.45	stop	0.0	Go_O	1.0
549.734	1.0	go	0.704	Go_X	1.0
552.259	1.0	go	0.836	Go_X	1.0
554.783	1.0	go	0.654	Go_O	1.0
557.307	0.5	stop	0.635	Go_X	0.0
559.831	1.0	go	0.606	Go_O	1.0
562.355	0.45	stop	0.0	Go_O	1.0
564.88	1.0	go	0.766	Go_X	1.0
567.404	1.0	go	0.792	Go_O	1.0
569.928	1.0	go	0.944	Go_X	1.0
572.452	1.0	go	0.0	Go_X	0.0
574.976	1.0	go	0.694	Go_O	1.0
577.501	1.0	go	0.642	Go_X	1.0
580.025	1.0	go	0.968	Go_O	1.0
582.549	0.5	stop	0.0	Go_X	1.0
585.073	1.0	go	0.549	Go_O	1.0
587.597	1.0	go	0.93	Go_X	1.0
590.122	1.0	go	0.818	Go_X	1.0
592.646	1.0	go	0.505	Go_O	1.0
595.17	0.55	stop	0.0	Go_O	1.0
597.694	1.0	go	0.475	Go_X	1.0
600.219	0.6	stop	0.577	Go_X	0.0
602.743	1.0	go	0.51	Go_O	1.0
605.267	1.0	go	0.989	Go_O	1.0
607.791	0.55	stop	0.546	Go_O	0.0
610.315	1.0	go	0.825	Go_X	1.0
612.84	1.0	go	0.786	Go_X	1.0
615.364	1.0	go	0.877	Go_O	1.0
617.888	1.0	go	0.787	Go_X	1.0
620.412	1.0	go	0.692	Go_O	1.0
622.936	1.0	go	0.829	Go_O	1.0
625.461	1.0	go	0.63	Go_X	1.0
627.985	1.0	go	0.8	Go_X	1.0
630.509	1.0	go	0.89	Go_O	1.0
633.033	1.0	go	0.811	Go_X	1.0
635.557	0.5	stop	0.0	Go_X	1.0
638.082	1.0	go	0.848	Go_O	1.0
640.606	1.0	go	0.723	Go_X	1.0
643.13	0.55	stop	0.0	Go_O	1.0
645.654	1.0	go	0.841	Go_O	1.0
648.178	0.6	stop	0.0	Go_X	1.0
650.703	1.0	go	0.866	Go_X	1.0
653.227	1.0	go	0.744	Go_O	1.0
655.751	0.65	stop	0.0	Go_O	1.0
658.275	1.0	go	0.845	Go_X	1.0
660.799	0.7	stop	0.0	Go_X	1.0
663.324	1.0	go	0.882	Go_O	1.0
665.848	1.0	go	0.0	Go_X	0.0
668.372	1.0	go	0.961	Go_O	1.0
670.896	0.75	stop	0.546	Go_O	0.0
673.42	1.0	go	0.992	Go_O	1.0
675.945	1.0	go	0.831	Go_X	1.0
678.469	1.0	go	0.745	Go_X	1.0
680.993	1.0	go	0.648	Go_O	1.0
683.517	0.7	stop	0.685	Go_X	0.0
686.041	1.0	go	0.793	Go_X	1.0
688.566	1.0	go	0.8	Go_O	1.0
691.09	0.65	stop	0.737	Go_O	0.0
693.614	1.0	go	0.865	Go_O	1.0
696.138	1.0	go	0.882	Go_X	1.0
698.662	1.0	go	0.828	Go_O	1.0
701.187	1.0	go	0.696	Go_X	1.0
703.711	0.6	stop	0.0	Go_X	1.0
706.235	1.0	go	0.762	Go_O	1.0
708.759	0.65	stop	0.0	Go_O	1.0
711.283	1.0	go	0.757	Go_X	1.0
713.808	1.0	go	0.0	Go_X	0.0
716.332	0.7	stop	0.474	Go_X	0.0
718.856	1.0	go	0.823	Go_O	1.0
721.38	1.0	go	0.0	Go_O	0.0
723.904	1.0	go	0.425	Go_X	1.0
726.429	1.0	go	0.563	Go_X	1.0
728.953	0.65	stop	0.807	Go_O	0.0
731.477	1.0	go	0.828	Go_O	1.0
734.001	0.6	stop	0.725	Go_X	0.0
736.525	1.0	go	0.0	Go_X	0.0
739.05	1.0	go	0.0	Go_O	0.0
741.591	1.0	go	0.712	Go_X	1.0
744.115	1.0	go	0.588	Go_O	1.0
746.639	1.0	go	0.745	Go_X	1.0
749.163	1.0	go	0.683	Go_O	1.0
751.687	0.55	stop	0.0	Go_O	1.0
754.212	1.0	go	0.706	Go_X	1.0
756.736	1.0	go	0.736	Go_O	1.0
759.26	0.6	stop	0.532	Go_X	0.0
761.784	1.0	go	0.814	Go_O	1.0
764.308	1.0	go	0.921	Go_X	1.0
766.833	0.55	stop	0.565	Go_O	0.0
769.357	1.0	go	0.698	Go_O	1.0
771.881	1.0	go	0.672	Go_X	1.0
774.405	1.0	go	0.582	Go_X	1.0
776.929	1.0	go	0.547	Go_O	1.0
779.454	0.5	stop	0.0	Go_X	1.0
781.978	1.0	go	0.945	Go_X	1.0
784.502	0.55	stop	0.52	Go_O	0.0
787.026	1.0	go	0.81	Go_O	1.0
789.55	1.0	go	0.799	Go_X	1.0
792.075	1.0	go	0.771	Go_O	1.0
794.599	1.0	go	0.835	Go_O	1.0
797.123	1.0	go	0.828	Go_X	1.0
799.647	0.5	stop	0.716	Go_X	0.0
802.171	1.0	go	0.683	Go_O	1.0
804.696	1.0	go	0.717	Go_X	1.0
807.22	0.45	stop	0.0	Go_O	1.0
809.744	0.5	stop	0.676	Go_X	0.0
812.268	1.0	go	0.742	Go_O	1.0
814.792	1.0	go	0.804	Go_X	1.0
817.317	1.0	go	0.803	Go_O	1.0
819.841	1.0	go	0.768	Go_X	1.0
822.365	0.45	stop	0.0	Go_O	1.0
824.889	1.0	go	0.706	Go_X	1.0
