onset	duration	trial_type	response_time	stim_file	accuracy
114.669	1.0	go	0.6	Go_O	1.0
117.26	1.0	go	0.32	Go_X	1.0
119.785	1.0	go	0.341	Go_X	1.0
122.309	1.0	go	0.284	Go_O	1.0
124.833	1.0	go	0.367	Go_X	1.0
127.357	1.0	go	0.335	Go_O	1.0
129.881	0.25	stopsuccess	0.0	Go_O	1.0
132.406	1.0	go	0.3	Go_X	1.0
134.93	0.3	stopfail	0.427	Go_X	0.0
137.454	1.0	go	0.304	Go_O	1.0
139.978	1.0	go	0.538	Go_X	1.0
142.502	1.0	go	0.418	Go_O	1.0
145.027	0.25	stopfail	0.39	Go_O	0.0
147.551	1.0	go	0.366	Go_O	1.0
150.075	1.0	go	0.275	Go_X	1.0
152.599	0.2	stopsuccess	0.0	Go_X	1.0
155.124	0.25	stopfail	0.275	Go_O	0.0
157.648	1.0	go	0.316	Go_X	1.0
160.172	1.0	go	0.297	Go_O	1.0
162.696	0.2	stopsuccess	0.0	Go_X	1.0
165.22	1.0	go	0.492	Go_O	1.0
167.745	1.0	go	0.31	Go_X	1.0
170.269	0.25	stopfail	0.216	Go_O	0.0
172.793	1.0	go	0.437	Go_O	1.0
175.317	1.0	go	0.285	Go_X	1.0
177.841	0.2	stopsuccess	0.0	Go_X	1.0
180.366	1.0	go	0.326	Go_O	1.0
182.89	1.0	go	0.49	Go_X	1.0
185.414	0.25	stopsuccess	0.0	Go_O	1.0
187.938	1.0	go	0.394	Go_X	1.0
190.462	1.0	go	0.35	Go_O	1.0
192.987	1.0	go	0.476	Go_O	1.0
195.511	1.0	go	0.517	Go_X	1.0
198.035	1.0	go	0.56	Go_X	1.0
200.559	0.3	stopfail	0.301	Go_X	0.0
203.083	1.0	go	0.33	Go_O	1.0
205.608	1.0	go	0.429	Go_X	1.0
208.132	1.0	go	0.276	Go_O	1.0
210.656	1.0	go	0.478	Go_O	1.0
213.18	1.0	go	0.408	Go_X	1.0
215.704	0.25	stopsuccess	0.0	Go_O	1.0
218.229	1.0	go	0.47	Go_X	1.0
220.753	1.0	go	0.594	Go_O	1.0
223.277	1.0	go	0.479	Go_O	1.0
225.801	1.0	go	0.221	Go_X	1.0
228.325	1.0	go	0.433	Go_X	1.0
230.85	1.0	go	0.402	Go_O	1.0
233.374	0.3	stopfail	0.468	Go_X	0.0
235.898	1.0	go	0.629	Go_O	1.0
238.422	1.0	go	0.464	Go_X	1.0
240.963	0.25	stopfail	0.343	Go_O	0.0
243.487	1.0	go	0.421	Go_X	1.0
246.012	0.2	stopsuccess	0.0	Go_X	1.0
248.536	0.25	stopsuccess	0.0	Go_O	1.0
251.06	1.0	go	0.396	Go_O	1.0
253.584	1.0	go	0.47	Go_X	1.0
256.108	1.0	go	0.378	Go_O	1.0
258.633	1.0	go	0.478	Go_X	1.0
261.157	0.3	stopsuccess	0.0	Go_X	1.0
263.681	1.0	go	0.382	Go_O	1.0
266.205	0.35	stopsuccess	0.0	Go_O	1.0
268.729	1.0	go	0.586	Go_X	1.0
271.254	1.0	go	0.435	Go_O	1.0
273.778	1.0	go	0.302	Go_X	1.0
276.302	1.0	go	0.463	Go_O	1.0
278.826	1.0	go	0.594	Go_O	1.0
281.35	1.0	go	0.356	Go_X	1.0
283.875	1.0	go	0.92	Go_O	1.0
286.399	1.0	go	0.387	Go_X	1.0
288.923	1.0	go	0.455	Go_X	1.0
291.447	0.4	stopfail	0.37	Go_X	0.0
293.971	1.0	go	0.606	Go_O	1.0
296.496	1.0	go	0.882	Go_X	1.0
299.02	1.0	go	0.746	Go_O	1.0
301.544	0.35	stopsuccess	0.0	Go_O	1.0
304.068	1.0	go	0.385	Go_O	1.0
306.592	1.0	go	0.656	Go_X	1.0
309.117	1.0	go	0.412	Go_O	1.0
311.641	1.0	go	0.498	Go_X	0.0
314.165	1.0	go	0.495	Go_X	0.0
316.689	1.0	go	0.486	Go_O	1.0
319.213	0.4	stopsuccess	0.0	Go_X	1.0
321.738	1.0	go	0.928	Go_X	1.0
324.262	1.0	go	0.328	Go_O	1.0
326.786	0.45	stopfail	0.602	Go_O	0.0
329.31	1.0	go	0.346	Go_X	1.0
331.834	1.0	go	0.332	Go_O	1.0
334.359	0.4	stopfail	0.494	Go_X	0.0
336.883	1.0	go	0.517	Go_X	1.0
339.407	0.35	stopfail	0.305	Go_O	0.0
341.931	1.0	go	0.464	Go_O	1.0
344.455	1.0	go	0.468	Go_X	1.0
346.98	1.0	go	0.326	Go_O	1.0
349.504	1.0	go	0.396	Go_X	1.0
352.028	1.0	go	0.345	Go_O	1.0
354.552	0.3	stopsuccess	0.0	Go_X	1.0
357.076	0.35	stopfail	0.542	Go_O	0.0
359.601	1.0	go	0.294	Go_X	1.0
362.125	1.0	go	0.273	Go_O	1.0
364.649	0.3	stopfail	0.445	Go_X	0.0
367.173	1.0	go	0.56	Go_X	1.0
369.697	1.0	go	0.515	Go_O	1.0
372.222	1.0	go	0.716	Go_X	1.0
374.746	1.0	go	0.455	Go_O	1.0
377.27	1.0	go	0.426	Go_X	1.0
379.794	1.0	go	0.407	Go_O	1.0
382.319	0.25	stopsuccess	0.0	Go_O	1.0
384.843	1.0	go	0.522	Go_O	1.0
387.367	1.0	go	0.0	Go_X	0.0
389.891	1.0	go	0.576	Go_O	1.0
392.415	1.0	go	0.619	Go_X	1.0
394.94	1.0	go	0.459	Go_X	1.0
397.464	0.3	stopsuccess	0.0	Go_X	1.0
399.988	1.0	go	0.625	Go_O	1.0
402.512	1.0	go	0.0	Go_X	0.0
405.036	1.0	go	0.456	Go_O	1.0
407.561	1.0	go	0.555	Go_X	1.0
410.085	0.35	stopfail	0.324	Go_O	0.0
412.609	1.0	go	0.611	Go_O	0.0
415.133	1.0	go	0.787	Go_X	1.0
417.657	0.3	stopfail	0.703	Go_X	0.0
420.182	1.0	go	0.356	Go_O	1.0
422.706	0.25	stopsuccess	0.0	Go_O	1.0
425.23	1.0	go	0.695	Go_O	1.0
427.754	1.0	go	0.0	Go_X	0.0
430.278	1.0	go	0.846	Go_O	1.0
432.803	1.0	go	0.542	Go_X	1.0
435.327	1.0	go	0.479	Go_X	1.0
437.851	1.0	go	0.506	Go_O	1.0
440.375	1.0	go	0.749	Go_O	1.0
442.899	0.3	stopfail	0.775	Go_X	0.0
445.424	1.0	go	0.528	Go_X	1.0
447.948	1.0	go	0.651	Go_O	1.0
450.472	1.0	go	0.0	Go_X	0.0
452.996	0.25	stopfail	0.362	Go_O	0.0
455.52	1.0	go	0.789	Go_X	0.0
458.045	1.0	go	0.0	Go_O	0.0
460.569	1.0	go	0.392	Go_X	1.0
463.093	1.0	go	0.846	Go_O	1.0
465.617	0.2	stopsuccess	0.0	Go_X	1.0
468.141	1.0	go	0.584	Go_X	1.0
470.666	1.0	go	0.476	Go_O	1.0
473.19	0.25	stopsuccess	0.0	Go_O	1.0
475.714	1.0	go	0.0	Go_O	0.0
478.238	1.0	go	0.0	Go_X	0.0
480.762	0.3	stopfail	0.568	Go_X	0.0
483.287	1.0	go	0.415	Go_O	1.0
485.811	1.0	go	0.488	Go_X	1.0
488.335	0.25	stopsuccess	0.0	Go_O	1.0
490.859	1.0	go	0.774	Go_O	1.0
493.383	1.0	go	0.0	Go_X	0.0
495.908	1.0	go	0.0	Go_O	0.0
498.432	1.0	go	0.0	Go_X	0.0
500.956	1.0	go	0.781	Go_X	1.0
503.48	1.0	go	0.481	Go_O	1.0
506.004	0.3	stopfail	0.295	Go_X	0.0
508.529	1.0	go	0.414	Go_O	1.0
511.053	0.25	stopsuccess	0.0	Go_O	1.0
513.577	1.0	go	0.0	Go_X	0.0
516.101	1.0	go	0.0	Go_X	0.0
518.625	1.0	go	0.0	Go_O	0.0
521.15	1.0	go	0.0	Go_O	0.0
523.674	1.0	go	0.0	Go_X	0.0
526.198	0.3	stopfail	0.457	Go_X	0.0
528.722	1.0	go	0.364	Go_O	1.0
531.246	1.0	go	0.795	Go_X	1.0
533.771	1.0	go	0.0	Go_X	0.0
536.295	0.25	stopfail	0.456	Go_O	0.0
538.819	0.2	stopsuccess	0.0	Go_X	1.0
541.343	0.25	stopfail	0.846	Go_O	0.0
543.868	1.0	go	0.59	Go_O	1.0
546.392	0.2	stopsuccess	0.0	Go_X	1.0
548.916	1.0	go	0.0	Go_X	0.0
551.457	1.0	go	0.0	Go_O	0.0
553.981	1.0	go	0.0	Go_O	0.0
556.505	1.0	go	0.0	Go_X	0.0
559.029	1.0	go	0.0	Go_X	0.0
561.554	1.0	go	0.0	Go_O	0.0
564.078	1.0	go	0.321	Go_X	1.0
566.602	1.0	go	0.302	Go_O	1.0
569.126	0.25	stopfail	0.324	Go_O	0.0
571.65	1.0	go	0.0	Go_O	0.0
574.175	1.0	go	0.666	Go_X	1.0
576.699	0.2	stopsuccess	0.0	Go_X	1.0
579.223	1.0	go	0.0	Go_O	0.0
581.747	1.0	go	0.0	Go_X	0.0
584.271	1.0	go	0.0	Go_X	0.0
586.796	1.0	go	0.0	Go_O	0.0
589.32	1.0	go	0.0	Go_X	0.0
591.844	0.25	stopsuccess	0.0	Go_O	1.0
594.368	1.0	go	0.381	Go_O	1.0
596.892	1.0	go	0.386	Go_X	1.0
599.417	1.0	go	0.374	Go_O	1.0
601.941	0.3	stopsuccess	0.0	Go_X	1.0
604.465	1.0	go	0.385	Go_X	1.0
606.989	0.35	stopsuccess	0.0	Go_O	1.0
609.514	1.0	go	0.0	Go_O	0.0
612.038	1.0	go	0.0	Go_O	0.0
614.562	1.0	go	0.0	Go_X	0.0
617.086	1.0	go	0.0	Go_O	0.0
619.61	1.0	go	0.0	Go_X	0.0
622.135	1.0	go	0.0	Go_O	0.0
624.659	1.0	go	0.0	Go_X	0.0
627.183	0.4	stopfail	0.319	Go_X	0.0
629.707	1.0	go	0.0	Go_X	0.0
632.231	1.0	go	0.563	Go_O	1.0
634.756	1.0	go	0.0	Go_X	0.0
637.28	1.0	go	0.0	Go_O	0.0
639.804	0.35	stopsuccess	0.0	Go_O	1.0
642.328	1.0	go	0.0	Go_X	0.0
644.852	0.4	stopsuccess	0.0	Go_X	1.0
647.377	1.0	go	0.0	Go_O	0.0
649.901	1.0	go	0.865	Go_O	1.0
652.425	0.45	stopfail	0.48	Go_O	0.0
654.949	1.0	go	0.4	Go_X	1.0
657.473	1.0	go	0.0	Go_X	0.0
659.998	1.0	go	0.494	Go_O	1.0
662.522	1.0	go	0.423	Go_O	1.0
665.046	1.0	go	0.0	Go_X	0.0
667.57	1.0	go	0.0	Go_X	0.0
670.094	1.0	go	0.0	Go_O	0.0
672.619	1.0	go	0.0	Go_X	0.0
675.143	1.0	go	0.0	Go_O	0.0
677.667	1.0	go	0.0	Go_X	0.0
680.191	0.4	stopsuccess	0.0	Go_X	1.0
682.715	1.0	go	0.0	Go_O	0.0
685.24	1.0	go	0.0	Go_X	0.0
687.764	0.45	stopsuccess	0.0	Go_O	1.0
690.288	1.0	go	0.0	Go_O	0.0
692.812	0.5	stopsuccess	0.0	Go_X	1.0
695.336	1.0	go	0.0	Go_O	0.0
697.861	1.0	go	0.0	Go_X	0.0
700.385	0.55	stopsuccess	0.0	Go_O	1.0
702.909	1.0	go	0.0	Go_X	0.0
705.433	0.6	stopsuccess	0.0	Go_X	1.0
707.957	1.0	go	0.0	Go_O	0.0
710.482	1.0	go	0.0	Go_O	0.0
713.006	1.0	go	0.0	Go_X	0.0
715.53	0.65	stopsuccess	0.0	Go_O	1.0
718.054	1.0	go	0.0	Go_X	0.0
720.578	1.0	go	0.0	Go_O	0.0
723.103	1.0	go	0.0	Go_O	0.0
725.627	1.0	go	0.0	Go_X	0.0
728.151	0.7	stopsuccess	0.0	Go_X	1.0
730.675	1.0	go	0.0	Go_X	0.0
733.199	1.0	go	0.0	Go_O	0.0
735.724	0.75	stopsuccess	0.0	Go_O	1.0
738.248	1.0	go	0.539	Go_X	1.0
740.772	1.0	go	0.465	Go_O	1.0
743.296	1.0	go	0.323	Go_X	1.0
745.82	1.0	go	0.373	Go_O	1.0
748.345	0.8	stopfail	0.305	Go_X	0.0
750.869	1.0	go	0.494	Go_X	1.0
753.393	0.75	stopfail	0.31	Go_O	0.0
755.917	1.0	go	0.726	Go_O	1.0
758.441	1.0	go	0.0	Go_X	0.0
760.966	0.7	stopsuccess	0.0	Go_X	1.0
763.49	1.0	go	0.0	Go_O	0.0
766.014	1.0	go	0.0	Go_O	0.0
768.538	1.0	go	0.0	Go_X	0.0
771.062	1.0	go	0.0	Go_X	0.0
773.587	0.75	stopsuccess	0.0	Go_O	1.0
776.111	1.0	go	0.0	Go_O	0.0
778.635	0.8	stopsuccess	0.0	Go_X	1.0
781.159	1.0	go	0.0	Go_O	0.0
783.683	1.0	go	0.0	Go_X	0.0
786.208	1.0	go	0.0	Go_X	0.0
788.732	1.0	go	0.0	Go_O	0.0
791.256	1.0	go	0.0	Go_X	0.0
793.78	1.0	go	0.0	Go_O	0.0
796.305	0.85	stopfail	0.526	Go_O	0.0
798.829	1.0	go	0.561	Go_O	1.0
801.353	1.0	go	0.0	Go_X	0.0
803.877	0.8	stopsuccess	0.0	Go_X	1.0
806.401	1.0	go	0.0	Go_X	0.0
808.926	1.0	go	0.0	Go_O	0.0
811.45	0.85	stopsuccess	0.0	Go_O	1.0
813.974	1.0	go	0.0	Go_O	0.0
816.498	1.0	go	0.0	Go_X	0.0
819.022	1.0	go	0.0	Go_X	0.0
821.547	1.0	go	0.0	Go_O	0.0
824.071	0.9	stopsuccess	0.0	Go_X	1.0
826.595	1.0	go	0.0	Go_X	0.0
829.119	0.95	stopsuccess	0.0	Go_O	1.0
831.643	1.0	go	0.0	Go_O	0.0
834.168	1.0	go	0.0	Go_O	0.0
836.692	1.0	go	0.0	Go_X	0.0
839.216	1.0	go	0.0	Go_O	0.0
841.74	1.0	go	0.0	Go_X	0.0
844.264	1.0	stopsuccess	0.0	Go_X	1.0
846.805	1.0	go	0.0	Go_X	0.0
849.33	1.0	go	0.0	Go_O	0.0
851.854	1.05	stopsuccess	0.0	Go_O	1.0
854.445	1.1	stopsuccess	0.0	Go_X	1.0
857.086	1.0	go	0.0	Go_X	0.0
859.61	1.0	go	0.0	Go_O	0.0
862.134	1.0	go	0.0	Go_O	0.0
864.659	1.0	go	0.0	Go_X	0.0
867.183	1.15	stopsuccess	0.0	Go_O	1.0
869.874	1.0	go	0.0	Go_X	0.0
