frame	onset	duration	trial_type	event_type	response_type	response_time	stim_file	accuracy
0	127.279		win-noreward	ImageDisplay1		0.0		
0	129.502	0.75	win-noreward	StartDisplay				
0	130.254		win-noreward	ImageDisplay2		0.0		
0	133.263	1.6	win-noreward	ChoiceDisplay	1	0.959	1	1
0	134.25	0.641	win-noreward	ChosenDisplay		0.0		
0	134.868	0.25	win-noreward	TurnDisplay				
0	135.119	0.75	win-noreward	OutcomeDisplay				
1	135.871		control-reward	ImageDisplay1		0.0		
1	137.86	0.75	control-reward	StartDisplay				
1	138.613		control-reward	ImageDisplay2		0.0		
1	141.872	1.6	control-reward	ChoiceDisplay	1	0.911	1	1
1	142.808	0.689	control-reward	ChosenDisplay		0.0		
1	143.477	0.25	control-reward	TurnDisplay				
1	143.728	0.75	control-reward	OutcomeDisplay				
2	144.48		control-reward	ImageDisplay1		0.0		
2	146.469	0.75	control-reward	StartDisplay				
2	147.221		control-reward	ImageDisplay2		0.0		
2	150.481	1.6	control-reward	ChoiceDisplay	1	0.86	1	1
2	151.367	0.74	control-reward	ChosenDisplay		0.0		
2	152.086	0.25	control-reward	TurnDisplay				
2	152.337	0.75	control-reward	OutcomeDisplay				
3	153.089		win-reward	ImageDisplay1		0.0		
3	155.329	0.75	win-reward	StartDisplay				
3	156.081		win-reward	ImageDisplay2		0.0		
3	159.09	1.6	win-reward	ChoiceDisplay	1	0.87	1	1
3	159.976	0.73	win-reward	ChosenDisplay		0.0		
3	160.695	0.25	win-reward	TurnDisplay				
3	160.946	0.75	win-reward	OutcomeDisplay				
4	161.698		loss-reward	ImageDisplay1		0.0		
4	163.938	0.75	loss-reward	StartDisplay				
4	164.69		loss-reward	ImageDisplay2		0.0		
4	167.699	1.6	loss-reward	ChoiceDisplay	1	0.953	1	1
4	168.669	0.647	loss-reward	ChosenDisplay		0.0		
4	169.304	0.25	loss-reward	TurnDisplay				
4	169.555	0.75	loss-reward	OutcomeDisplay				
5	170.307		loss-reward	ImageDisplay1		0.0		
5	172.296	0.75	loss-reward	StartDisplay				
5	173.048		loss-reward	ImageDisplay2		0.0		
5	176.308	1.6	loss-reward	ChoiceDisplay	1	0.955	1	1
5	177.278	0.645	loss-reward	ChosenDisplay		0.0		
5	177.913	0.25	loss-reward	TurnDisplay				
5	178.163	0.75	loss-reward	OutcomeDisplay				
6	178.916		loss-noreward	ImageDisplay1		0.0		
6	181.156	0.75	loss-noreward	StartDisplay				
6	181.908		loss-noreward	ImageDisplay2		0.0		
6	184.917	1.6	loss-noreward	ChoiceDisplay	1	0.945	1	1
6	185.886	0.655	loss-noreward	ChosenDisplay		0.0		
6	186.522	0.25	loss-noreward	TurnDisplay				
6	186.772	0.75	loss-noreward	OutcomeDisplay				
7	187.525		control-noreward	ImageDisplay1		0.0		
7	189.765	0.75	control-noreward	StartDisplay				
7	190.517		control-noreward	ImageDisplay2		0.0		
7	193.526	1.6	control-noreward	ChoiceDisplay	1	0.955	1	1
7	194.495	0.645	control-noreward	ChosenDisplay		0.0		
7	195.131	0.25	control-noreward	TurnDisplay				
7	195.381	0.75	control-noreward	OutcomeDisplay				
8	196.134		win-noreward	ImageDisplay1		0.0		
8	198.123	0.75	win-noreward	StartDisplay				
8	198.875		win-noreward	ImageDisplay2		0.0		
8	202.135	1.6	win-noreward	ChoiceDisplay	1	0.946	1	1
8	203.104	0.654	win-noreward	ChosenDisplay		0.0		
8	203.74	0.25	win-noreward	TurnDisplay				
8	203.99	0.75	win-noreward	OutcomeDisplay				
9	204.743		loss-noreward	ImageDisplay1		0.0		
9	206.983	0.75	loss-noreward	StartDisplay				
9	207.735		loss-noreward	ImageDisplay2		0.0		
9	210.744	1.6	loss-noreward	ChoiceDisplay	1	1.112	1	1
9	211.88	0.488	loss-noreward	ChosenDisplay		0.0		
9	212.348	0.25	loss-noreward	TurnDisplay				
9	212.599	0.75	loss-noreward	OutcomeDisplay				
10	213.351		control-noreward	ImageDisplay1		0.0		
10	215.341	0.75	control-noreward	StartDisplay				
10	216.093		control-noreward	ImageDisplay2		0.0		
10	219.353	1.6	control-noreward	ChoiceDisplay	1	0.952	1	1
10	220.322	0.648	control-noreward	ChosenDisplay		0.0		
10	220.957	0.25	control-noreward	TurnDisplay				
10	221.208	0.75	control-noreward	OutcomeDisplay				
11	221.96		loss-reward	ImageDisplay1		0.0		
11	223.95	0.75	loss-reward	StartDisplay				
11	224.702		loss-reward	ImageDisplay2		0.0		
11	227.962	1.6	loss-reward	ChoiceDisplay	1	0.892	1	1
11	228.881	0.708	loss-reward	ChosenDisplay		0.0		
11	229.566	0.25	loss-reward	TurnDisplay				
11	229.817	0.75	loss-reward	OutcomeDisplay				
12	230.569		win-noreward	ImageDisplay1		0.0		
12	232.559	0.75	win-noreward	StartDisplay				
12	233.311		win-noreward	ImageDisplay2		0.0		
12	236.57	1.6	win-noreward	ChoiceDisplay	1	0.801	1	1
12	237.39	0.799	win-noreward	ChosenDisplay		0.0		
12	238.175	0.25	win-noreward	TurnDisplay				
12	238.426	0.75	win-noreward	OutcomeDisplay				
13	239.178		win-noreward	ImageDisplay1		0.0		
13	241.418	0.75	win-noreward	StartDisplay				
13	242.17		win-noreward	ImageDisplay2		0.0		
13	245.179	1.6	win-noreward	ChoiceDisplay	1	0.898	1	1
13	246.099	0.702	win-noreward	ChosenDisplay		0.0		
13	246.784	0.25	win-noreward	TurnDisplay				
13	247.035	0.75	win-noreward	OutcomeDisplay				
14	247.787		control-reward	ImageDisplay1		0.0		
14	249.776	0.75	control-reward	StartDisplay				
14	250.529		control-reward	ImageDisplay2		0.0		
14	253.788	1.6	control-reward	ChoiceDisplay	1	0.722	1	1
14	254.524	0.878	control-reward	ChosenDisplay		0.0		
14	255.393	0.25	control-reward	TurnDisplay				
14	255.644	0.75	control-reward	OutcomeDisplay				
15	256.396		win-reward	ImageDisplay1		0.0		
15	258.385	0.75	win-reward	StartDisplay				
15	259.138		win-reward	ImageDisplay2		0.0		
15	262.397	1.6	win-reward	ChoiceDisplay	1	0.93	1	1
15	263.35	0.67	win-reward	ChosenDisplay		0.0		
15	264.002	0.25	win-reward	TurnDisplay				
15	264.253	0.75	win-reward	OutcomeDisplay				
16	265.005		control-noreward	ImageDisplay1		0.0		
16	266.994	0.75	control-noreward	StartDisplay				
16	267.747		control-noreward	ImageDisplay2		0.0		
16	271.006	1.6	control-noreward	ChoiceDisplay	1	0.849	1	1
16	271.875	0.751	control-noreward	ChosenDisplay		0.0		
16	272.611	0.25	control-noreward	TurnDisplay				
16	272.862	0.75	control-noreward	OutcomeDisplay				
17	273.614		loss-reward	ImageDisplay1		0.0		
17	275.854	0.75	loss-reward	StartDisplay				
17	276.606		loss-reward	ImageDisplay2		0.0		
17	279.615	1.6	loss-reward	ChoiceDisplay	1	0.855	1	1
17	280.484	0.745	loss-reward	ChosenDisplay		0.0		
17	281.22	0.25	loss-reward	TurnDisplay				
17	281.471	0.75	loss-reward	OutcomeDisplay				
18	282.223		loss-noreward	ImageDisplay1		0.0		
18	284.212	0.75	loss-noreward	StartDisplay				
18	284.964		loss-noreward	ImageDisplay2		0.0		
18	288.224	1.6	loss-noreward	ChoiceDisplay	1	0.914	1	1
18	289.16	0.686	loss-noreward	ChosenDisplay		0.0		
18	289.829	0.25	loss-noreward	TurnDisplay				
18	290.08	0.75	loss-noreward	OutcomeDisplay				
19	290.832		loss-noreward	ImageDisplay1		0.0		
19	293.072	0.75	loss-noreward	StartDisplay				
19	293.824		loss-noreward	ImageDisplay2		0.0		
19	296.833	1.6	loss-noreward	ChoiceDisplay	1	0.874	1	1
19	297.719	0.726	loss-noreward	ChosenDisplay		0.0		
19	298.438	0.25	loss-noreward	TurnDisplay				
19	298.689	0.75	loss-noreward	OutcomeDisplay				
20	299.441		win-noreward	ImageDisplay1		0.0		
20	301.43	0.75	win-noreward	StartDisplay				
20	302.182		win-noreward	ImageDisplay2		0.0		
20	305.442	1.6	win-noreward	ChoiceDisplay	1	0.84	1	1
20	306.294	0.76	win-noreward	ChosenDisplay		0.0		
20	307.047	0.25	win-noreward	TurnDisplay				
20	307.297	0.75	win-noreward	OutcomeDisplay				
21	308.05		win-noreward	ImageDisplay1		0.0		
21	310.29	0.75	win-noreward	StartDisplay				
21	311.042		win-noreward	ImageDisplay2		0.0		
21	314.051	1.6	win-noreward	ChoiceDisplay	1	1.055	1	1
21	315.121	0.545	win-noreward	ChosenDisplay		0.0		
21	315.656	0.25	win-noreward	TurnDisplay				
21	315.906	0.75	win-noreward	OutcomeDisplay				
22	316.659		loss-noreward	ImageDisplay1		0.0		
22	318.899	0.75	loss-noreward	StartDisplay				
22	319.651		loss-noreward	ImageDisplay2		0.0		
22	322.66	1.6	loss-noreward	ChoiceDisplay	1	1.056	1	1
22	323.73	0.544	loss-noreward	ChosenDisplay		0.0		
22	324.265	0.25	loss-noreward	TurnDisplay				
22	324.515	0.75	loss-noreward	OutcomeDisplay				
23	325.268		loss-reward	ImageDisplay1		0.0		
23	327.257	0.75	loss-reward	StartDisplay				
23	328.009		loss-reward	ImageDisplay2		0.0		
23	331.269	1.6	loss-reward	ChoiceDisplay	1	1.007	1	1
23	332.288	0.593	loss-reward	ChosenDisplay		0.0		
23	332.873	0.25	loss-reward	TurnDisplay				
23	333.124	0.75	loss-reward	OutcomeDisplay				
24	333.876		win-noreward	ImageDisplay1		0.0		
24	335.866	0.75	win-noreward	StartDisplay				
24	336.618		win-noreward	ImageDisplay2		0.0		
24	339.878	1.6	win-noreward	ChoiceDisplay	1	0.942	1	1
24	340.847	0.658	win-noreward	ChosenDisplay		0.0		
24	341.482	0.25	win-noreward	TurnDisplay				
24	341.733	0.75	win-noreward	OutcomeDisplay				
25	342.485		control-reward	ImageDisplay1		0.0		
25	344.475	0.75	control-reward	StartDisplay				
25	345.227		control-reward	ImageDisplay2		0.0		
25	348.487	1.6	control-reward	ChoiceDisplay	1	0.987	1	1
25	349.49	0.613	control-reward	ChosenDisplay		0.0		
25	350.091	0.25	control-reward	TurnDisplay				
25	350.342	0.75	control-reward	OutcomeDisplay				
26	351.094		win-reward	ImageDisplay1		0.0		
26	353.334	0.75	win-reward	StartDisplay				
26	354.087		win-reward	ImageDisplay2		0.0		
26	357.096	1.6	win-reward	ChoiceDisplay	1	0.562	1	1
26	357.681	1.038	win-reward	ChosenDisplay		0.0		
26	358.7	0.25	win-reward	TurnDisplay				
26	358.951	0.75	win-reward	OutcomeDisplay				
27	359.703		win-noreward	ImageDisplay1		0.0		
27	361.943	0.75	win-noreward	StartDisplay				
27	362.696		win-noreward	ImageDisplay2		0.0		
27	365.704	1.6	win-noreward	ChoiceDisplay	1	0.804	1	1
27	366.524	0.796	win-noreward	ChosenDisplay		0.0		
27	367.309	0.25	win-noreward	TurnDisplay				
27	367.56	0.75	win-noreward	OutcomeDisplay				
28	368.312		win-noreward	ImageDisplay1		0.0		
28	370.552	0.75	win-noreward	StartDisplay				
28	371.304		win-noreward	ImageDisplay2		0.0		
28	374.313	1.6	win-noreward	ChoiceDisplay	1	0.514	1	1
28	374.848	1.086	win-noreward	ChosenDisplay		0.0		
28	375.918	0.25	win-noreward	TurnDisplay				
28	376.169	0.75	win-noreward	OutcomeDisplay				
29	376.921		win-reward	ImageDisplay1		0.0		
29	378.91	0.75	win-reward	StartDisplay				
29	379.663		win-reward	ImageDisplay2		0.0		
29	382.922	1.6	win-reward	ChoiceDisplay	1	0.786	1	1
29	383.725	0.814	win-reward	ChosenDisplay		0.0		
29	384.527	0.25	win-reward	TurnDisplay				
29	384.778	0.75	win-reward	OutcomeDisplay				
30	385.53		loss-noreward	ImageDisplay1		0.0		
30	387.77	0.75	loss-noreward	StartDisplay				
30	388.522		loss-noreward	ImageDisplay2		0.0		
30	391.531	1.6	loss-noreward	ChoiceDisplay	1	0.716	1	1
30	392.267	0.884	loss-noreward	ChosenDisplay		0.0		
30	393.136	0.25	loss-noreward	TurnDisplay				
30	393.387	0.75	loss-noreward	OutcomeDisplay				
31	394.139		control-noreward	ImageDisplay1		0.0		
31	396.379	0.75	control-noreward	StartDisplay				
31	397.131		control-noreward	ImageDisplay2		0.0		
31	400.14	1.6	control-noreward	ChoiceDisplay	1	0.724	1	1
31	400.876	0.876	control-noreward	ChosenDisplay		0.0		
31	401.745	0.25	control-noreward	TurnDisplay				
31	401.996	0.75	control-noreward	OutcomeDisplay				
32	402.748		loss-reward	ImageDisplay1		0.0		
32	404.988	0.75	loss-reward	StartDisplay				
32	405.74		loss-reward	ImageDisplay2		0.0		
32	408.749	1.6	loss-reward	ChoiceDisplay	1	0.696	1	1
32	409.468	0.904	loss-reward	ChosenDisplay		0.0		
32	410.354	0.25	loss-reward	TurnDisplay				
32	410.605	0.75	loss-reward	OutcomeDisplay				
33	411.357		loss-noreward	ImageDisplay1		0.0		
33	413.346	0.75	loss-noreward	StartDisplay				
33	414.098		loss-noreward	ImageDisplay2		0.0		
33	417.358	1.6	loss-noreward	ChoiceDisplay	1	0.746	1	1
33	418.127	0.854	loss-noreward	ChosenDisplay		0.0		
33	418.963	0.25	loss-noreward	TurnDisplay				
33	419.214	0.75	loss-noreward	OutcomeDisplay				
34	419.966		control-noreward	ImageDisplay1		0.0		
34	421.955	0.75	control-noreward	StartDisplay				
34	422.707		control-noreward	ImageDisplay2		0.0		
34	425.967	1.6	control-noreward	ChoiceDisplay	1	0.706	1	1
34	426.686	0.894	control-noreward	ChosenDisplay		0.0		
34	427.572	0.25	control-noreward	TurnDisplay				
34	427.822	0.75	control-noreward	OutcomeDisplay				
35	428.575		control-noreward	ImageDisplay1		0.0		
35	430.564	0.75	control-noreward	StartDisplay				
35	431.316		control-noreward	ImageDisplay2		0.0		
35	434.576	1.6	control-noreward	ChoiceDisplay	1	0.657	1	1
35	435.245	0.943	control-noreward	ChosenDisplay		0.0		
35	436.181	0.25	control-noreward	TurnDisplay				
35	436.431	0.75	control-noreward	OutcomeDisplay				
36	437.184		win-noreward	ImageDisplay1		0.0		
36	439.424	0.75	win-noreward	StartDisplay				
36	440.176		win-noreward	ImageDisplay2		0.0		
36	443.185	1.6	win-noreward	ChoiceDisplay	1	0.807	1	1
36	444.004	0.793	win-noreward	ChosenDisplay		0.0		
36	444.79	0.25	win-noreward	TurnDisplay				
36	445.04	0.75	win-noreward	OutcomeDisplay				
37	445.793		loss-noreward	ImageDisplay1		0.0		
37	447.782	0.75	loss-noreward	StartDisplay				
37	448.534		loss-noreward	ImageDisplay2		0.0		
37	451.794	1.6	loss-noreward	ChoiceDisplay	1	0.613	1	1
37	452.429	0.987	loss-noreward	ChosenDisplay		0.0		
37	453.399	0.25	loss-noreward	TurnDisplay				
37	453.649	0.75	loss-noreward	OutcomeDisplay				
38	454.402		loss-reward	ImageDisplay1		0.0		
38	456.641	0.75	loss-reward	StartDisplay				
38	457.394		loss-reward	ImageDisplay2		0.0		
38	460.403	1.6	loss-reward	ChoiceDisplay	1	0.617	1	1
38	461.038	0.983	loss-reward	ChosenDisplay		0.0		
38	462.007	0.25	loss-reward	TurnDisplay				
38	462.258	0.75	loss-reward	OutcomeDisplay				
39	463.01		control-noreward	ImageDisplay1		0.0		
39	465.25	0.75	control-noreward	StartDisplay				
39	466.003		control-noreward	ImageDisplay2		0.0		
39	469.012	1.6	control-noreward	ChoiceDisplay	1	0.811	1	1
39	469.847	0.789	control-noreward	ChosenDisplay		0.0		
39	470.616	0.25	control-noreward	TurnDisplay				
39	470.867	0.75	control-noreward	OutcomeDisplay				
40	471.619		loss-reward	ImageDisplay1		0.0		
40	473.859	0.75	loss-reward	StartDisplay				
40	474.612		loss-reward	ImageDisplay2		0.0		
40	477.621	1.6	loss-reward	ChoiceDisplay	1	0.815	1	1
40	478.456	0.785	loss-reward	ChosenDisplay		0.0		
40	479.225	0.25	loss-reward	TurnDisplay				
40	479.476	0.75	loss-reward	OutcomeDisplay				
41	480.228		control-noreward	ImageDisplay1		0.0		
41	482.218	0.75	control-noreward	StartDisplay				
41	482.97		control-noreward	ImageDisplay2		0.0		
41	486.229	1.6	control-noreward	ChoiceDisplay	1	0.742	1	1
41	486.998	0.858	control-noreward	ChosenDisplay		0.0		
41	487.834	0.25	control-noreward	TurnDisplay				
41	488.085	0.75	control-noreward	OutcomeDisplay				
42	488.837		win-reward	ImageDisplay1		0.0		
42	490.826	0.75	win-reward	StartDisplay				
42	491.579		win-reward	ImageDisplay2		0.0		
42	494.838	1.6	win-reward	ChoiceDisplay	1	0.623	1	1
42	495.474	0.977	win-reward	ChosenDisplay		0.0		
42	496.443	0.25	win-reward	TurnDisplay				
42	496.694	0.75	win-reward	OutcomeDisplay				
43	497.446		control-reward	ImageDisplay1		0.0		
43	499.686	0.75	control-reward	StartDisplay				
43	500.438		control-reward	ImageDisplay2		0.0		
43	503.447	1.6	control-reward	ChoiceDisplay	1	0.879	1	1
43	504.35	0.721	control-reward	ChosenDisplay		0.0		
43	505.052	0.25	control-reward	TurnDisplay				
43	505.303	0.75	control-reward	OutcomeDisplay				
44	506.055		control-reward	ImageDisplay1		0.0		
44	508.044	0.75	control-reward	StartDisplay				
44	508.797		control-reward	ImageDisplay2		0.0		
44	512.056	1.6	control-reward	ChoiceDisplay	1	0.7	1	1
44	512.775	0.9	control-reward	ChosenDisplay		0.0		
44	513.661	0.25	control-reward	TurnDisplay				
44	513.912	0.75	control-reward	OutcomeDisplay				
45	514.664		win-reward	ImageDisplay1		0.0		
45	516.904	0.75	win-reward	StartDisplay				
45	517.656		win-reward	ImageDisplay2		0.0		
45	520.665	1.6	win-reward	ChoiceDisplay	1	0.804	1	1
45	521.484	0.796	win-reward	ChosenDisplay		0.0		
45	522.27	0.25	win-reward	TurnDisplay				
45	522.521	0.75	win-reward	OutcomeDisplay				
46	523.273		loss-reward	ImageDisplay1		0.0		
46	525.262	0.75	loss-reward	StartDisplay				
46	526.014		loss-reward	ImageDisplay2		0.0		
46	529.274	1.6	loss-reward	ChoiceDisplay	1	0.793	1	1
46	530.093	0.807	loss-reward	ChosenDisplay		0.0		
46	530.879	0.25	loss-reward	TurnDisplay				
46	531.13	0.75	loss-reward	OutcomeDisplay				
47	531.882		loss-noreward	ImageDisplay1		0.0		
47	533.871	0.75	loss-noreward	StartDisplay				
47	534.623		loss-noreward	ImageDisplay2		0.0		
47	537.883	1.6	loss-noreward	ChoiceDisplay	1	0.778	1	1
47	538.685	0.822	loss-noreward	ChosenDisplay		0.0		
47	539.488	0.25	loss-noreward	TurnDisplay				
47	539.739	0.75	loss-noreward	OutcomeDisplay				
48	540.491		win-reward	ImageDisplay1		0.0		
48	542.48	0.75	win-reward	StartDisplay				
48	543.232		win-reward	ImageDisplay2		0.0		
48	546.492	1.6	win-reward	ChoiceDisplay	1	0.667	1	1
48	547.177	0.933	win-reward	ChosenDisplay		0.0		
48	548.097	0.25	win-reward	TurnDisplay				
48	548.348	0.75	win-reward	OutcomeDisplay				
49	549.1		control-noreward	ImageDisplay1		0.0		
49	551.34	0.75	control-noreward	StartDisplay				
49	552.092		control-noreward	ImageDisplay2		0.0		
49	555.101	1.6	control-noreward	ChoiceDisplay	1	0.687	1	1
49	555.803	0.913	control-noreward	ChosenDisplay		0.0		
49	556.706	0.25	control-noreward	TurnDisplay				
49	556.956	0.75	control-noreward	OutcomeDisplay				
50	557.709		loss-reward	ImageDisplay1		0.0		
50	559.698	0.75	loss-reward	StartDisplay				
50	560.45		loss-reward	ImageDisplay2		0.0		
50	563.71	1.6	loss-reward	ChoiceDisplay	1	0.697	1	1
50	564.429	0.903	loss-reward	ChosenDisplay		0.0		
50	565.315	0.25	loss-reward	TurnDisplay				
50	565.565	0.75	loss-reward	OutcomeDisplay				
51	566.318		loss-reward	ImageDisplay1		0.0		
51	568.558	0.75	loss-reward	StartDisplay				
51	569.31		loss-reward	ImageDisplay2		0.0		
51	572.319	1.6	loss-reward	ChoiceDisplay	1	0.816	1	1
51	573.155	0.784	loss-reward	ChosenDisplay		0.0		
51	573.924	0.25	loss-reward	TurnDisplay				
51	574.174	0.75	loss-reward	OutcomeDisplay				
52	574.927		control-noreward	ImageDisplay1		0.0		
52	577.167	0.75	control-noreward	StartDisplay				
52	577.919		control-noreward	ImageDisplay2		0.0		
52	580.928	1.6	control-noreward	ChoiceDisplay	1	0.628	1	1
52	581.58	0.972	control-noreward	ChosenDisplay		0.0		
52	582.532	0.25	control-noreward	TurnDisplay				
52	582.783	0.75	control-noreward	OutcomeDisplay				
53	583.535		loss-reward	ImageDisplay1		0.0		
53	585.775	0.75	loss-reward	StartDisplay				
53	586.528		loss-reward	ImageDisplay2		0.0		
53	589.537	1.6	loss-reward	ChoiceDisplay	1	0.7	1	1
53	590.255	0.9	loss-reward	ChosenDisplay		0.0		
53	591.141	0.25	loss-reward	TurnDisplay				
53	591.392	0.75	loss-reward	OutcomeDisplay				
54	592.144		win-reward	ImageDisplay1		0.0		
54	594.384	0.75	win-reward	StartDisplay				
54	595.137		win-reward	ImageDisplay2		0.0		
54	598.146	1.6	win-reward	ChoiceDisplay	1	0.853	1	1
54	599.015	0.747	win-reward	ChosenDisplay		0.0		
54	599.75	0.25	win-reward	TurnDisplay				
54	600.001	0.75	win-reward	OutcomeDisplay				
55	600.753		loss-reward	ImageDisplay1		0.0		
55	602.743	0.75	loss-reward	StartDisplay				
55	603.495		loss-reward	ImageDisplay2		0.0		
55	606.754	1.6	loss-reward	ChoiceDisplay	1	0.872	1	1
55	607.64	0.728	loss-reward	ChosenDisplay		0.0		
55	608.359	0.25	loss-reward	TurnDisplay				
55	608.61	0.75	loss-reward	OutcomeDisplay				
56	609.362		control-reward	ImageDisplay1		0.0		
56	611.351	0.75	control-reward	StartDisplay				
56	612.104		control-reward	ImageDisplay2		0.0		
56	615.363	1.6	control-reward	ChoiceDisplay	1	0.883	1	1
56	616.266	0.717	control-reward	ChosenDisplay		0.0		
56	616.968	0.25	control-reward	TurnDisplay				
56	617.219	0.75	control-reward	OutcomeDisplay				
57	617.971		control-reward	ImageDisplay1		0.0		
57	620.211	0.75	control-reward	StartDisplay				
57	620.963		control-reward	ImageDisplay2		0.0		
57	623.972	1.6	control-reward	ChoiceDisplay	1	0.731	1	1
57	624.725	0.869	control-reward	ChosenDisplay		0.0		
57	625.577	0.25	control-reward	TurnDisplay				
57	625.828	0.75	control-reward	OutcomeDisplay				
58	626.58		loss-reward	ImageDisplay1		0.0		
58	628.82	0.75	loss-reward	StartDisplay				
58	629.572		loss-reward	ImageDisplay2		0.0		
58	632.581	1.6	loss-reward	ChoiceDisplay	1	0.902	1	1
58	633.501	0.698	loss-reward	ChosenDisplay		0.0		
58	634.186	0.25	loss-reward	TurnDisplay				
58	634.437	0.75	loss-reward	OutcomeDisplay				
59	635.189		loss-noreward	ImageDisplay1		0.0		
59	637.429	0.75	loss-noreward	StartDisplay				
59	638.181		loss-noreward	ImageDisplay2		0.0		
59	641.19	1.6	loss-noreward	ChoiceDisplay	1	0.813	1	1
59	642.026	0.787	loss-noreward	ChosenDisplay		0.0		
59	642.795	0.25	loss-noreward	TurnDisplay				
59	643.046	0.75	loss-noreward	OutcomeDisplay				
60	643.798		loss-reward	ImageDisplay1		0.0		
60	645.787	0.75	loss-reward	StartDisplay				
60	646.539		loss-reward	ImageDisplay2		0.0		
60	649.799	1.6	loss-reward	ChoiceDisplay	1	0.689	1	1
60	650.501	0.911	loss-reward	ChosenDisplay		0.0		
60	651.404	0.25	loss-reward	TurnDisplay				
60	651.655	0.75	loss-reward	OutcomeDisplay				
61	652.407		win-noreward	ImageDisplay1		0.0		
61	654.396	0.75	win-noreward	StartDisplay				
61	655.148		win-noreward	ImageDisplay2		0.0		
61	658.408	1.6	win-noreward	ChoiceDisplay	1	0.817	1	1
61	659.244	0.783	win-noreward	ChosenDisplay		0.0		
61	660.013	0.25	win-noreward	TurnDisplay				
61	660.265	0.75	win-noreward	OutcomeDisplay				
62	661.016		control-noreward	ImageDisplay1		0.0		
62	663.005	0.75	control-noreward	StartDisplay				
62	663.757		control-noreward	ImageDisplay2		0.0		
62	667.017	1.6	control-noreward	ChoiceDisplay	1	1.017	1	1
62	668.053	0.583	control-noreward	ChosenDisplay		0.0		
62	668.622	0.25	control-noreward	TurnDisplay				
62	668.873	0.75	control-noreward	OutcomeDisplay				
63	669.625		control-reward	ImageDisplay1		0.0		
63	671.614	0.75	control-reward	StartDisplay				
63	672.366		control-reward	ImageDisplay2		0.0		
63	675.626	1.6	control-reward	ChoiceDisplay	1	0.734	1	1
63	676.378	0.866	control-reward	ChosenDisplay		0.0		
63	677.231	0.25	control-reward	TurnDisplay				
63	677.481	0.75	control-reward	OutcomeDisplay				
64	678.234		win-reward	ImageDisplay1		0.0		
64	680.474	0.75	win-reward	StartDisplay				
64	681.226		win-reward	ImageDisplay2		0.0		
64	684.235	1.6	win-reward	ChoiceDisplay	1	0.741	1	1
64	685.004	0.859	win-reward	ChosenDisplay		0.0		
64	685.84	0.25	win-reward	TurnDisplay				
64	686.09	0.75	win-reward	OutcomeDisplay				
65	686.843		win-reward	ImageDisplay1		0.0		
65	688.832	0.75	win-reward	StartDisplay				
65	689.584		win-reward	ImageDisplay2		0.0		
65	692.844	1.6	win-reward	ChoiceDisplay	1	0.776	1	1
65	693.646	0.824	win-reward	ChosenDisplay		0.0		
65	694.449	0.25	win-reward	TurnDisplay				
65	694.699	0.75	win-reward	OutcomeDisplay				
66	695.452		loss-reward	ImageDisplay1		0.0		
66	697.692	0.75	loss-reward	StartDisplay				
66	698.444		loss-reward	ImageDisplay2		0.0		
66	701.453	1.6	loss-reward	ChoiceDisplay	1	0.797	1	1
66	702.272	0.803	loss-reward	ChosenDisplay		0.0		
66	703.058	0.25	loss-reward	TurnDisplay				
66	703.308	0.75	loss-reward	OutcomeDisplay				
67	704.06		win-reward	ImageDisplay1		0.0		
67	706.3	0.75	win-reward	StartDisplay				
67	707.053		win-reward	ImageDisplay2		0.0		
67	710.062	1.6	win-reward	ChoiceDisplay	1	0.838	1	1
67	710.914	0.762	win-reward	ChosenDisplay		0.0		
67	711.666	0.25	win-reward	TurnDisplay				
67	711.917	0.75	win-reward	OutcomeDisplay				
68	712.669		win-reward	ImageDisplay1		0.0		
68	714.909	0.75	win-reward	StartDisplay				
68	715.662		win-reward	ImageDisplay2		0.0		
68	718.671	1.6	win-reward	ChoiceDisplay	1	0.849	1	1
68	719.54	0.751	win-reward	ChosenDisplay		0.0		
68	720.275	0.25	win-reward	TurnDisplay				
68	720.526	0.75	win-reward	OutcomeDisplay				
69	721.278		win-reward	ImageDisplay1		0.0		
69	723.268	0.75	win-reward	StartDisplay				
69	724.02		win-reward	ImageDisplay2		0.0		
69	727.279	1.6	win-reward	ChoiceDisplay	1	0.751	1	1
69	728.048	0.849	win-reward	ChosenDisplay		0.0		
69	728.884	0.25	win-reward	TurnDisplay				
69	729.135	0.75	win-reward	OutcomeDisplay				
70	729.887		control-noreward	ImageDisplay1		0.0		
70	732.127	0.75	control-noreward	StartDisplay				
70	732.88		control-noreward	ImageDisplay2		0.0		
70	735.888	1.6	control-noreward	ChoiceDisplay	1	0.989	1	1
70	736.891	0.611	control-noreward	ChosenDisplay		0.0		
70	737.493	0.25	control-noreward	TurnDisplay				
70	737.744	0.75	control-noreward	OutcomeDisplay				
71	738.496		win-reward	ImageDisplay1		0.0		
71	740.736	0.75	win-reward	StartDisplay				
71	741.488		win-reward	ImageDisplay2		0.0		
71	744.497	1.6	win-reward	ChoiceDisplay	1	0.688	1	1
71	745.199	0.912	win-reward	ChosenDisplay		0.0		
71	746.102	0.25	win-reward	TurnDisplay				
71	746.353	0.75	win-reward	OutcomeDisplay				
72	747.105		loss-reward	ImageDisplay1		0.0		
72	749.094	0.75	loss-reward	StartDisplay				
72	749.847		loss-reward	ImageDisplay2		0.0		
72	753.106	1.6	loss-reward	ChoiceDisplay	1	1.025	1	1
72	754.143	0.575	loss-reward	ChosenDisplay		0.0		
72	754.711	0.25	loss-reward	TurnDisplay				
72	754.962	0.75	loss-reward	OutcomeDisplay				
73	755.714		control-reward	ImageDisplay1		0.0		
73	757.954	0.75	control-reward	StartDisplay				
73	758.706		control-reward	ImageDisplay2		0.0		
73	761.715	1.6	control-reward	ChoiceDisplay	1	0.842	1	1
73	762.584	0.758	control-reward	ChosenDisplay		0.0		
73	763.32	0.25	control-reward	TurnDisplay				
73	763.571	0.75	control-reward	OutcomeDisplay				
74	764.323		win-noreward	ImageDisplay1		0.0		
74	766.312	0.75	win-noreward	StartDisplay				
74	767.064		win-noreward	ImageDisplay2		0.0		
74	770.324	1.6	win-noreward	ChoiceDisplay	1	0.921	1	1
74	771.26	0.679	win-noreward	ChosenDisplay		0.0		
74	771.929	0.25	win-noreward	TurnDisplay				
74	772.18	0.75	win-noreward	OutcomeDisplay				
75	772.932		loss-noreward	ImageDisplay1		0.0		
75	775.172	0.75	loss-noreward	StartDisplay				
75	775.924		loss-noreward	ImageDisplay2		0.0		
75	778.933	1.6	loss-noreward	ChoiceDisplay	1	0.873	1	1
75	779.819	0.727	loss-noreward	ChosenDisplay		0.0		
75	780.538	0.25	loss-noreward	TurnDisplay				
75	780.789	0.75	loss-noreward	OutcomeDisplay				
76	781.541		control-reward	ImageDisplay1		0.0		
76	783.781	0.75	control-reward	StartDisplay				
76	784.533		control-reward	ImageDisplay2		0.0		
76	787.542	1.6	control-reward	ChoiceDisplay	1	0.819	1	1
76	788.378	0.781	control-reward	ChosenDisplay		0.0		
76	789.147	0.25	control-reward	TurnDisplay				
76	789.398	0.75	control-reward	OutcomeDisplay				
77	790.15		win-reward	ImageDisplay1		0.0		
77	792.139	0.75	win-reward	StartDisplay				
77	792.891		win-reward	ImageDisplay2		0.0		
77	796.151	1.6	win-reward	ChoiceDisplay	1	0.968	1	1
77	797.137	0.632	win-reward	ChosenDisplay		0.0		
77	797.756	0.25	win-reward	TurnDisplay				
77	798.006	0.75	win-reward	OutcomeDisplay				
78	798.759		control-reward	ImageDisplay1		0.0		
78	800.999	0.75	control-reward	StartDisplay				
78	801.751		control-reward	ImageDisplay2		0.0		
78	804.76	1.6	control-reward	ChoiceDisplay	1	0.78	1	1
78	805.562	0.82	control-reward	ChosenDisplay		0.0		
78	806.365	0.25	control-reward	TurnDisplay				
78	806.615	0.75	control-reward	OutcomeDisplay				
79	807.368		win-reward	ImageDisplay1		0.0		
79	809.608	0.75	win-reward	StartDisplay				
79	810.36		win-reward	ImageDisplay2		0.0		
79	813.369	1.6	win-reward	ChoiceDisplay	1	0.86	1	1
79	814.255	0.74	win-reward	ChosenDisplay		0.0		
79	814.974	0.25	win-reward	TurnDisplay				
79	815.224	0.75	win-reward	OutcomeDisplay				
80	815.977		loss-reward	ImageDisplay1		0.0		
80	817.966	0.75	loss-reward	StartDisplay				
80	818.718		loss-reward	ImageDisplay2		0.0		
80	821.978	1.6	loss-reward	ChoiceDisplay	1	0.805	1	1
80	822.797	0.795	loss-reward	ChosenDisplay		0.0		
80	823.583	0.25	loss-reward	TurnDisplay				
80	823.833	0.75	loss-reward	OutcomeDisplay				
81	824.585		control-reward	ImageDisplay1		0.0		
81	826.575	0.75	control-reward	StartDisplay				
81	827.327		control-reward	ImageDisplay2		0.0		
81	830.587	1.6	control-reward	ChoiceDisplay	1	0.985	1	1
81	831.59	0.615	control-reward	ChosenDisplay		0.0		
81	832.191	0.25	control-reward	TurnDisplay				
81	832.442	0.75	control-reward	OutcomeDisplay				
82	833.194		win-reward	ImageDisplay1		0.0		
82	835.184	0.75	win-reward	StartDisplay				
82	835.936		win-reward	ImageDisplay2		0.0		
82	839.196	1.6	win-reward	ChoiceDisplay	1	0.994	1	1
82	840.215	0.606	win-reward	ChosenDisplay		0.0		
82	840.8	0.25	win-reward	TurnDisplay				
82	841.051	0.75	win-reward	OutcomeDisplay				
83	841.803		loss-noreward	ImageDisplay1		0.0		
83	843.793	0.75	loss-noreward	StartDisplay				
83	844.545		loss-noreward	ImageDisplay2		0.0		
83	847.805	1.6	loss-noreward	ChoiceDisplay	1	0.869	1	1
83	848.691	0.731	loss-noreward	ChosenDisplay		0.0		
83	849.409	0.25	loss-noreward	TurnDisplay				
83	849.66	0.75	loss-noreward	OutcomeDisplay				
84	850.412		control-noreward	ImageDisplay1		0.0		
84	852.652	0.75	control-noreward	StartDisplay				
84	853.405		control-noreward	ImageDisplay2		0.0		
84	856.413	1.6	control-noreward	ChoiceDisplay	1	0.716	1	1
84	857.149	0.884	control-noreward	ChosenDisplay		0.0		
84	858.018	0.25	control-noreward	TurnDisplay				
84	858.269	0.75	control-noreward	OutcomeDisplay				
85	859.021		control-noreward	ImageDisplay1		0.0		
85	861.01	0.75	control-noreward	StartDisplay				
85	861.763		control-noreward	ImageDisplay2		0.0		
85	865.022	1.6	control-noreward	ChoiceDisplay	1	0.733	1	1
85	865.775	0.867	control-noreward	ChosenDisplay		0.0		
85	866.627	0.25	control-noreward	TurnDisplay				
85	866.878	0.75	control-noreward	OutcomeDisplay				
86	867.63		control-noreward	ImageDisplay1		0.0		
86	869.619	0.75	control-noreward	StartDisplay				
86	870.372		control-noreward	ImageDisplay2		0.0		
86	873.631	1.6	control-noreward	ChoiceDisplay	1	1.122	1	1
86	874.768	0.478	control-noreward	ChosenDisplay		0.0		
86	875.236	0.25	control-noreward	TurnDisplay				
86	875.487	0.75	control-noreward	OutcomeDisplay				
87	876.239		control-reward	ImageDisplay1		0.0		
87	878.479	0.75	control-reward	StartDisplay				
87	879.231		control-reward	ImageDisplay2		0.0		
87	882.24	1.6	control-reward	ChoiceDisplay	1	0.867	1	1
87	883.126	0.733	control-reward	ChosenDisplay		0.0		
87	883.845	0.25	control-reward	TurnDisplay				
87	884.096	0.75	control-reward	OutcomeDisplay				
88	884.848		win-noreward	ImageDisplay1		0.0		
88	887.088	0.75	win-noreward	StartDisplay				
88	887.84		win-noreward	ImageDisplay2		0.0		
88	890.849	1.6	win-noreward	ChoiceDisplay	1	1.012	1	1
88	891.886	0.588	win-noreward	ChosenDisplay		0.0		
88	892.454	0.25	win-noreward	TurnDisplay				
88	892.705	0.75	win-noreward	OutcomeDisplay				
89	893.457		win-reward	ImageDisplay1		0.0		
89	895.446	0.75	win-reward	StartDisplay				
89	896.198		win-reward	ImageDisplay2		0.0		
89	899.458	1.6	win-reward	ChoiceDisplay	1	0.577	1	1
89	900.06	1.023	win-reward	ChosenDisplay		0.0		
89	901.063	0.25	win-reward	TurnDisplay				
89	901.314	0.75	win-reward	OutcomeDisplay				
90	902.066		win-noreward	ImageDisplay1		0.0		
90	904.055	0.75	win-noreward	StartDisplay				
90	904.807		win-noreward	ImageDisplay2		0.0		
90	908.067	1.6	win-noreward	ChoiceDisplay	1	0.654	1	1
90	908.736	0.946	win-noreward	ChosenDisplay		0.0		
90	909.672	0.25	win-noreward	TurnDisplay				
90	909.923	0.75	win-noreward	OutcomeDisplay				
91	910.675		loss-noreward	ImageDisplay1		0.0		
91	912.664	0.75	loss-noreward	StartDisplay				
91	913.416		loss-noreward	ImageDisplay2		0.0		
91	916.676	1.6	loss-noreward	ChoiceDisplay	1	0.79	1	1
91	917.478	0.81	loss-noreward	ChosenDisplay		0.0		
91	918.281	0.25	loss-noreward	TurnDisplay				
91	918.531	0.75	loss-noreward	OutcomeDisplay				
92	919.284		loss-noreward	ImageDisplay1		0.0		
92	921.273	0.75	loss-noreward	StartDisplay				
92	922.025		loss-noreward	ImageDisplay2		0.0		
92	925.285	1.6	loss-noreward	ChoiceDisplay	1	0.965	1	1
92	926.271	0.635	loss-noreward	ChosenDisplay		0.0		
92	926.89	0.25	loss-noreward	TurnDisplay				
92	927.14	0.75	loss-noreward	OutcomeDisplay				
93	927.893		control-reward	ImageDisplay1		0.0		
93	930.133	0.75	control-reward	StartDisplay				
93	930.885		control-reward	ImageDisplay2		0.0		
93	933.894	1.6	control-reward	ChoiceDisplay	1	1.017	1	1
93	934.93	0.583	control-reward	ChosenDisplay		0.0		
93	935.499	0.25	control-reward	TurnDisplay				
93	935.749	0.75	control-reward	OutcomeDisplay				
94	936.502		control-reward	ImageDisplay1		0.0		
94	938.742	0.75	control-reward	StartDisplay				
94	939.494		control-reward	ImageDisplay2		0.0		
94	942.503	1.6	control-reward	ChoiceDisplay	1	0.766	1	1
94	943.288	0.834	control-reward	ChosenDisplay		0.0		
94	944.108	0.25	control-reward	TurnDisplay				
94	944.358	0.75	control-reward	OutcomeDisplay				
95	945.111		control-noreward	ImageDisplay1		0.0		
95	947.351	0.75	control-noreward	StartDisplay				
95	948.103		control-noreward	ImageDisplay2		0.0		
95	951.112	1.6	control-noreward	ChoiceDisplay	1	0.997	1	1
95	952.131	0.603	control-noreward	ChosenDisplay		0.0		
95	952.716	0.25	control-noreward	TurnDisplay				
95	952.967	0.75	control-noreward	OutcomeDisplay				
