onset	duration	trial_type	response_time	stim_file	accuracy
70.672	1.0	go	0.972	Go_O	1.0
73.247	1.0	go	0.397	Go_X	1.0
75.771	1.0	go	0.39	Go_X	1.0
78.295	1.0	go	0.422	Go_O	1.0
80.819	1.0	go	0.607	Go_O	1.0
83.343	1.0	go	0.697	Go_X	1.0
85.867	0.25	stop	0.0	Go_O	1.0
88.392	1.0	go	0.433	Go_X	1.0
90.916	0.3	stop	0.0	Go_X	1.0
93.457	1.0	go	0.572	Go_O	1.0
95.981	1.0	go	0.634	Go_X	1.0
98.505	1.0	go	0.461	Go_O	1.0
101.029	0.35	stop	0.0	Go_O	1.0
103.553	1.0	go	0.538	Go_X	1.0
106.077	1.0	go	0.612	Go_O	1.0
108.602	0.4	stop	0.0	Go_X	1.0
111.126	0.45	stop	0.5	Go_O	0.0
113.667	1.0	go	0.508	Go_O	1.0
116.191	1.0	go	0.698	Go_X	1.0
118.715	0.4	stop	0.0	Go_X	1.0
121.239	1.0	go	0.632	Go_O	1.0
123.763	1.0	go	0.666	Go_X	1.0
126.288	0.45	stop	0.617	Go_O	0.0
128.828	1.0	go	0.644	Go_X	1.0
131.353	1.0	go	0.679	Go_O	1.0
133.877	0.4	stop	0.0	Go_X	1.0
136.401	1.0	go	0.842	Go_O	1.0
138.925	1.0	go	0.711	Go_X	1.0
141.449	0.45	stop	0.0	Go_O	1.0
143.973	1.0	go	0.623	Go_X	1.0
146.498	1.0	go	0.681	Go_O	1.0
149.022	1.0	go	0.62	Go_O	1.0
151.546	1.0	go	0.612	Go_X	1.0
154.07	1.0	go	0.605	Go_X	1.0
156.594	0.5	stop	0.0	Go_X	1.0
159.119	1.0	go	0.547	Go_O	1.0
161.643	1.0	go	0.744	Go_X	1.0
164.167	1.0	go	0.684	Go_O	1.0
166.691	1.0	go	0.718	Go_O	1.0
169.215	1.0	go	0.741	Go_X	1.0
171.739	0.55	stop	0.0	Go_O	1.0
174.264	1.0	go	0.449	Go_O	1.0
176.788	1.0	go	0.662	Go_X	1.0
179.312	1.0	go	0.624	Go_O	1.0
181.836	1.0	go	0.768	Go_X	1.0
184.36	1.0	go	0.771	Go_X	1.0
186.884	1.0	go	0.684	Go_O	1.0
189.409	0.6	stop	0.597	Go_X	0.0
191.949	1.0	go	0.533	Go_O	1.0
194.474	1.0	go	0.937	Go_X	1.0
196.998	0.55	stop	0.469	Go_O	0.0
199.539	1.0	go	0.515	Go_X	1.0
202.063	0.5	stop	0.0	Go_X	1.0
204.587	0.55	stop	0.0	Go_O	1.0
207.111	1.0	go	0.606	Go_O	1.0
209.635	1.0	go	0.627	Go_X	1.0
212.16	1.0	go	0.716	Go_O	1.0
214.684	1.0	go	0.551	Go_O	1.0
217.208	0.6	stop	0.0	Go_X	1.0
219.732	1.0	go	0.676	Go_X	1.0
222.256	0.65	stop	0.748	Go_O	0.0
224.78	1.0	go	0.753	Go_O	1.0
227.305	1.0	go	0.779	Go_X	1.0
229.829	1.0	go	0.835	Go_O	1.0
232.353	1.0	go	0.473	Go_X	1.0
234.877	1.0	go	0.944	Go_X	1.0
237.401	1.0	go	0.697	Go_O	1.0
239.925	1.0	go	0.746	Go_X	1.0
242.45	1.0	go	0.781	Go_O	1.0
244.974	1.0	go	0.858	Go_O	1.0
247.498	0.6	stop	0.747	Go_X	0.0
250.022	1.0	go	0.733	Go_X	1.0
252.546	1.0	go	0.869	Go_O	1.0
255.07	1.0	go	0.915	Go_X	1.0
257.595	0.55	stop	0.628	Go_O	0.0
260.119	1.0	go	0.578	Go_X	1.0
262.643	1.0	go	0.726	Go_O	1.0
265.167	1.0	go	0.951	Go_X	1.0
267.691	1.0	go	0.889	Go_O	1.0
270.215	1.0	go	0.973	Go_X	1.0
272.74	1.0	go	0.753	Go_O	1.0
275.264	0.5	stop	0.0	Go_X	1.0
277.788	1.0	go	0.617	Go_X	1.0
280.312	1.0	go	0.582	Go_O	1.0
282.836	0.55	stop	0.716	Go_O	0.0
285.361	1.0	go	0.731	Go_X	1.0
287.885	1.0	go	0.0	Go_O	0.0
290.409	0.5	stop	0.0	Go_X	1.0
292.933	1.0	go	0.932	Go_X	1.0
295.457	0.55	stop	0.0	Go_O	1.0
297.981	1.0	go	0.831	Go_O	1.0
300.506	1.0	go	0.704	Go_O	1.0
303.03	1.0	go	0.548	Go_X	1.0
305.554	1.0	go	0.675	Go_O	1.0
308.078	1.0	go	0.844	Go_X	1.0
310.602	0.6	stop	0.0	Go_X	1.0
313.126	0.65	stop	0.0	Go_O	1.0
315.651	1.0	go	0.781	Go_X	1.0
318.175	1.0	go	0.797	Go_O	1.0
320.699	0.7	stop	0.722	Go_X	0.0
323.223	1.0	go	0.735	Go_X	1.0
325.747	1.0	go	0.722	Go_O	1.0
328.271	1.0	go	0.864	Go_X	1.0
330.796	1.0	go	0.795	Go_O	1.0
333.32	1.0	go	0.81	Go_O	1.0
335.844	1.0	go	0.788	Go_X	1.0
338.368	0.65	stop	0.732	Go_O	0.0
340.892	1.0	go	0.716	Go_O	1.0
343.416	1.0	go	0.727	Go_X	1.0
345.941	1.0	go	0.728	Go_X	1.0
348.482	1.0	go	0.896	Go_O	1.0
351.006	1.0	go	0.747	Go_X	1.0
353.53	0.6	stop	0.0	Go_X	1.0
356.054	1.0	go	0.728	Go_O	1.0
358.578	1.0	go	0.981	Go_X	1.0
361.102	1.0	go	0.694	Go_O	1.0
363.627	1.0	go	0.611	Go_X	1.0
366.151	0.65	stop	0.637	Go_O	0.0
368.675	1.0	go	0.788	Go_O	1.0
371.199	1.0	go	0.953	Go_X	1.0
373.723	0.6	stop	0.0	Go_X	1.0
376.247	1.0	go	0.595	Go_O	1.0
378.772	0.65	stop	0.683	Go_O	0.0
381.296	1.0	go	0.537	Go_X	1.0
383.82	1.0	go	0.519	Go_O	1.0
386.344	1.0	go	0.54	Go_O	1.0
388.868	1.0	go	0.603	Go_X	1.0
391.392	1.0	go	0.482	Go_X	1.0
393.917	1.0	go	0.797	Go_O	1.0
396.441	1.0	go	0.593	Go_X	1.0
398.965	0.6	stop	0.0	Go_X	1.0
401.489	1.0	go	0.0	Go_O	0.0
404.013	1.0	go	0.513	Go_X	1.0
406.537	1.0	go	0.698	Go_O	1.0
409.062	0.65	stop	0.741	Go_O	0.0
411.586	1.0	go	0.679	Go_O	1.0
414.11	1.0	go	0.54	Go_X	1.0
416.634	1.0	go	0.743	Go_O	1.0
419.158	1.0	go	0.765	Go_X	1.0
421.683	0.6	stop	0.0	Go_X	1.0
424.207	1.0	go	0.745	Go_X	1.0
426.731	1.0	go	0.829	Go_O	1.0
429.255	0.65	stop	0.0	Go_O	1.0
431.779	1.0	go	0.678	Go_X	1.0
434.303	1.0	go	0.907	Go_O	1.0
436.828	0.7	stop	0.747	Go_X	0.0
439.352	1.0	go	0.832	Go_O	1.0
441.876	1.0	go	0.971	Go_X	1.0
444.4	0.65	stop	0.0	Go_O	1.0
446.924	1.0	go	0.533	Go_X	1.0
449.448	1.0	go	0.969	Go_O	1.0
451.973	1.0	go	0.0	Go_O	0.0
454.497	1.0	go	0.734	Go_X	1.0
457.021	1.0	go	0.591	Go_O	1.0
459.545	1.0	go	0.579	Go_X	1.0
462.069	0.7	stop	0.0	Go_X	1.0
464.593	1.0	go	0.493	Go_O	1.0
467.118	0.75	stop	0.729	Go_O	0.0
469.642	1.0	go	0.677	Go_X	1.0
472.166	1.0	go	0.566	Go_X	1.0
474.69	1.0	go	0.801	Go_O	1.0
477.214	1.0	go	0.709	Go_O	1.0
479.738	1.0	go	0.462	Go_X	1.0
482.263	0.7	stop	0.754	Go_X	0.0
484.787	1.0	go	0.716	Go_O	1.0
487.311	1.0	go	0.635	Go_X	1.0
489.835	1.0	go	0.732	Go_O	1.0
492.359	0.65	stop	0.0	Go_O	1.0
494.884	0.7	stop	0.641	Go_X	0.0
497.408	0.65	stop	0.0	Go_O	1.0
499.932	1.0	go	0.705	Go_X	1.0
502.456	0.7	stop	0.831	Go_X	0.0
504.98	1.0	go	0.904	Go_O	1.0
507.504	1.0	go	0.958	Go_X	1.0
510.029	1.0	go	0.583	Go_O	1.0
512.553	1.0	go	0.636	Go_X	1.0
515.077	1.0	go	0.55	Go_O	1.0
517.601	1.0	go	0.609	Go_X	1.0
520.125	1.0	go	0.643	Go_X	1.0
522.649	1.0	go	0.759	Go_O	1.0
525.174	0.65	stop	0.0	Go_O	1.0
527.714	1.0	go	0.899	Go_O	1.0
530.239	1.0	go	0.42	Go_X	1.0
532.763	0.7	stop	0.456	Go_X	0.0
535.287	1.0	go	0.626	Go_O	1.0
537.811	1.0	go	0.926	Go_X	1.0
540.335	1.0	go	0.708	Go_O	1.0
542.859	1.0	go	0.541	Go_X	1.0
545.384	1.0	go	0.676	Go_O	1.0
547.908	0.65	stop	0.0	Go_O	1.0
550.432	1.0	go	0.673	Go_X	1.0
552.956	1.0	go	0.0	Go_O	0.0
555.48	1.0	go	0.711	Go_X	1.0
558.005	0.7	stop	0.73	Go_X	0.0
560.545	1.0	go	0.817	Go_O	1.0
563.07	0.65	stop	0.0	Go_O	1.0
565.594	1.0	go	0.977	Go_X	1.0
568.118	1.0	go	0.754	Go_X	1.0
570.642	1.0	go	0.643	Go_O	1.0
573.166	1.0	go	0.578	Go_X	1.0
575.69	1.0	go	0.611	Go_O	1.0
578.215	1.0	go	0.944	Go_X	1.0
580.739	1.0	go	0.745	Go_O	1.0
583.263	0.7	stop	0.558	Go_X	0.0
585.787	1.0	go	0.729	Go_X	1.0
588.311	1.0	go	0.547	Go_O	1.0
590.835	1.0	go	0.597	Go_X	1.0
593.36	1.0	go	0.741	Go_O	1.0
595.884	0.65	stop	0.773	Go_O	0.0
598.408	1.0	go	0.603	Go_X	1.0
600.932	0.6	stop	0.679	Go_X	0.0
603.456	1.0	go	0.825	Go_O	1.0
605.98	1.0	go	0.866	Go_X	1.0
608.505	0.55	stop	0.0	Go_O	1.0
611.029	1.0	go	0.746	Go_O	1.0
613.553	1.0	go	0.656	Go_O	1.0
616.077	1.0	go	0.78	Go_X	1.0
618.601	1.0	go	0.676	Go_O	1.0
621.126	1.0	go	0.835	Go_X	1.0
623.65	1.0	go	0.0	Go_X	0.0
626.174	1.0	go	0.706	Go_O	1.0
628.698	1.0	go	0.734	Go_X	1.0
631.222	1.0	go	0.655	Go_O	1.0
633.746	1.0	go	0.628	Go_O	1.0
636.271	0.6	stop	0.647	Go_X	0.0
638.811	1.0	go	0.745	Go_X	1.0
641.336	1.0	go	0.545	Go_X	1.0
643.86	0.55	stop	0.0	Go_O	1.0
646.384	1.0	go	0.655	Go_O	1.0
648.908	0.6	stop	0.733	Go_X	0.0
651.432	1.0	go	0.804	Go_O	1.0
653.956	1.0	go	0.691	Go_X	1.0
656.481	0.55	stop	0.0	Go_O	1.0
659.005	1.0	go	0.493	Go_O	1.0
661.529	0.6	stop	0.729	Go_X	0.0
664.053	1.0	go	0.86	Go_X	1.0
666.577	1.0	go	0.534	Go_X	1.0
669.102	1.0	go	0.506	Go_O	1.0
671.626	0.55	stop	0.689	Go_O	0.0
674.15	1.0	go	0.75	Go_X	1.0
676.674	1.0	go	0.74	Go_O	1.0
679.198	1.0	go	0.684	Go_O	1.0
681.722	1.0	go	0.838	Go_X	1.0
684.247	0.5	stop	0.0	Go_X	1.0
686.771	1.0	go	0.92	Go_X	1.0
689.295	1.0	go	0.699	Go_O	1.0
691.819	0.55	stop	0.0	Go_O	1.0
694.343	1.0	go	0.902	Go_X	1.0
696.884	1.0	go	0.932	Go_O	1.0
699.408	1.0	go	0.551	Go_O	1.0
701.932	1.0	go	0.411	Go_X	1.0
704.457	0.6	stop	0.783	Go_X	0.0
706.998	1.0	go	0.694	Go_O	1.0
709.522	0.55	stop	0.0	Go_O	1.0
712.046	1.0	go	0.573	Go_X	1.0
714.57	1.0	go	0.824	Go_O	1.0
717.094	0.6	stop	0.0	Go_X	1.0
719.618	1.0	go	0.636	Go_X	1.0
722.143	1.0	go	0.827	Go_X	1.0
724.667	1.0	go	0.697	Go_O	1.0
727.191	1.0	go	0.435	Go_X	1.0
729.715	0.65	stop	0.644	Go_O	0.0
732.239	1.0	go	0.725	Go_O	1.0
734.763	0.6	stop	0.717	Go_X	0.0
737.288	1.0	go	0.714	Go_X	1.0
739.812	1.0	go	0.581	Go_O	1.0
742.336	1.0	go	0.62	Go_O	1.0
744.86	1.0	go	0.448	Go_X	1.0
747.384	1.0	go	0.767	Go_O	1.0
749.908	1.0	go	0.63	Go_X	1.0
752.433	0.55	stop	0.0	Go_O	1.0
754.957	1.0	go	0.768	Go_O	1.0
757.481	1.0	go	0.623	Go_X	1.0
760.005	0.6	stop	0.63	Go_X	0.0
762.529	1.0	go	0.881	Go_X	1.0
765.053	1.0	go	0.651	Go_O	1.0
767.578	0.55	stop	0.0	Go_O	1.0
770.102	1.0	go	0.441	Go_X	1.0
772.626	1.0	go	0.815	Go_O	1.0
775.15	1.0	go	0.992	Go_O	1.0
777.674	1.0	go	0.775	Go_X	1.0
780.198	0.6	stop	0.683	Go_X	0.0
782.723	1.0	go	0.855	Go_X	1.0
785.247	0.55	stop	0.0	Go_O	1.0
787.771	1.0	go	0.792	Go_O	1.0
790.295	1.0	go	0.882	Go_X	1.0
792.819	1.0	go	0.921	Go_O	1.0
795.344	1.0	go	0.791	Go_O	1.0
797.868	1.0	go	0.868	Go_X	1.0
800.392	0.6	stop	0.0	Go_X	1.0
802.916	1.0	go	0.708	Go_X	1.0
805.44	1.0	go	0.798	Go_O	1.0
807.964	0.65	stop	0.755	Go_O	0.0
810.489	0.6	stop	0.0	Go_X	1.0
813.013	1.0	go	0.721	Go_O	1.0
815.537	1.0	go	0.97	Go_X	1.0
818.061	1.0	go	0.642	Go_X	1.0
820.585	1.0	go	0.593	Go_O	1.0
823.109	0.65	stop	0.818	Go_O	0.0
825.634	1.0	go	0.729	Go_O	1.0
