onset	duration	trial_type	response_time	stim_file	accuracy
92.99	1.0	go	0.797	Go_O	1.0
95.523	1.0	go	0.327	Go_X	1.0
98.056	1.0	go	0.0	Go_O	0.0
100.589	1.0	go	0.322	Go_X	1.0
103.123	1.0	go	0.587	Go_X	1.0
105.656	1.0	go	0.407	Go_O	1.0
108.189	0.25	stopsuccess	0.0	Go_O	1.0
110.722	1.0	go	0.434	Go_O	1.0
113.256	0.3	stopfail	0.389	Go_X	0.0
115.789	1.0	go	0.574	Go_X	1.0
118.322	1.0	go	0.424	Go_O	1.0
120.856	1.0	go	0.485	Go_X	1.0
123.405	0.25	stopfail	0.388	Go_O	0.0
125.939	1.0	go	0.409	Go_X	1.0
128.472	1.0	go	0.531	Go_O	1.0
131.005	0.2	stopsuccess	0.0	Go_X	1.0
133.538	0.25	stopfail	0.394	Go_O	0.0
136.072	1.0	go	0.657	Go_O	1.0
138.605	1.0	go	0.496	Go_X	1.0
141.138	0.2	stopsuccess	0.0	Go_X	1.0
143.672	1.0	go	0.612	Go_O	1.0
146.205	1.0	go	0.379	Go_X	1.0
148.738	0.25	stopsuccess	0.0	Go_O	1.0
151.271	1.0	go	0.559	Go_O	1.0
153.805	1.0	go	0.616	Go_X	1.0
156.338	0.3	stopsuccess	0.0	Go_X	1.0
158.871	1.0	go	0.59	Go_X	1.0
161.404	1.0	go	0.582	Go_O	1.0
163.938	0.35	stopsuccess	0.0	Go_O	1.0
166.471	1.0	go	0.56	Go_X	1.0
169.004	1.0	go	0.659	Go_O	1.0
171.537	1.0	go	0.597	Go_O	1.0
174.071	1.0	go	0.587	Go_X	1.0
176.604	1.0	go	0.726	Go_X	1.0
179.137	0.4	stopsuccess	0.0	Go_X	1.0
181.671	1.0	go	0.4	Go_O	1.0
184.22	1.0	go	0.553	Go_O	1.0
186.754	1.0	go	0.711	Go_X	1.0
189.287	1.0	go	0.822	Go_X	1.0
191.82	1.0	go	0.463	Go_O	1.0
194.353	0.45	stopfail	0.581	Go_O	0.0
196.887	1.0	go	0.604	Go_X	1.0
199.42	1.0	go	0.658	Go_O	1.0
201.953	1.0	go	0.567	Go_O	1.0
204.487	1.0	go	0.489	Go_X	1.0
207.02	1.0	go	0.611	Go_X	1.0
209.553	1.0	go	0.0	Go_O	0.0
212.086	0.4	stopfail	0.446	Go_X	0.0
214.62	1.0	go	0.566	Go_O	1.0
217.153	1.0	go	0.45	Go_X	1.0
219.686	0.35	stopfail	0.477	Go_O	0.0
222.219	1.0	go	0.61	Go_O	1.0
224.753	0.3	stopsuccess	0.0	Go_X	1.0
227.286	0.35	stopfail	0.541	Go_O	0.0
229.819	1.0	go	0.63	Go_X	1.0
232.352	1.0	go	0.57	Go_O	1.0
234.886	1.0	go	0.569	Go_X	1.0
237.419	1.0	go	0.516	Go_X	1.0
239.952	0.3	stopsuccess	0.0	Go_X	1.0
242.485	1.0	go	0.953	Go_O	1.0
245.019	0.35	stopfail	0.524	Go_O	0.0
247.552	1.0	go	0.464	Go_X	1.0
250.085	1.0	go	0.584	Go_O	1.0
252.619	1.0	go	0.766	Go_O	1.0
255.152	1.0	go	0.866	Go_X	1.0
257.685	1.0	go	0.607	Go_O	1.0
260.218	1.0	go	0.0	Go_X	0.0
262.752	1.0	go	0.765	Go_X	1.0
265.285	1.0	go	0.571	Go_O	1.0
267.818	1.0	go	0.0	Go_X	0.0
270.351	0.3	stopsuccess	0.0	Go_X	1.0
272.885	1.0	go	0.543	Go_O	1.0
275.418	1.0	go	0.513	Go_O	1.0
277.951	1.0	go	0.558	Go_X	1.0
280.484	0.35	stopsuccess	0.0	Go_O	1.0
283.018	1.0	go	0.883	Go_X	1.0
285.551	1.0	go	0.0	Go_O	0.0
288.084	1.0	go	0.0	Go_O	0.0
290.618	1.0	go	0.595	Go_X	1.0
293.167	1.0	go	0.645	Go_X	1.0
295.701	1.0	go	0.467	Go_O	1.0
298.234	0.4	stopsuccess	0.0	Go_X	1.0
300.767	1.0	go	0.627	Go_O	1.0
303.3	1.0	go	0.441	Go_X	1.0
305.834	0.45	stopsuccess	0.0	Go_O	1.0
308.367	1.0	go	0.0	Go_X	0.0
310.9	1.0	go	0.519	Go_O	1.0
313.434	0.5	stopfail	0.559	Go_X	0.0
315.967	1.0	go	0.581	Go_X	1.0
318.5	0.45	stopsuccess	0.0	Go_O	1.0
321.033	1.0	go	0.0	Go_O	0.0
323.567	1.0	go	0.54	Go_O	1.0
326.1	1.0	go	0.929	Go_X	1.0
328.633	1.0	go	0.598	Go_O	1.0
331.166	1.0	go	0.66	Go_X	1.0
333.7	0.5	stopfail	0.604	Go_X	0.0
336.233	0.45	stopsuccess	0.0	Go_O	1.0
338.766	1.0	go	0.706	Go_O	1.0
341.299	1.0	go	0.612	Go_X	1.0
343.833	0.5	stopsuccess	0.0	Go_X	1.0
346.366	1.0	go	0.815	Go_O	1.0
348.899	1.0	go	0.888	Go_X	1.0
351.432	1.0	go	0.644	Go_O	1.0
353.966	1.0	go	0.778	Go_X	1.0
356.499	1.0	go	0.997	Go_O	1.0
359.032	1.0	go	0.575	Go_X	1.0
361.566	0.55	stopsuccess	0.0	Go_O	1.0
364.099	1.0	go	0.92	Go_X	1.0
366.632	1.0	go	0.482	Go_O	1.0
369.165	1.0	go	0.636	Go_O	1.0
371.699	1.0	go	0.658	Go_X	1.0
374.232	1.0	go	0.779	Go_O	1.0
376.765	0.6	stopfail	0.809	Go_X	0.0
379.298	1.0	go	0.655	Go_X	1.0
381.832	1.0	go	0.699	Go_O	1.0
384.365	1.0	go	0.394	Go_X	1.0
386.898	1.0	go	0.627	Go_X	1.0
389.431	0.55	stopsuccess	0.0	Go_O	1.0
391.965	1.0	go	0.658	Go_O	1.0
394.498	1.0	go	0.549	Go_X	1.0
397.031	0.6	stopsuccess	0.0	Go_X	1.0
399.565	1.0	go	0.608	Go_O	1.0
402.114	0.65	stopsuccess	0.0	Go_O	1.0
404.648	1.0	go	0.646	Go_X	1.0
407.181	1.0	go	0.583	Go_O	1.0
409.714	1.0	go	0.656	Go_O	1.0
412.248	1.0	go	0.0	Go_X	0.0
414.797	1.0	go	0.0	Go_X	0.0
417.331	1.0	go	0.571	Go_O	1.0
419.864	1.0	go	0.498	Go_X	1.0
422.397	0.7	stopfail	0.617	Go_X	0.0
424.93	1.0	go	0.541	Go_O	1.0
427.464	1.0	go	0.66	Go_O	1.0
429.997	1.0	go	0.66	Go_X	1.0
432.53	0.65	stopsuccess	0.0	Go_O	1.0
435.064	1.0	go	0.575	Go_O	1.0
437.613	1.0	go	0.488	Go_X	1.0
440.147	1.0	go	0.411	Go_O	1.0
442.68	1.0	go	0.569	Go_X	1.0
445.213	0.7	stopfail	0.849	Go_X	0.0
447.747	1.0	go	0.585	Go_O	1.0
450.296	1.0	go	0.661	Go_X	1.0
452.83	0.65	stopsuccess	0.0	Go_O	1.0
455.363	1.0	go	0.888	Go_X	1.0
457.896	1.0	go	0.649	Go_O	1.0
460.429	0.7	stopsuccess	0.0	Go_X	1.0
462.963	1.0	go	0.541	Go_O	1.0
465.496	1.0	go	0.455	Go_X	1.0
468.029	0.75	stopfail	0.377	Go_O	0.0
470.563	1.0	go	0.842	Go_X	1.0
473.096	1.0	go	0.0	Go_O	0.0
475.629	1.0	go	0.613	Go_X	1.0
478.162	1.0	go	0.502	Go_O	1.0
480.696	1.0	go	0.624	Go_O	1.0
483.229	1.0	go	0.574	Go_X	1.0
485.762	0.7	stopfail	0.688	Go_X	0.0
488.295	1.0	go	0.522	Go_O	1.0
490.829	0.65	stopfail	0.693	Go_O	0.0
493.362	1.0	go	0.587	Go_X	1.0
495.895	1.0	go	0.0	Go_X	0.0
498.428	1.0	go	0.571	Go_O	1.0
500.962	1.0	go	0.613	Go_O	1.0
503.495	1.0	go	0.523	Go_X	1.0
506.028	0.6	stopfail	0.464	Go_X	0.0
508.562	1.0	go	0.554	Go_X	0.0
511.111	1.0	go	0.0	Go_O	0.0
513.645	1.0	go	0.481	Go_O	1.0
516.178	0.55	stopfail	0.395	Go_O	0.0
518.711	0.5	stopfail	0.723	Go_X	0.0
521.244	0.45	stopsuccess	0.0	Go_O	1.0
523.778	1.0	go	0.794	Go_X	1.0
526.311	0.5	stopfail	0.663	Go_X	0.0
528.844	1.0	go	0.0	Go_O	0.0
531.378	1.0	go	0.912	Go_X	1.0
533.911	1.0	go	0.383	Go_X	1.0
536.444	1.0	go	0.469	Go_O	1.0
538.977	1.0	go	0.0	Go_O	0.0
541.511	1.0	go	0.41	Go_X	1.0
544.044	1.0	go	0.399	Go_O	1.0
546.577	1.0	go	0.0	Go_X	0.0
549.11	0.45	stopfail	0.425	Go_O	0.0
551.644	1.0	go	0.283	Go_X	1.0
554.177	1.0	go	0.304	Go_O	1.0
556.71	0.4	stopsuccess	0.0	Go_X	1.0
559.243	1.0	go	0.49	Go_X	1.0
561.777	1.0	go	0.835	Go_O	1.0
564.31	1.0	go	0.619	Go_O	1.0
566.843	1.0	go	0.0	Go_X	0.0
569.376	1.0	go	0.459	Go_O	1.0
571.91	0.45	stopfail	0.563	Go_O	0.0
574.443	1.0	go	0.0	Go_X	0.0
576.976	1.0	go	0.725	Go_O	1.0
579.51	1.0	go	0.0	Go_X	0.0
582.043	0.4	stopfail	0.511	Go_X	0.0
584.576	1.0	go	0.452	Go_O	1.0
587.109	0.35	stopsuccess	0.0	Go_O	1.0
589.643	1.0	go	0.419	Go_X	1.0
592.176	1.0	go	0.73	Go_O	1.0
594.709	1.0	go	0.542	Go_X	1.0
597.242	1.0	go	0.0	Go_X	0.0
599.776	1.0	go	0.522	Go_O	1.0
602.309	1.0	go	0.674	Go_O	1.0
604.842	1.0	go	0.568	Go_X	1.0
607.375	0.4	stopsuccess	0.0	Go_X	1.0
609.909	1.0	go	0.0	Go_O	0.0
612.442	1.0	go	0.538	Go_X	1.0
614.975	1.0	go	0.0	Go_O	0.0
617.509	1.0	go	0.442	Go_X	1.0
620.058	0.45	stopfail	0.38	Go_O	0.0
622.592	1.0	go	0.736	Go_O	1.0
625.125	0.4	stopfail	0.68	Go_X	0.0
627.658	1.0	go	0.592	Go_X	1.0
630.191	1.0	go	0.679	Go_O	1.0
632.725	0.35	stopsuccess	0.0	Go_O	1.0
635.258	1.0	go	0.57	Go_X	1.0
637.791	1.0	go	0.0	Go_X	0.0
640.325	1.0	go	0.492	Go_O	1.0
642.874	1.0	go	0.608	Go_X	1.0
645.408	1.0	go	0.529	Go_O	1.0
647.941	1.0	go	0.414	Go_X	1.0
650.474	1.0	go	0.626	Go_O	1.0
653.008	1.0	go	0.979	Go_X	1.0
655.557	1.0	go	0.58	Go_O	1.0
658.091	1.0	go	0.717	Go_O	1.0
660.624	0.4	stopsuccess	0.0	Go_X	1.0
663.157	1.0	go	0.0	Go_X	0.0
665.691	1.0	go	0.856	Go_X	1.0
668.24	0.45	stopsuccess	0.0	Go_O	1.0
670.774	1.0	go	0.53	Go_O	1.0
673.307	0.5	stopfail	0.474	Go_X	0.0
675.84	1.0	go	0.0	Go_O	0.0
678.374	1.0	go	0.635	Go_X	1.0
680.923	0.45	stopsuccess	0.0	Go_O	1.0
683.457	1.0	go	0.688	Go_X	1.0
685.99	0.5	stopfail	0.852	Go_X	0.0
688.523	1.0	go	0.676	Go_O	1.0
691.056	1.0	go	0.615	Go_X	1.0
693.59	1.0	go	0.63	Go_O	1.0
696.123	0.45	stopsuccess	0.0	Go_O	1.0
698.656	1.0	go	0.561	Go_X	1.0
701.19	1.0	go	0.681	Go_O	1.0
703.739	1.0	go	0.309	Go_X	1.0
706.273	1.0	go	0.0	Go_O	0.0
708.806	0.5	stopfail	0.379	Go_X	0.0
711.339	1.0	go	0.315	Go_O	1.0
713.873	1.0	go	0.741	Go_X	1.0
716.422	0.45	stopfail	0.524	Go_O	0.0
718.956	1.0	go	0.647	Go_O	1.0
721.489	1.0	go	0.474	Go_X	1.0
724.022	1.0	go	0.785	Go_X	0.0
726.556	1.0	go	0.578	Go_O	1.0
729.105	0.4	stopfail	0.387	Go_X	0.0
731.639	1.0	go	0.344	Go_O	1.0
734.172	0.35	stopsuccess	0.0	Go_O	1.0
736.705	1.0	go	0.587	Go_X	0.0
739.238	1.0	go	0.486	Go_O	1.0
741.772	0.4	stopfail	0.315	Go_X	0.0
744.305	1.0	go	0.0	Go_X	0.0
746.838	1.0	go	0.0	Go_X	0.0
749.372	1.0	go	0.283	Go_O	1.0
751.921	1.0	go	0.344	Go_X	1.0
754.455	0.35	stopfail	0.337	Go_O	0.0
756.988	1.0	go	0.632	Go_O	1.0
759.521	0.3	stopfail	0.326	Go_X	0.0
762.055	1.0	go	0.642	Go_X	1.0
764.604	1.0	go	0.43	Go_O	1.0
767.138	1.0	go	0.557	Go_O	1.0
769.671	1.0	go	0.244	Go_X	1.0
772.204	1.0	go	0.533	Go_O	1.0
774.737	1.0	go	0.822	Go_X	1.0
777.271	0.25	stopsuccess	0.0	Go_O	1.0
779.804	1.0	go	0.271	Go_X	1.0
782.337	1.0	go	0.6	Go_O	1.0
784.871	0.3	stopfail	0.429	Go_X	0.0
787.404	1.0	go	0.582	Go_X	1.0
789.937	1.0	go	0.398	Go_O	1.0
792.47	0.25	stopsuccess	0.0	Go_O	1.0
795.004	1.0	go	0.829	Go_X	1.0
797.537	1.0	go	0.448	Go_O	1.0
800.07	1.0	go	0.0	Go_X	0.0
802.603	1.0	go	0.377	Go_O	1.0
805.137	0.3	stopfail	0.312	Go_X	0.0
807.67	1.0	go	0.399	Go_O	1.0
810.203	0.25	stopfail	0.231	Go_O	0.0
812.736	1.0	go	0.432	Go_X	1.0
815.27	1.0	go	0.596	Go_X	1.0
817.803	1.0	go	0.433	Go_O	1.0
820.336	1.0	go	0.519	Go_X	1.0
822.87	1.0	go	0.38	Go_O	1.0
825.419	0.2	stopfail	0.821	Go_X	0.0
827.953	1.0	go	0.453	Go_O	1.0
830.486	1.0	go	0.833	Go_X	1.0
833.019	0.15	stopsuccess	0.0	Go_O	1.0
835.552	0.2	stopsuccess	0.0	Go_X	1.0
838.086	1.0	go	0.0	Go_O	0.0
840.619	1.0	go	0.478	Go_X	1.0
843.152	1.0	go	0.0	Go_X	0.0
845.686	1.0	go	0.353	Go_O	1.0
848.219	0.25	stopsuccess	0.0	Go_O	1.0
850.752	1.0	go	0.761	Go_O	1.0
