frame	onset	duration	trial_type	event_type	response_type	response_time	stim_file	accuracy
0	285.737		loss-reward	ImageDisplay1		0.0		
0	287.977	0.75	loss-reward	StartDisplay				
0	288.713		loss-reward	ImageDisplay2		0.0		
0	291.722	1.6	loss-reward	ChoiceDisplay	1	1.118	1	1
0	292.858	0.482	loss-reward	ChosenDisplay		0.0		
0	293.326	0.25	loss-reward	TurnDisplay				
0	293.577	0.75	loss-reward	OutcomeDisplay				
1	294.329		win-noreward	ImageDisplay1		0.0		
1	296.319	0.75	win-noreward	StartDisplay				
1	297.071		win-noreward	ImageDisplay2		0.0		
1	300.331	1.6	win-noreward	ChoiceDisplay	1	1.192	1	1
1	301.534	0.408	win-noreward	ChosenDisplay		0.0		
1	301.935	0.25	win-noreward	TurnDisplay				
1	302.186	0.75	win-noreward	OutcomeDisplay				
2	302.938		win-reward	ImageDisplay1		0.0		
2	305.178	0.75	win-reward	StartDisplay				
2	305.931		win-reward	ImageDisplay2		0.0		
2	308.939	1.6	win-reward	ChoiceDisplay	1	1.136	1	1
2	310.093	0.464	win-reward	ChosenDisplay		0.0		
2	310.544	0.25	win-reward	TurnDisplay				
2	310.795	0.75	win-reward	OutcomeDisplay				
3	311.547		loss-reward	ImageDisplay1		0.0		
3	313.787	0.75	loss-reward	StartDisplay				
3	314.539		loss-reward	ImageDisplay2		0.0		
3	317.548	1.6	loss-reward	ChoiceDisplay	1	0.986	1	1
3	318.551	0.614	loss-reward	ChosenDisplay		0.0		
3	319.153	0.25	loss-reward	TurnDisplay				
3	319.404	0.75	loss-reward	OutcomeDisplay				
4	320.156		control-noreward	ImageDisplay1		0.0		
4	322.145	0.75	control-noreward	StartDisplay				
4	322.898		control-noreward	ImageDisplay2		0.0		
4	326.157	1.6	control-noreward	ChoiceDisplay	1	1.07	1	1
4	327.244	0.53	control-noreward	ChosenDisplay		0.0		
4	327.762	0.25	control-noreward	TurnDisplay				
4	328.013	0.75	control-noreward	OutcomeDisplay				
5	328.765		loss-reward	ImageDisplay1		0.0		
5	331.005	0.75	loss-reward	StartDisplay				
5	331.757		loss-reward	ImageDisplay2		0.0		
5	334.766	1.6	loss-reward	ChoiceDisplay	1	0.932	1	1
5	335.719	0.668	loss-reward	ChosenDisplay		0.0		
5	336.371	0.25	loss-reward	TurnDisplay				
5	336.622	0.75	loss-reward	OutcomeDisplay				
6	337.374		control-reward	ImageDisplay1		0.0		
6	339.614	0.75	control-reward	StartDisplay				
6	340.366		control-reward	ImageDisplay2		0.0		
6	343.375	1.6	control-reward	ChoiceDisplay	1	0.965	1	1
6	344.362	0.635	control-reward	ChosenDisplay		0.0		
6	344.98	0.25	control-reward	TurnDisplay				
6	345.231	0.75	control-reward	OutcomeDisplay				
7	345.983		loss-noreward	ImageDisplay1		0.0		
7	347.972	0.75	loss-noreward	StartDisplay				
7	348.725		loss-noreward	ImageDisplay2		0.0		
7	351.984	1.6	loss-noreward	ChoiceDisplay	1	0.93	1	1
7	352.937	0.67	loss-noreward	ChosenDisplay		0.0		
7	353.589	0.25	loss-noreward	TurnDisplay				
7	353.84	0.75	loss-noreward	OutcomeDisplay				
8	354.592		control-noreward	ImageDisplay1		0.0		
8	356.581	0.75	control-noreward	StartDisplay				
8	357.334		control-noreward	ImageDisplay2		0.0		
8	360.593	1.6	control-noreward	ChoiceDisplay	1	1.089	1	1
8	361.697	0.511	control-noreward	ChosenDisplay		0.0		
8	362.198	0.25	control-noreward	TurnDisplay				
8	362.449	0.75	control-noreward	OutcomeDisplay				
9	363.201		win-reward	ImageDisplay1		0.0		
9	365.441	0.75	win-reward	StartDisplay				
9	366.193		win-reward	ImageDisplay2		0.0		
9	369.202	1.6	win-reward	ChoiceDisplay	1	1.14	1	1
9	370.356	0.46	win-reward	ChosenDisplay		0.0		
9	370.807	0.25	win-reward	TurnDisplay				
9	371.058	0.75	win-reward	OutcomeDisplay				
10	371.81		win-reward	ImageDisplay1		0.0		
10	374.05	0.75	win-reward	StartDisplay				
10	374.802		win-reward	ImageDisplay2		0.0		
10	377.811	1.6	win-reward	ChoiceDisplay	1	1.112	1	1
10	378.948	0.488	win-reward	ChosenDisplay		0.0		
10	379.416	0.25	win-reward	TurnDisplay				
10	379.667	0.75	win-reward	OutcomeDisplay				
11	380.419		control-noreward	ImageDisplay1		0.0		
11	382.408	0.75	control-noreward	StartDisplay				
11	383.16		control-noreward	ImageDisplay2		0.0		
11	386.42	1.6	control-noreward	ChoiceDisplay	1	0.37	1	1
11	386.805	1.23	control-noreward	ChosenDisplay		0.0		
11	388.025	0.25	control-noreward	TurnDisplay				
11	388.276	0.75	control-noreward	OutcomeDisplay				
12	389.028		win-reward	ImageDisplay1		0.0		
12	391.268	0.75	win-reward	StartDisplay				
12	392.02		win-reward	ImageDisplay2		0.0		
12	395.029	1.6	win-reward	ChoiceDisplay	1	1.178	1	1
12	396.233	0.422	win-reward	ChosenDisplay		0.0		
12	396.634	0.25	win-reward	TurnDisplay				
12	396.885	0.75	win-reward	OutcomeDisplay				
13	397.637		win-reward	ImageDisplay1		0.0		
13	399.877	0.75	win-reward	StartDisplay				
13	400.629		win-reward	ImageDisplay2		0.0		
13	403.638	1.6	win-reward	ChoiceDisplay	1	1.056	1	1
13	404.708	0.544	win-reward	ChosenDisplay		0.0		
13	405.243	0.25	win-reward	TurnDisplay				
13	405.494	0.75	win-reward	OutcomeDisplay				
14	406.246		loss-noreward	ImageDisplay1		0.0		
14	408.235	0.75	loss-noreward	StartDisplay				
14	408.987		loss-noreward	ImageDisplay2		0.0		
14	412.247	1.6	loss-noreward	ChoiceDisplay	1	1.101	1	1
14	413.367	0.499	loss-noreward	ChosenDisplay		0.0		
14	413.852	0.25	loss-noreward	TurnDisplay				
14	414.103	0.75	loss-noreward	OutcomeDisplay				
15	414.855		control-reward	ImageDisplay1		0.0		
15	417.095	0.75	control-reward	StartDisplay				
15	417.847		control-reward	ImageDisplay2		0.0		
15	420.856	1.6	control-reward	ChoiceDisplay	1	1.041	1	1
15	421.909	0.559	control-reward	ChosenDisplay		0.0		
15	422.461	0.25	control-reward	TurnDisplay				
15	422.712	0.75	control-reward	OutcomeDisplay				
16	423.464		loss-reward	ImageDisplay1		0.0		
16	425.704	0.75	loss-reward	StartDisplay				
16	426.456		loss-reward	ImageDisplay2		0.0		
16	429.465	1.6	loss-reward	ChoiceDisplay	1	1.139	1	1
16	430.618	0.461	loss-reward	ChosenDisplay		0.0		
16	431.07	0.25	loss-reward	TurnDisplay				
16	431.321	0.75	loss-reward	OutcomeDisplay				
17	432.073		control-reward	ImageDisplay1		0.0		
17	434.313	0.75	control-reward	StartDisplay				
17	435.065		control-reward	ImageDisplay2		0.0		
17	438.074	1.6	control-reward	ChoiceDisplay	1	1.017	1	1
17	439.11	0.583	control-reward	ChosenDisplay		0.0		
17	439.679	0.25	control-reward	TurnDisplay				
17	439.93	0.75	control-reward	OutcomeDisplay				
18	440.682		loss-noreward	ImageDisplay1		0.0		
18	442.671	0.75	loss-noreward	StartDisplay				
18	443.423		loss-noreward	ImageDisplay2		0.0		
18	446.683	1.6	loss-noreward	ChoiceDisplay	1	1.215	1	1
18	447.92	0.385	loss-noreward	ChosenDisplay		0.0		
18	448.288	0.25	loss-noreward	TurnDisplay				
18	448.538	0.75	loss-noreward	OutcomeDisplay				
19	449.291		loss-reward	ImageDisplay1		0.0		
19	451.531	0.75	loss-reward	StartDisplay				
19	452.283		loss-reward	ImageDisplay2		0.0		
19	455.292	1.6	loss-reward	ChoiceDisplay	1	1.128	1	1
19	456.445	0.472	loss-reward	ChosenDisplay		0.0		
19	456.897	0.25	loss-reward	TurnDisplay				
19	457.147	0.75	loss-reward	OutcomeDisplay				
20	457.9		control-reward	ImageDisplay1		0.0		
20	460.14	0.75	control-reward	StartDisplay				
20	460.892		control-reward	ImageDisplay2		0.0		
20	463.901	1.6	control-reward	ChoiceDisplay	1	1.07	1	1
20	464.987	0.53	control-reward	ChosenDisplay		0.0		
20	465.506	0.25	control-reward	TurnDisplay				
20	465.756	0.75	control-reward	OutcomeDisplay				
21	466.509		loss-reward	ImageDisplay1		0.0		
21	468.749	0.75	loss-reward	StartDisplay				
21	469.501		loss-reward	ImageDisplay2		0.0		
21	472.51	1.6	loss-reward	ChoiceDisplay	1	1.249	1	1
21	473.78	0.351	loss-reward	ChosenDisplay		0.0		
21	474.115	0.25	loss-reward	TurnDisplay				
21	474.365	0.75	loss-reward	OutcomeDisplay				
22	475.118		loss-noreward	ImageDisplay1		0.0		
22	477.107	0.75	loss-noreward	StartDisplay				
22	477.859		loss-noreward	ImageDisplay2		0.0		
22	481.119	1.6	loss-noreward	ChoiceDisplay	1	1.042	1	1
22	482.189	0.558	loss-noreward	ChosenDisplay		0.0		
22	482.724	0.25	loss-noreward	TurnDisplay				
22	482.974	0.75	loss-noreward	OutcomeDisplay				
23	483.727		win-reward	ImageDisplay1		0.0		
23	485.967	0.75	win-reward	StartDisplay				
23	486.719		win-reward	ImageDisplay2		0.0		
23	489.728	1.6	win-reward	ChoiceDisplay	1	1.074	1	1
23	490.814	0.526	win-reward	ChosenDisplay		0.0		
23	491.333	0.25	win-reward	TurnDisplay				
23	491.583	0.75	win-reward	OutcomeDisplay				
24	492.336		win-noreward	ImageDisplay1		0.0		
24	494.325	0.75	win-noreward	StartDisplay				
24	495.077		win-noreward	ImageDisplay2		0.0		
24	498.337	1.6	win-noreward	ChoiceDisplay	1	1.182	1	1
24	499.54	0.418	win-noreward	ChosenDisplay		0.0		
24	499.942	0.25	win-noreward	TurnDisplay				
24	500.192	0.75	win-noreward	OutcomeDisplay				
25	500.945		win-noreward	ImageDisplay1		0.0		
25	502.934	0.75	win-noreward	StartDisplay				
25	503.686		win-noreward	ImageDisplay2		0.0		
25	506.946	1.6	win-noreward	ChoiceDisplay	1	1.213	1	1
25	508.183	0.387	win-noreward	ChosenDisplay		0.0		
25	508.55	0.25	win-noreward	TurnDisplay				
25	508.801	0.75	win-noreward	OutcomeDisplay				
26	509.553		win-noreward	ImageDisplay1		0.0		
26	511.543	0.75	win-noreward	StartDisplay				
26	512.295		win-noreward	ImageDisplay2		0.0		
26	515.555	1.6	win-noreward	ChoiceDisplay	1	1.192	1	1
26	516.758	0.408	win-noreward	ChosenDisplay		0.0		
26	517.159	0.25	win-noreward	TurnDisplay				
26	517.41	0.75	win-noreward	OutcomeDisplay				
27	518.162		control-noreward	ImageDisplay1		0.0		
27	520.152	0.75	control-noreward	StartDisplay				
27	520.904		control-noreward	ImageDisplay2		0.0		
27	524.164	1.6	control-noreward	ChoiceDisplay	1	1.22	1	1
27	525.401	0.38	control-noreward	ChosenDisplay		0.0		
27	525.768	0.25	control-noreward	TurnDisplay				
27	526.019	0.75	control-noreward	OutcomeDisplay				
28	526.771		win-reward	ImageDisplay1		0.0		
28	529.011	0.75	win-reward	StartDisplay				
28	529.764		win-reward	ImageDisplay2		0.0		
28	532.773	1.6	win-reward	ChoiceDisplay	1	1.289	1	1
28	534.076	0.311	win-reward	ChosenDisplay		0.0		
28	534.377	0.25	win-reward	TurnDisplay				
28	534.628	0.75	win-reward	OutcomeDisplay				
29	535.38		win-reward	ImageDisplay1		0.0		
29	537.62	0.75	win-reward	StartDisplay				
29	538.373		win-reward	ImageDisplay2		0.0		
29	541.382	1.6	win-reward	ChoiceDisplay	1	1.296	1	1
29	542.702	0.304	win-reward	ChosenDisplay		0.0		
29	542.986	0.25	win-reward	TurnDisplay				
29	543.237	0.75	win-reward	OutcomeDisplay				
30	543.989		control-reward	ImageDisplay1		0.0		
30	546.229	0.75	control-reward	StartDisplay				
30	546.982		control-reward	ImageDisplay2		0.0		
30	549.991	1.6	control-reward	ChoiceDisplay	1	1.204	1	1
30	551.211	0.396	control-reward	ChosenDisplay		0.0		
30	551.595	0.25	control-reward	TurnDisplay				
30	551.846	0.75	control-reward	OutcomeDisplay				
31	552.598		control-noreward	ImageDisplay1		0.0		
31	554.588	0.75	control-noreward	StartDisplay				
31	555.34		control-noreward	ImageDisplay2		0.0		
31	558.599	1.6	control-noreward	ChoiceDisplay	1	1.181	1	1
31	559.803	0.419	control-noreward	ChosenDisplay		0.0		
31	560.204	0.25	control-noreward	TurnDisplay				
31	560.455	0.75	control-noreward	OutcomeDisplay				
32	561.207		win-reward	ImageDisplay1		0.0		
32	563.447	0.75	win-reward	StartDisplay				
32	564.2		win-reward	ImageDisplay2		0.0		
32	567.208	1.6	win-reward	ChoiceDisplay	1	1.357	1	1
32	568.579	0.243	win-reward	ChosenDisplay		0.0		
32	568.813	0.25	win-reward	TurnDisplay				
32	569.064	0.75	win-reward	OutcomeDisplay				
33	569.816		control-noreward	ImageDisplay1		0.0		
33	571.805	0.75	control-noreward	StartDisplay				
33	572.558		control-noreward	ImageDisplay2		0.0		
33	575.817	1.6	control-noreward	ChoiceDisplay	1	1.192	1	1
33	577.021	0.408	control-noreward	ChosenDisplay		0.0		
33	577.422	0.25	control-noreward	TurnDisplay				
33	577.673	0.75	control-noreward	OutcomeDisplay				
34	578.425		win-noreward	ImageDisplay1		0.0		
34	580.414	0.75	win-noreward	StartDisplay				
34	581.167		win-noreward	ImageDisplay2		0.0		
34	584.426	1.6	win-noreward	ChoiceDisplay	1	1.183	1	1
34	585.63	0.417	win-noreward	ChosenDisplay		0.0		
34	586.031	0.25	win-noreward	TurnDisplay				
34	586.282	0.75	win-noreward	OutcomeDisplay				
35	587.034		win-noreward	ImageDisplay1		0.0		
35	589.023	0.75	win-noreward	StartDisplay				
35	589.776		win-noreward	ImageDisplay2		0.0		
35	593.035	1.6	win-noreward	ChoiceDisplay	1	1.115	1	1
35	594.172	0.485	win-noreward	ChosenDisplay		0.0		
35	594.64	0.25	win-noreward	TurnDisplay				
35	594.891	0.75	win-noreward	OutcomeDisplay				
36	595.643		win-noreward	ImageDisplay1		0.0		
36	597.632	0.75	win-noreward	StartDisplay				
36	598.385		win-noreward	ImageDisplay2		0.0		
36	601.644	1.6	win-noreward	ChoiceDisplay	1	1.398	1	1
36	603.065	0.202	win-noreward	ChosenDisplay		0.0		
36	603.249	0.25	win-noreward	TurnDisplay				
36	603.5	0.75	win-noreward	OutcomeDisplay				
37	604.252		win-noreward	ImageDisplay1		0.0		
37	606.241	0.75	win-noreward	StartDisplay				
37	606.994		win-noreward	ImageDisplay2		0.0		
37	610.253	1.6	win-noreward	ChoiceDisplay	1	1.319	1	1
37	611.591	0.281	win-noreward	ChosenDisplay		0.0		
37	611.858	0.25	win-noreward	TurnDisplay				
37	612.109	0.75	win-noreward	OutcomeDisplay				
38	612.861		loss-reward	ImageDisplay1		0.0		
38	615.101	0.75	loss-reward	StartDisplay				
38	615.853		loss-reward	ImageDisplay2		0.0		
38	618.862	1.6	loss-reward	ChoiceDisplay	1	1.275	1	1
38	620.149	0.325	loss-reward	ChosenDisplay		0.0		
38	620.467	0.25	loss-reward	TurnDisplay				
38	620.718	0.75	loss-reward	OutcomeDisplay				
39	621.47		loss-noreward	ImageDisplay1		0.0		
39	623.459	0.75	loss-noreward	StartDisplay				
39	624.212		loss-noreward	ImageDisplay2		0.0		
39	627.471	1.6	loss-noreward	ChoiceDisplay	1	1.199	1	1
39	628.692	0.401	loss-noreward	ChosenDisplay		0.0		
39	629.076	0.25	loss-noreward	TurnDisplay				
39	629.327	0.75	loss-noreward	OutcomeDisplay				
40	630.079		win-noreward	ImageDisplay1		0.0		
40	632.068	0.75	win-noreward	StartDisplay				
40	632.821		win-noreward	ImageDisplay2		0.0		
40	636.08	1.6	win-noreward	ChoiceDisplay	1	1.125	1	1
40	637.217	0.475	win-noreward	ChosenDisplay		0.0		
40	637.685	0.25	win-noreward	TurnDisplay				
40	637.936	0.75	win-noreward	OutcomeDisplay				
41	638.688		control-noreward	ImageDisplay1		0.0		
41	640.677	0.75	control-noreward	StartDisplay				
41	641.429		control-noreward	ImageDisplay2		0.0		
41	644.689	1.6	control-noreward	ChoiceDisplay	1	1.412	1	1
41	646.127	0.188	control-noreward	ChosenDisplay		0.0		
41	646.294	0.25	control-noreward	TurnDisplay				
41	646.545	0.75	control-noreward	OutcomeDisplay				
42	647.297		win-reward	ImageDisplay1		0.0		
42	649.537	0.75	win-reward	StartDisplay				
42	650.289		win-reward	ImageDisplay2		0.0		
42	653.298	1.6	win-reward	ChoiceDisplay	1	1.022	1	1
42	654.335	0.578	win-reward	ChosenDisplay		0.0		
42	654.903	0.25	win-reward	TurnDisplay				
42	655.154	0.75	win-reward	OutcomeDisplay				
43	655.906		loss-reward	ImageDisplay1		0.0		
43	658.146	0.75	loss-reward	StartDisplay				
43	658.898		loss-reward	ImageDisplay2		0.0		
43	661.907	1.6	loss-reward	ChoiceDisplay	1	1.144	1	1
43	663.077	0.456	loss-reward	ChosenDisplay		0.0		
43	663.512	0.25	loss-reward	TurnDisplay				
43	663.763	0.75	loss-reward	OutcomeDisplay				
44	664.515		control-noreward	ImageDisplay1		0.0		
44	666.504	0.75	control-noreward	StartDisplay				
44	667.256		control-noreward	ImageDisplay2		0.0		
44	670.516	1.6	control-noreward	ChoiceDisplay	1	1.212	1	1
44	671.753	0.388	control-noreward	ChosenDisplay		0.0		
44	672.121	0.25	control-noreward	TurnDisplay				
44	672.372	0.75	control-noreward	OutcomeDisplay				
45	673.124		control-reward	ImageDisplay1		0.0		
45	675.364	0.75	control-reward	StartDisplay				
45	676.116		control-reward	ImageDisplay2		0.0		
45	679.125	1.6	control-reward	ChoiceDisplay	1	1.125	1	1
45	680.262	0.475	control-reward	ChosenDisplay		0.0		
45	680.73	0.25	control-reward	TurnDisplay				
45	680.981	0.75	control-reward	OutcomeDisplay				
46	681.733		control-reward	ImageDisplay1		0.0		
46	683.973	0.75	control-reward	StartDisplay				
46	684.725		control-reward	ImageDisplay2		0.0		
46	687.734	1.6	control-reward	ChoiceDisplay	1	1.052	1	1
46	688.804	0.548	control-reward	ChosenDisplay		0.0		
46	689.339	0.25	control-reward	TurnDisplay				
46	689.59	0.75	control-reward	OutcomeDisplay				
47	690.342		loss-noreward	ImageDisplay1		0.0		
47	692.331	0.75	loss-noreward	StartDisplay				
47	693.083		loss-noreward	ImageDisplay2		0.0		
47	696.343	1.6	loss-noreward	ChoiceDisplay	1	0.995	1	1
47	697.363	0.605	loss-noreward	ChosenDisplay		0.0		
47	697.948	0.25	loss-noreward	TurnDisplay				
47	698.199	0.75	loss-noreward	OutcomeDisplay				
48	698.951		control-noreward	ImageDisplay1		0.0		
48	700.94	0.75	control-noreward	StartDisplay				
48	701.692		control-noreward	ImageDisplay2		0.0		
48	704.952	1.6	control-noreward	ChoiceDisplay	1	1.005	1	1
48	705.972	0.595	control-noreward	ChosenDisplay		0.0		
48	706.557	0.25	control-noreward	TurnDisplay				
48	706.807	0.75	control-noreward	OutcomeDisplay				
49	707.56		win-noreward	ImageDisplay1		0.0		
49	709.549	0.75	win-noreward	StartDisplay				
49	710.301		win-noreward	ImageDisplay2		0.0		
49	713.561	1.6	win-noreward	ChoiceDisplay	1	1.053	1	1
49	714.631	0.547	win-noreward	ChosenDisplay		0.0		
49	715.166	0.25	win-noreward	TurnDisplay				
49	715.416	0.75	win-noreward	OutcomeDisplay				
50	716.169		loss-noreward	ImageDisplay1		0.0		
50	718.158	0.75	loss-noreward	StartDisplay				
50	718.91		loss-noreward	ImageDisplay2		0.0		
50	722.17	1.6	loss-noreward	ChoiceDisplay	1	0.976	1	1
50	723.173	0.624	loss-noreward	ChosenDisplay		0.0		
50	723.775	0.25	loss-noreward	TurnDisplay				
50	724.025	0.75	loss-noreward	OutcomeDisplay				
51	724.778		control-noreward	ImageDisplay1		0.0		
51	726.767	0.75	control-noreward	StartDisplay				
51	727.519		control-noreward	ImageDisplay2		0.0		
51	730.779	1.6	control-noreward	ChoiceDisplay	1	1.085	1	1
51	731.882	0.515	control-noreward	ChosenDisplay		0.0		
51	732.384	0.25	control-noreward	TurnDisplay				
51	732.634	0.75	control-noreward	OutcomeDisplay				
52	733.387		loss-reward	ImageDisplay1		0.0		
52	735.627	0.75	loss-reward	StartDisplay				
52	736.379		loss-reward	ImageDisplay2		0.0		
52	739.388	1.6	loss-reward	ChoiceDisplay	1	1.007	1	1
52	740.408	0.593	loss-reward	ChosenDisplay		0.0		
52	740.993	0.25	loss-reward	TurnDisplay				
52	741.243	0.75	loss-reward	OutcomeDisplay				
53	741.996		control-reward	ImageDisplay1		0.0		
53	744.236	0.75	control-reward	StartDisplay				
53	744.988		control-reward	ImageDisplay2		0.0		
53	747.997	1.6	control-reward	ChoiceDisplay	1	1.122	1	1
53	749.133	0.478	control-reward	ChosenDisplay		0.0		
53	749.602	0.25	control-reward	TurnDisplay				
53	749.852	0.75	control-reward	OutcomeDisplay				
54	750.605		win-noreward	ImageDisplay1		0.0		
54	752.594	0.75	win-noreward	StartDisplay				
54	753.346		win-noreward	ImageDisplay2		0.0		
54	756.606	1.6	win-noreward	ChoiceDisplay	1	1.013	1	1
54	757.642	0.587	win-noreward	ChosenDisplay		0.0		
54	758.211	0.25	win-noreward	TurnDisplay				
54	758.461	0.75	win-noreward	OutcomeDisplay				
55	759.214		win-reward	ImageDisplay1		0.0		
55	761.454	0.75	win-reward	StartDisplay				
55	762.206		win-reward	ImageDisplay2		0.0		
55	765.215	1.6	win-reward	ChoiceDisplay	1	1.205	1	1
55	766.435	0.395	win-reward	ChosenDisplay		0.0		
55	766.82	0.25	win-reward	TurnDisplay				
55	767.07	0.75	win-reward	OutcomeDisplay				
56	767.822		control-reward	ImageDisplay1		0.0		
56	770.062	0.75	control-reward	StartDisplay				
56	770.815		control-reward	ImageDisplay2		0.0		
56	773.824	1.6	control-reward	ChoiceDisplay		0.0		
56	775.412	0.0	control-reward	ChosenDisplay		0.0		
56	775.428	0.25	control-reward	TurnDisplay				
56	775.662	0.75	control-reward	OutcomeDisplay				
57	776.415		control-noreward	ImageDisplay1		0.0		
57	778.421	0.75	control-noreward	StartDisplay				
57	779.173		control-noreward	ImageDisplay2		0.0		
57	782.416	1.6	control-noreward	ChoiceDisplay	1	0.932	1	1
57	783.369	0.668	control-noreward	ChosenDisplay		0.0		
57	784.021	0.25	control-noreward	TurnDisplay				
57	784.271	0.75	control-noreward	OutcomeDisplay				
58	785.024		loss-noreward	ImageDisplay1		0.0		
58	787.013	0.75	loss-noreward	StartDisplay				
58	787.765		loss-noreward	ImageDisplay2		0.0		
58	791.025	1.6	loss-noreward	ChoiceDisplay	1	0.927	1	1
58	791.978	0.673	loss-noreward	ChosenDisplay		0.0		
58	792.63	0.25	loss-noreward	TurnDisplay				
58	792.88	0.75	loss-noreward	OutcomeDisplay				
59	793.633		win-reward	ImageDisplay1		0.0		
59	795.873	0.75	win-reward	StartDisplay				
59	796.625		win-reward	ImageDisplay2		0.0		
59	799.634	1.6	win-reward	ChoiceDisplay	1	0.789	1	1
59	800.436	0.811	win-reward	ChosenDisplay		0.0		
59	801.239	0.25	win-reward	TurnDisplay				
59	801.489	0.75	win-reward	OutcomeDisplay				
60	802.242		win-reward	ImageDisplay1		0.0		
60	804.482	0.75	win-reward	StartDisplay				
60	805.234		win-reward	ImageDisplay2		0.0		
60	808.243	1.6	win-reward	ChoiceDisplay	1	0.777	1	1
60	809.045	0.823	win-reward	ChosenDisplay		0.0		
60	809.848	0.25	win-reward	TurnDisplay				
60	810.098	0.75	win-reward	OutcomeDisplay				
61	810.851		win-reward	ImageDisplay1		0.0		
61	813.091	0.75	win-reward	StartDisplay				
61	813.843		win-reward	ImageDisplay2		0.0		
61	816.852	1.6	win-reward	ChoiceDisplay	1	0.653	1	1
61	817.52	0.947	win-reward	ChosenDisplay		0.0		
61	818.457	0.25	win-reward	TurnDisplay				
61	818.707	0.75	win-reward	OutcomeDisplay				
62	819.46		loss-reward	ImageDisplay1		0.0		
62	821.7	0.75	loss-reward	StartDisplay				
62	822.452		loss-reward	ImageDisplay2		0.0		
62	825.461	1.6	loss-reward	ChoiceDisplay	1	0.673	1	1
62	826.146	0.927	loss-reward	ChosenDisplay		0.0		
62	827.066	0.25	loss-reward	TurnDisplay				
62	827.316	0.75	loss-reward	OutcomeDisplay				
63	828.069		loss-reward	ImageDisplay1		0.0		
63	830.309	0.75	loss-reward	StartDisplay				
63	831.061		loss-reward	ImageDisplay2		0.0		
63	834.07	1.6	loss-reward	ChoiceDisplay	1	0.835	1	1
63	834.922	0.765	loss-reward	ChosenDisplay		0.0		
63	835.675	0.25	loss-reward	TurnDisplay				
63	835.925	0.75	loss-reward	OutcomeDisplay				
64	836.678		loss-reward	ImageDisplay1		0.0		
64	838.918	0.75	loss-reward	StartDisplay				
64	839.67		loss-reward	ImageDisplay2		0.0		
64	842.679	1.6	loss-reward	ChoiceDisplay	1	1.172	1	1
64	843.866	0.428	loss-reward	ChosenDisplay		0.0		
64	844.284	0.25	loss-reward	TurnDisplay				
64	844.534	0.75	loss-reward	OutcomeDisplay				
65	845.286		loss-reward	ImageDisplay1		0.0		
65	847.526	0.75	loss-reward	StartDisplay				
65	848.279		loss-reward	ImageDisplay2		0.0		
65	851.288	1.6	loss-reward	ChoiceDisplay	1	0.907	1	1
65	852.207	0.693	loss-reward	ChosenDisplay		0.0		
65	852.892	0.25	loss-reward	TurnDisplay				
65	853.143	0.75	loss-reward	OutcomeDisplay				
66	853.895		win-reward	ImageDisplay1		0.0		
66	856.135	0.75	win-reward	StartDisplay				
66	856.888		win-reward	ImageDisplay2		0.0		
66	859.897	1.6	win-reward	ChoiceDisplay	1	0.862	1	1
66	860.783	0.738	win-reward	ChosenDisplay		0.0		
66	861.501	0.25	win-reward	TurnDisplay				
66	861.752	0.75	win-reward	OutcomeDisplay				
67	862.504		control-reward	ImageDisplay1		0.0		
67	864.744	0.75	control-reward	StartDisplay				
67	865.497		control-reward	ImageDisplay2		0.0		
67	868.506	1.6	control-reward	ChoiceDisplay	1	1.094	1	1
67	869.626	0.506	control-reward	ChosenDisplay		0.0		
67	870.11	0.25	control-reward	TurnDisplay				
67	870.361	0.75	control-reward	OutcomeDisplay				
68	871.113		control-noreward	ImageDisplay1		0.0		
68	873.103	0.75	control-noreward	StartDisplay				
68	873.855		control-noreward	ImageDisplay2		0.0		
68	877.115	1.6	control-noreward	ChoiceDisplay	1	1.064	1	1
68	878.201	0.536	control-noreward	ChosenDisplay		0.0		
68	878.719	0.25	control-noreward	TurnDisplay				
68	878.97	0.75	control-noreward	OutcomeDisplay				
69	879.722		control-noreward	ImageDisplay1		0.0		
69	881.712	0.75	control-noreward	StartDisplay				
69	882.464		control-noreward	ImageDisplay2		0.0		
69	885.724	1.6	control-noreward	ChoiceDisplay	1	1.142	1	1
69	886.894	0.458	control-noreward	ChosenDisplay		0.0		
69	887.328	0.25	control-noreward	TurnDisplay				
69	887.579	0.75	control-noreward	OutcomeDisplay				
70	888.331		loss-noreward	ImageDisplay1		0.0		
70	890.321	0.75	loss-noreward	StartDisplay				
70	891.073		loss-noreward	ImageDisplay2		0.0		
70	894.333	1.6	loss-noreward	ChoiceDisplay	1	0.946	1	1
70	895.302	0.654	loss-noreward	ChosenDisplay		0.0		
70	895.937	0.25	loss-noreward	TurnDisplay				
70	896.188	0.75	loss-noreward	OutcomeDisplay				
71	896.941		loss-noreward	ImageDisplay1		0.0		
71	898.93	0.75	loss-noreward	StartDisplay				
71	899.682		loss-noreward	ImageDisplay2		0.0		
71	902.941	1.6	loss-noreward	ChoiceDisplay	1	0.938	1	1
71	903.894	0.662	loss-noreward	ChosenDisplay		0.0		
71	904.546	0.25	loss-noreward	TurnDisplay				
71	904.797	0.75	loss-noreward	OutcomeDisplay				
72	905.549		loss-noreward	ImageDisplay1		0.0		
72	907.539	0.75	loss-noreward	StartDisplay				
72	908.291		loss-noreward	ImageDisplay2		0.0		
72	911.55	1.6	loss-noreward	ChoiceDisplay	1	0.862	1	1
72	912.436	0.738	loss-noreward	ChosenDisplay		0.0		
72	913.155	0.25	loss-noreward	TurnDisplay				
72	913.406	0.75	loss-noreward	OutcomeDisplay				
73	914.158		loss-reward	ImageDisplay1		0.0		
73	916.398	0.75	loss-reward	StartDisplay				
73	917.15		loss-reward	ImageDisplay2		0.0		
73	920.159	1.6	loss-reward	ChoiceDisplay	1	1.21	1	1
73	921.38	0.39	loss-reward	ChosenDisplay		0.0		
73	921.764	0.25	loss-reward	TurnDisplay				
73	922.015	0.75	loss-reward	OutcomeDisplay				
74	922.767		win-reward	ImageDisplay1		0.0		
74	925.007	0.75	win-reward	StartDisplay				
74	925.759		win-reward	ImageDisplay2		0.0		
74	928.768	1.6	win-reward	ChoiceDisplay	1	1.109	1	1
74	929.888	0.491	win-reward	ChosenDisplay		0.0		
74	930.373	0.25	win-reward	TurnDisplay				
74	930.624	0.75	win-reward	OutcomeDisplay				
75	931.376		control-reward	ImageDisplay1		0.0		
75	933.616	0.75	control-reward	StartDisplay				
75	934.368		control-reward	ImageDisplay2		0.0		
75	937.377	1.6	control-reward	ChoiceDisplay	1	0.98	1	1
75	938.38	0.62	control-reward	ChosenDisplay		0.0		
75	938.982	0.25	control-reward	TurnDisplay				
75	939.233	0.75	control-reward	OutcomeDisplay				
76	939.985		win-reward	ImageDisplay1		0.0		
76	942.225	0.75	win-reward	StartDisplay				
76	942.977		win-reward	ImageDisplay2		0.0		
76	945.986	1.6	win-reward	ChoiceDisplay	1	1.057	1	1
76	947.056	0.543	win-reward	ChosenDisplay		0.0		
76	947.591	0.25	win-reward	TurnDisplay				
76	947.842	0.75	win-reward	OutcomeDisplay				
77	948.594		control-noreward	ImageDisplay1		0.0		
77	950.583	0.75	control-noreward	StartDisplay				
77	951.336		control-noreward	ImageDisplay2		0.0		
77	954.595	1.6	control-noreward	ChoiceDisplay	1	1.26	1	1
77	955.866	0.34	control-noreward	ChosenDisplay		0.0		
77	956.2	0.25	control-noreward	TurnDisplay				
77	956.451	0.75	control-noreward	OutcomeDisplay				
78	957.203		loss-reward	ImageDisplay1		0.0		
78	959.443	0.75	loss-reward	StartDisplay				
78	960.195		loss-reward	ImageDisplay2		0.0		
78	963.204	1.6	loss-reward	ChoiceDisplay	1	1.245	1	1
78	964.475	0.355	loss-reward	ChosenDisplay		0.0		
78	964.809	0.25	loss-reward	TurnDisplay				
78	965.06	0.75	loss-reward	OutcomeDisplay				
79	965.812		control-reward	ImageDisplay1		0.0		
79	968.052	0.75	control-reward	StartDisplay				
79	968.804		control-reward	ImageDisplay2		0.0		
79	971.813	1.6	control-reward	ChoiceDisplay	1	1.024	1	1
79	972.85	0.576	control-reward	ChosenDisplay		0.0		
79	973.418	0.25	control-reward	TurnDisplay				
79	973.669	0.75	control-reward	OutcomeDisplay				
80	974.421		loss-noreward	ImageDisplay1		0.0		
80	976.41	0.75	loss-noreward	StartDisplay				
80	977.162		loss-noreward	ImageDisplay2		0.0		
80	980.422	1.6	loss-noreward	ChoiceDisplay	1	1.035	1	1
80	981.475	0.565	loss-noreward	ChosenDisplay		0.0		
80	982.027	0.25	loss-noreward	TurnDisplay				
80	982.278	0.75	loss-noreward	OutcomeDisplay				
81	983.03		control-noreward	ImageDisplay1		0.0		
81	985.019	0.75	control-noreward	StartDisplay				
81	985.771		control-noreward	ImageDisplay2		0.0		
81	989.031	1.6	control-noreward	ChoiceDisplay	1	1.052	1	1
81	990.101	0.548	control-noreward	ChosenDisplay		0.0		
81	990.636	0.25	control-noreward	TurnDisplay				
81	990.887	0.75	control-noreward	OutcomeDisplay				
82	991.639		control-reward	ImageDisplay1		0.0		
82	993.879	0.75	control-reward	StartDisplay				
82	994.631		control-reward	ImageDisplay2		0.0		
82	997.64	1.6	control-reward	ChoiceDisplay	1	1.153	1	1
82	998.81	0.447	control-reward	ChosenDisplay		0.0		
82	999.245	0.25	control-reward	TurnDisplay				
82	999.496	0.75	control-reward	OutcomeDisplay				
83	1000.248		control-reward	ImageDisplay1		0.0		
83	1002.488	0.75	control-reward	StartDisplay				
83	1003.24		control-reward	ImageDisplay2		0.0		
83	1006.249	1.6	control-reward	ChoiceDisplay	1	1.366	1	1
83	1007.637	0.234	control-reward	ChosenDisplay		0.0		
83	1007.854	0.25	control-reward	TurnDisplay				
83	1008.105	0.75	control-reward	OutcomeDisplay				
84	1008.857		win-reward	ImageDisplay1		0.0		
84	1011.097	0.75	win-reward	StartDisplay				
84	1011.849		win-reward	ImageDisplay2		0.0		
84	1014.858	1.6	win-reward	ChoiceDisplay	1	1.203	1	1
84	1016.078	0.397	win-reward	ChosenDisplay		0.0		
84	1016.463	0.25	win-reward	TurnDisplay				
84	1016.714	0.75	win-reward	OutcomeDisplay				
85	1017.466		control-reward	ImageDisplay1		0.0		
85	1019.706	0.75	control-reward	StartDisplay				
85	1020.458		control-reward	ImageDisplay2		0.0		
85	1023.467	1.6	control-reward	ChoiceDisplay	1	1.578	1	1
85	1025.055	0.0	control-reward	ChosenDisplay		0.0		
85	1025.072	0.25	control-reward	TurnDisplay				
85	1025.306	0.75	control-reward	OutcomeDisplay				
86	1026.041		loss-reward	ImageDisplay1		0.0		
86	1028.298	0.75	loss-reward	StartDisplay				
86	1029.05		loss-reward	ImageDisplay2		0.0		
86	1032.043	1.6	loss-reward	ChoiceDisplay	1	0.919	1	1
86	1032.979	0.681	loss-reward	ChosenDisplay		0.0		
86	1033.647	0.25	loss-reward	TurnDisplay				
86	1033.898	0.75	loss-reward	OutcomeDisplay				
87	1034.65		win-noreward	ImageDisplay1		0.0		
87	1036.64	0.75	win-noreward	StartDisplay				
87	1037.392		win-noreward	ImageDisplay2		0.0		
87	1040.652	1.6	win-noreward	ChoiceDisplay	1	1.157	1	1
87	1041.822	0.443	win-noreward	ChosenDisplay		0.0		
87	1042.256	0.25	win-noreward	TurnDisplay				
87	1042.507	0.75	win-noreward	OutcomeDisplay				
88	1043.259		loss-noreward	ImageDisplay1		0.0		
88	1045.249	0.75	loss-noreward	StartDisplay				
88	1046.001		loss-noreward	ImageDisplay2		0.0		
88	1049.26	1.6	loss-noreward	ChoiceDisplay	1	1.232	1	1
88	1050.514	0.368	loss-noreward	ChosenDisplay		0.0		
88	1050.865	0.25	loss-noreward	TurnDisplay				
88	1051.116	0.75	loss-noreward	OutcomeDisplay				
89	1051.868		win-noreward	ImageDisplay1		0.0		
89	1053.858	0.75	win-noreward	StartDisplay				
89	1054.61		win-noreward	ImageDisplay2		0.0		
89	1057.869	1.6	win-noreward	ChoiceDisplay	1	1.216	1	1
89	1059.106	0.384	win-noreward	ChosenDisplay		0.0		
89	1059.474	0.25	win-noreward	TurnDisplay				
89	1059.725	0.75	win-noreward	OutcomeDisplay				
90	1060.477		loss-noreward	ImageDisplay1		0.0		
90	1062.466	0.75	loss-noreward	StartDisplay				
90	1063.219		loss-noreward	ImageDisplay2		0.0		
90	1066.478	1.6	loss-noreward	ChoiceDisplay	1	0.941	1	1
90	1067.431	0.659	loss-noreward	ChosenDisplay		0.0		
90	1068.083	0.25	loss-noreward	TurnDisplay				
90	1068.334	0.75	loss-noreward	OutcomeDisplay				
91	1069.086		loss-reward	ImageDisplay1		0.0		
91	1071.326	0.75	loss-reward	StartDisplay				
91	1072.078		loss-reward	ImageDisplay2		0.0		
91	1075.087	1.6	loss-reward	ChoiceDisplay	1	1.024	1	1
91	1076.124	0.576	loss-reward	ChosenDisplay		0.0		
91	1076.692	0.25	loss-reward	TurnDisplay				
91	1076.943	0.75	loss-reward	OutcomeDisplay				
92	1077.695		win-noreward	ImageDisplay1		0.0		
92	1079.684	0.75	win-noreward	StartDisplay				
92	1080.437		win-noreward	ImageDisplay2		0.0		
92	1083.696	1.6	win-noreward	ChoiceDisplay	1	1.016	1	1
92	1084.733	0.584	win-noreward	ChosenDisplay		0.0		
92	1085.301	0.25	win-noreward	TurnDisplay				
92	1085.552	0.75	win-noreward	OutcomeDisplay				
93	1086.304		control-noreward	ImageDisplay1		0.0		
93	1088.293	0.75	control-noreward	StartDisplay				
93	1089.046		control-noreward	ImageDisplay2		0.0		
93	1092.305	1.6	control-noreward	ChoiceDisplay	1	1.116	1	1
93	1093.442	0.484	control-noreward	ChosenDisplay		0.0		
93	1093.91	0.25	control-noreward	TurnDisplay				
93	1094.161	0.75	control-noreward	OutcomeDisplay				
94	1094.913		loss-reward	ImageDisplay1		0.0		
94	1097.153	0.75	loss-reward	StartDisplay				
94	1097.905		loss-reward	ImageDisplay2		0.0		
94	1100.914	1.6	loss-reward	ChoiceDisplay	1	1.012	1	1
94	1101.951	0.588	loss-reward	ChosenDisplay		0.0		
94	1102.519	0.25	loss-reward	TurnDisplay				
94	1102.77	0.75	loss-reward	OutcomeDisplay				
95	1103.522		control-reward	ImageDisplay1		0.0		
95	1105.762	0.75	control-reward	StartDisplay				
95	1106.514		control-reward	ImageDisplay2		0.0		
95	1109.523	1.6	control-reward	ChoiceDisplay	1	1.122	1	1
95	1110.66	0.478	control-reward	ChosenDisplay		0.0		
95	1111.128	0.25	control-reward	TurnDisplay				
95	1111.379	0.75	control-reward	OutcomeDisplay				
