onset	duration	trial_type	response_time	stim_file	accuracy
277.824	1.0	go	0.652	Go_X	0.0
280.348	1.0	go	0.479	Go_O	0.0
282.872	1.0	go	0.361	Go_X	0.0
285.396	1.0	go	0.326	Go_O	0.0
287.92	1.0	go	0.437	Go_O	0.0
290.445	1.0	go	0.36	Go_X	0.0
292.969	0.25	stopfail	0.345	Go_O	0.0
295.493	1.0	go	0.423	Go_X	0.0
298.017	0.2	stopsuccess	0.0	Go_X	1.0
300.541	1.0	go	0.491	Go_O	0.0
303.065	1.0	go	0.364	Go_X	0.0
305.59	1.0	go	0.421	Go_O	0.0
308.114	0.25	stopsuccess	0.0	Go_O	1.0
310.638	1.0	go	0.465	Go_O	0.0
313.162	1.0	go	0.405	Go_X	0.0
315.686	0.3	stopfail	0.378	Go_X	0.0
318.21	0.25	stopfail	0.371	Go_O	0.0
320.735	1.0	go	0.416	Go_O	0.0
323.259	1.0	go	0.38	Go_X	0.0
325.783	0.2	stopsuccess	0.0	Go_X	1.0
328.307	1.0	go	0.443	Go_X	0.0
330.831	1.0	go	0.39	Go_O	0.0
333.355	0.25	stopsuccess	0.0	Go_O	1.0
335.88	1.0	go	0.4	Go_X	0.0
338.404	1.0	go	0.433	Go_O	0.0
340.928	0.3	stopfail	0.44	Go_X	0.0
343.452	1.0	go	0.445	Go_X	0.0
345.976	1.0	go	0.472	Go_O	0.0
348.5	0.25	stopsuccess	0.0	Go_O	1.0
351.025	1.0	go	0.497	Go_O	0.0
353.549	1.0	go	0.724	Go_X	0.0
356.073	1.0	go	0.52	Go_O	0.0
358.597	1.0	go	0.481	Go_X	0.0
361.121	1.0	go	0.522	Go_O	0.0
363.645	0.3	stopsuccess	0.0	Go_X	1.0
366.169	1.0	go	0.381	Go_X	0.0
368.694	1.0	go	0.527	Go_X	0.0
371.218	1.0	go	0.465	Go_O	0.0
373.742	1.0	go	0.475	Go_O	0.0
376.266	1.0	go	0.504	Go_X	0.0
378.79	0.35	stopsuccess	0.0	Go_O	1.0
381.314	1.0	go	0.396	Go_X	0.0
383.839	1.0	go	0.462	Go_O	0.0
386.363	1.0	go	0.47	Go_X	0.0
388.887	1.0	go	0.428	Go_O	0.0
391.411	1.0	go	0.511	Go_O	0.0
393.935	1.0	go	0.438	Go_X	0.0
396.459	0.4	stopfail	0.502	Go_X	0.0
398.984	1.0	go	0.478	Go_X	0.0
401.508	1.0	go	0.445	Go_O	0.0
404.032	0.35	stopsuccess	0.0	Go_O	1.0
406.556	1.0	go	0.45	Go_O	0.0
409.08	0.4	stopfail	0.474	Go_X	0.0
411.604	0.35	stopfail	0.406	Go_O	0.0
414.129	1.0	go	0.717	Go_X	0.0
416.653	1.0	go	0.58	Go_O	0.0
419.177	1.0	go	0.462	Go_X	0.0
421.701	1.0	go	0.579	Go_O	0.0
424.225	0.3	stopsuccess	0.0	Go_X	1.0
426.749	1.0	go	0.419	Go_X	0.0
429.273	0.35	stopfail	0.475	Go_O	0.0
431.798	1.0	go	0.511	Go_O	0.0
434.322	1.0	go	0.471	Go_X	0.0
436.846	1.0	go	0.643	Go_X	0.0
439.37	1.0	go	0.65	Go_O	0.0
441.894	1.0	go	0.433	Go_X	0.0
444.418	1.0	go	0.555	Go_O	0.0
446.943	1.0	go	0.398	Go_O	0.0
449.467	1.0	go	0.371	Go_X	0.0
451.991	1.0	go	0.504	Go_O	0.0
454.515	0.3	stopsuccess	0.0	Go_X	1.0
457.039	1.0	go	0.403	Go_X	0.0
459.563	1.0	go	0.454	Go_X	0.0
462.088	1.0	go	0.588	Go_O	0.0
464.612	0.35	stopfail	0.467	Go_O	0.0
467.136	1.0	go	0.506	Go_O	0.0
469.66	1.0	go	0.389	Go_X	0.0
472.184	1.0	go	0.55	Go_O	0.0
474.708	1.0	go	0.566	Go_X	0.0
477.233	1.0	go	0.442	Go_X	0.0
479.757	1.0	go	0.537	Go_O	0.0
482.281	0.3	stopsuccess	0.0	Go_X	1.0
484.805	1.0	go	0.564	Go_O	0.0
487.329	1.0	go	0.576	Go_X	0.0
489.853	0.35	stopfail	0.355	Go_O	0.0
492.378	1.0	go	0.53	Go_O	0.0
494.902	1.0	go	0.522	Go_X	0.0
497.426	0.3	stopsuccess	0.0	Go_X	1.0
499.95	1.0	go	0.485	Go_X	0.0
502.474	0.35	stopsuccess	0.0	Go_O	1.0
504.998	1.0	go	0.376	Go_O	0.0
507.522	1.0	go	0.522	Go_O	0.0
510.047	1.0	go	0.533	Go_X	0.0
512.571	1.0	go	0.459	Go_X	0.0
515.095	1.0	go	0.517	Go_O	0.0
517.619	0.4	stopfail	0.356	Go_X	0.0
520.143	0.35	stopfail	0.473	Go_O	0.0
522.667	1.0	go	0.447	Go_X	0.0
525.192	1.0	go	0.61	Go_O	0.0
527.716	0.3	stopsuccess	0.0	Go_X	1.0
530.24	1.0	go	0.516	Go_X	0.0
532.764	1.0	go	0.368	Go_O	0.0
535.288	1.0	go	0.611	Go_O	0.0
537.812	1.0	go	0.654	Go_X	0.0
540.337	1.0	go	0.433	Go_X	0.0
542.861	1.0	go	0.456	Go_O	0.0
545.385	0.35	stopsuccess	0.0	Go_O	1.0
547.909	1.0	go	0.472	Go_X	0.0
550.433	1.0	go	0.715	Go_O	0.0
552.957	1.0	go	0.549	Go_O	0.0
555.482	1.0	go	0.548	Go_X	0.0
558.006	1.0	go	0.912	Go_X	0.0
560.53	0.4	stopfail	0.499	Go_X	0.0
563.054	1.0	go	0.453	Go_O	0.0
565.578	1.0	go	0.44	Go_X	0.0
568.102	1.0	go	0.609	Go_O	0.0
570.626	1.0	go	0.478	Go_O	0.0
573.151	0.35	stopsuccess	0.0	Go_O	1.0
575.675	1.0	go	0.452	Go_X	0.0
578.199	1.0	go	0.488	Go_X	0.0
580.723	0.4	stopfail	0.572	Go_X	0.0
583.247	1.0	go	0.454	Go_O	0.0
585.771	0.35	stopsuccess	0.0	Go_O	1.0
588.296	1.0	go	0.482	Go_X	0.0
590.82	1.0	go	0.649	Go_O	0.0
593.344	1.0	go	0.404	Go_O	0.0
595.868	1.0	go	0.62	Go_X	0.0
598.392	1.0	go	0.499	Go_X	0.0
600.916	1.0	go	0.563	Go_O	0.0
603.441	1.0	go	0.411	Go_X	0.0
605.965	0.4	stopfail	0.505	Go_X	0.0
608.489	1.0	go	0.68	Go_O	0.0
611.013	1.0	go	0.722	Go_O	0.0
613.537	1.0	go	0.474	Go_X	0.0
616.061	0.35	stopfail	0.525	Go_O	0.0
618.586	1.0	go	0.566	Go_O	0.0
621.11	1.0	go	0.555	Go_X	0.0
623.634	1.0	go	0.608	Go_O	0.0
626.158	1.0	go	0.76	Go_X	0.0
628.682	0.3	stopsuccess	0.0	Go_X	1.0
631.206	1.0	go	0.478	Go_O	0.0
633.731	1.0	go	0.567	Go_X	0.0
636.255	0.35	stopsuccess	0.0	Go_O	1.0
638.779	1.0	go	0.484	Go_O	0.0
641.303	1.0	go	0.616	Go_X	0.0
643.827	0.4	stopsuccess	0.0	Go_X	1.0
646.351	1.0	go	0.461	Go_X	0.0
648.875	1.0	go	0.615	Go_O	0.0
651.4	0.45	stopsuccess	0.0	Go_O	1.0
653.924	1.0	go	0.439	Go_O	0.0
656.448	1.0	go	0.926	Go_X	0.0
658.972	1.0	go	0.699	Go_O	0.0
661.496	1.0	go	0.542	Go_X	0.0
664.02	1.0	go	0.702	Go_O	0.0
666.545	1.0	go	0.682	Go_X	0.0
669.069	0.5	stopfail	0.545	Go_X	0.0
671.593	1.0	go	0.461	Go_O	0.0
674.117	0.45	stopsuccess	0.0	Go_O	1.0
676.641	1.0	go	0.612	Go_X	0.0
679.165	1.0	go	0.569	Go_X	0.0
681.69	1.0	go	0.518	Go_O	0.0
684.214	1.0	go	0.406	Go_O	0.0
686.738	1.0	go	0.0	Go_X	0.0
689.262	0.5	stopfail	0.359	Go_X	0.0
691.786	1.0	go	0.392	Go_X	0.0
694.31	1.0	go	0.498	Go_O	0.0
696.835	1.0	go	0.63	Go_O	0.0
699.359	0.45	stopfail	0.458	Go_O	0.0
701.883	0.4	stopfail	0.4	Go_X	0.0
704.407	0.35	stopfail	0.424	Go_O	0.0
706.931	1.0	go	0.564	Go_X	0.0
709.455	0.3	stopsuccess	0.0	Go_X	1.0
711.98	1.0	go	0.506	Go_X	0.0
714.504	1.0	go	0.497	Go_O	0.0
717.028	1.0	go	0.465	Go_X	0.0
719.552	1.0	go	0.618	Go_O	0.0
722.076	1.0	go	0.432	Go_X	0.0
724.6	1.0	go	0.48	Go_O	0.0
727.124	1.0	go	0.53	Go_X	0.0
729.649	1.0	go	0.573	Go_O	0.0
732.173	0.35	stopsuccess	0.0	Go_O	1.0
734.697	1.0	go	0.472	Go_X	0.0
737.221	1.0	go	0.576	Go_O	0.0
739.745	0.4	stopsuccess	0.0	Go_X	1.0
742.269	1.0	go	0.546	Go_X	0.0
744.794	1.0	go	0.779	Go_O	0.0
747.318	1.0	go	0.529	Go_O	0.0
749.842	1.0	go	0.543	Go_X	0.0
752.366	1.0	go	0.373	Go_O	0.0
754.89	0.45	stopfail	0.456	Go_O	0.0
757.414	1.0	go	0.472	Go_X	0.0
759.939	1.0	go	0.576	Go_O	0.0
762.463	1.0	go	0.568	Go_X	0.0
764.987	0.4	stopfail	0.606	Go_X	0.0
767.511	1.0	go	0.458	Go_X	0.0
770.035	0.35	stopfail	0.526	Go_O	0.0
772.559	1.0	go	0.657	Go_O	0.0
775.084	1.0	go	0.974	Go_X	0.0
777.608	1.0	go	0.42	Go_O	0.0
780.132	1.0	go	0.516	Go_X	0.0
782.656	1.0	go	0.52	Go_O	0.0
785.18	1.0	go	0.544	Go_X	0.0
787.704	1.0	go	0.58	Go_O	0.0
790.228	0.3	stopfail	0.423	Go_X	0.0
792.753	1.0	go	0.411	Go_O	0.0
795.277	1.0	go	0.5	Go_X	0.0
797.801	1.0	go	0.544	Go_X	0.0
800.325	1.0	go	0.519	Go_O	0.0
802.849	0.25	stopsuccess	0.0	Go_O	1.0
805.373	1.0	go	0.0	Go_X	0.0
807.898	0.3	stopsuccess	0.0	Go_X	1.0
810.422	1.0	go	0.511	Go_O	0.0
812.946	1.0	go	0.623	Go_O	0.0
815.47	0.35	stopfail	0.479	Go_O	0.0
817.994	1.0	go	0.414	Go_X	0.0
820.518	1.0	go	0.568	Go_X	0.0
823.043	1.0	go	0.589	Go_O	0.0
825.567	1.0	go	0.639	Go_X	0.0
828.091	1.0	go	0.516	Go_O	0.0
830.615	1.0	go	0.556	Go_O	0.0
833.139	1.0	go	0.58	Go_X	0.0
835.663	1.0	go	0.0	Go_O	0.0
838.188	1.0	go	0.41	Go_X	0.0
840.712	1.0	go	0.503	Go_O	0.0
843.236	0.3	stopsuccess	0.0	Go_X	1.0
845.76	1.0	go	0.413	Go_X	0.0
848.284	1.0	go	0.579	Go_O	0.0
850.808	0.35	stopsuccess	0.0	Go_O	1.0
853.333	1.0	go	0.47	Go_X	0.0
855.857	0.4	stopsuccess	0.0	Go_X	1.0
858.381	1.0	go	0.37	Go_X	0.0
860.905	1.0	go	0.622	Go_O	0.0
863.429	0.45	stopsuccess	0.0	Go_O	1.0
865.953	1.0	go	0.395	Go_O	0.0
868.477	0.5	stopfail	0.636	Go_X	0.0
871.002	1.0	go	0.621	Go_X	0.0
873.526	1.0	go	0.666	Go_X	0.0
876.05	1.0	go	0.633	Go_O	0.0
878.574	0.45	stopfail	0.492	Go_O	0.0
881.098	1.0	go	0.496	Go_X	0.0
883.622	1.0	go	0.917	Go_O	0.0
886.147	1.0	go	0.762	Go_O	0.0
888.671	1.0	go	0.535	Go_X	0.0
891.195	0.4	stopsuccess	0.0	Go_X	1.0
893.719	1.0	go	0.589	Go_O	0.0
896.243	1.0	go	0.637	Go_X	0.0
898.767	0.45	stopsuccess	0.0	Go_O	1.0
901.292	1.0	go	0.92	Go_X	0.0
903.816	1.0	go	0.531	Go_O	0.0
906.34	1.0	go	0.784	Go_O	0.0
908.864	1.0	go	0.56	Go_X	0.0
911.388	0.5	stopfail	0.76	Go_X	0.0
913.912	1.0	go	0.579	Go_X	0.0
916.437	0.45	stopfail	0.355	Go_O	0.0
918.961	1.0	go	0.571	Go_O	0.0
921.485	1.0	go	0.612	Go_X	1.0
924.009	0.4	stopfail	0.545	Go_X	0.0
926.533	1.0	go	0.601	Go_O	0.0
929.057	1.0	go	0.538	Go_X	0.0
931.582	1.0	go	0.572	Go_O	0.0
934.106	1.0	go	0.526	Go_O	0.0
936.63	0.35	stopsuccess	0.0	Go_O	1.0
939.154	1.0	go	0.516	Go_X	0.0
941.678	0.4	stopfail	0.468	Go_X	0.0
944.202	1.0	go	0.535	Go_O	0.0
946.726	1.0	go	0.822	Go_X	0.0
949.251	1.0	go	0.587	Go_O	0.0
951.775	1.0	go	0.688	Go_X	0.0
954.299	1.0	go	0.48	Go_O	0.0
956.823	1.0	go	0.564	Go_X	0.0
959.347	0.35	stopsuccess	0.0	Go_O	1.0
961.871	1.0	go	0.539	Go_X	0.0
964.396	1.0	go	0.724	Go_O	0.0
966.92	0.4	stopsuccess	0.0	Go_X	1.0
969.444	1.0	go	0.643	Go_X	0.0
971.968	1.0	go	0.616	Go_O	0.0
974.492	0.45	stopfail	0.529	Go_O	0.0
977.016	1.0	go	0.568	Go_O	0.0
979.541	1.0	go	0.471	Go_X	0.0
982.065	1.0	go	0.582	Go_O	0.0
984.589	1.0	go	0.596	Go_X	0.0
987.113	0.4	stopfail	0.512	Go_X	0.0
989.637	1.0	go	0.0	Go_X	0.0
992.161	0.35	stopfail	0.428	Go_O	0.0
994.686	1.0	go	0.462	Go_O	0.0
997.21	1.0	go	0.512	Go_O	0.0
999.734	1.0	go	0.553	Go_X	0.0
1002.258	1.0	go	0.633	Go_X	0.0
1004.782	1.0	go	0.495	Go_O	0.0
1007.306	0.3	stopsuccess	0.0	Go_X	1.0
1009.831	1.0	go	0.942	Go_X	0.0
1012.355	1.0	go	0.48	Go_O	0.0
1014.879	0.35	stopfail	0.583	Go_O	0.0
1017.403	0.3	stopfail	0.418	Go_X	0.0
1019.927	1.0	go	0.463	Go_O	0.0
1022.451	1.0	go	0.571	Go_X	0.0
1024.975	1.0	go	0.673	Go_O	0.0
1027.5	1.0	go	0.849	Go_X	0.0
1030.024	0.25	stopsuccess	0.0	Go_O	1.0
1032.548	1.0	go	0.731	Go_X	0.0
