onset	duration	trial_type	response_time	stim_file	accuracy
2719.9	1.0	go	0.6	Go_X	0.0
2722.441	1.0	go	0.592	Go_O	1.0
2724.982	1.0	go	0.514	Go_X	1.0
2727.506	1.0	go	0.514	Go_O	1.0
2730.03	1.0	go	0.32	Go_X	1.0
2732.555	1.0	go	0.358	Go_O	1.0
2735.079	0.25	stopsuccess	0.0	Go_O	1.0
2737.62	1.0	go	0.367	Go_X	1.0
2740.161	0.3	stopfail	0.423	Go_X	0.0
2742.702	1.0	go	0.298	Go_O	1.0
2745.226	1.0	go	0.437	Go_X	1.0
2747.75	1.0	go	0.349	Go_O	1.0
2750.274	0.25	stopsuccess	0.0	Go_O	1.0
2752.815	1.0	go	0.37	Go_X	1.0
2755.339	1.0	go	0.376	Go_O	1.0
2757.864	0.3	stopfail	0.382	Go_X	0.0
2760.405	0.25	stopfail	0.453	Go_O	0.0
2762.946	1.0	go	0.652	Go_O	1.0
2765.47	1.0	go	0.361	Go_X	1.0
2767.994	0.2	stopsuccess	0.0	Go_X	1.0
2770.535	1.0	go	0.426	Go_X	1.0
2773.059	1.0	go	0.31	Go_O	1.0
2775.583	0.25	stopsuccess	0.0	Go_O	1.0
2778.124	1.0	go	0.347	Go_X	1.0
2780.649	1.0	go	0.459	Go_O	1.0
2783.189	0.3	stopfail	0.397	Go_X	0.0
2785.714	1.0	go	0.461	Go_X	1.0
2788.238	1.0	go	0.367	Go_O	1.0
2790.762	0.25	stopsuccess	0.0	Go_O	1.0
2793.287	1.0	go	0.53	Go_O	1.0
2795.811	1.0	go	0.326	Go_X	1.0
2798.335	1.0	go	0.409	Go_X	1.0
2800.859	1.0	go	0.568	Go_O	1.0
2803.383	1.0	go	0.87	Go_X	1.0
2805.907	0.3	stopsuccess	0.0	Go_X	1.0
2808.448	1.0	go	0.244	Go_O	1.0
2810.973	1.0	go	0.295	Go_X	1.0
2813.497	1.0	go	0.334	Go_O	1.0
2816.021	1.0	go	0.344	Go_X	1.0
2818.545	1.0	go	0.453	Go_O	1.0
2821.086	0.35	stopfail	0.322	Go_O	0.0
2823.61	1.0	go	0.414	Go_X	1.0
2826.135	1.0	go	0.412	Go_O	1.0
2828.676	1.0	go	0.345	Go_O	0.0
2831.217	1.0	go	0.448	Go_X	1.0
2833.741	1.0	go	0.429	Go_X	1.0
2836.265	1.0	go	0.605	Go_O	1.0
2838.806	0.3	stopfail	0.359	Go_X	0.0
2841.33	1.0	go	0.429	Go_X	1.0
2843.871	1.0	go	0.459	Go_O	1.0
2846.412	0.25	stopsuccess	0.0	Go_O	1.0
2848.953	1.0	go	0.474	Go_X	1.0
2851.477	0.3	stopfail	0.434	Go_X	0.0
2854.018	0.25	stopfail	0.413	Go_O	0.0
2856.542	1.0	go	0.49	Go_O	1.0
2859.067	1.0	go	0.338	Go_X	1.0
2861.591	1.0	go	0.624	Go_O	1.0
2864.115	1.0	go	0.367	Go_X	1.0
2866.639	0.2	stopsuccess	0.0	Go_X	1.0
2869.164	1.0	go	0.273	Go_O	1.0
2871.688	0.25	stopfail	0.392	Go_O	0.0
2874.212	1.0	go	0.554	Go_O	1.0
2876.736	1.0	go	0.645	Go_X	1.0
2879.26	1.0	go	0.448	Go_X	0.0
2881.785	1.0	go	0.49	Go_O	1.0
2884.326	1.0	go	0.389	Go_X	1.0
2886.85	1.0	go	0.494	Go_O	1.0
2889.374	1.0	go	0.596	Go_X	1.0
2891.898	1.0	go	0.625	Go_O	1.0
2894.423	1.0	go	0.677	Go_O	1.0
2896.947	0.2	stopsuccess	0.0	Go_X	1.0
2899.471	1.0	go	0.388	Go_X	1.0
2902.012	1.0	go	0.669	Go_X	1.0
2904.536	1.0	go	0.372	Go_O	1.0
2907.077	0.25	stopfail	0.458	Go_O	0.0
2909.601	1.0	go	0.446	Go_O	1.0
2912.142	1.0	go	0.486	Go_X	1.0
2914.666	1.0	go	0.528	Go_X	1.0
2917.191	1.0	go	0.412	Go_O	1.0
2919.715	1.0	go	0.536	Go_X	1.0
2922.239	1.0	go	0.433	Go_O	1.0
2924.763	0.2	stopfail	0.382	Go_X	0.0
2927.304	1.0	go	0.194	Go_X	0.0
2929.829	1.0	go	0.526	Go_O	1.0
2932.369	0.15	stopsuccess	0.0	Go_O	1.0
2934.91	1.0	go	0.481	Go_O	1.0
2937.435	1.0	go	0.329	Go_X	1.0
2939.959	0.2	stopsuccess	0.0	Go_X	1.0
2942.483	1.0	go	0.322	Go_O	1.0
2945.007	0.25	stopfail	0.348	Go_O	0.0
2947.548	1.0	go	0.516	Go_X	1.0
2950.073	1.0	go	0.488	Go_O	1.0
2952.597	1.0	go	0.292	Go_X	1.0
2955.121	1.0	go	0.416	Go_X	1.0
2957.645	1.0	go	0.32	Go_O	1.0
2960.169	0.2	stopfail	0.393	Go_X	0.0
2962.71	0.15	stopfail	0.293	Go_O	0.0
2965.235	1.0	go	0.328	Go_X	1.0
2967.775	1.0	go	0.811	Go_O	1.0
2970.3	0.1	stopsuccess	0.0	Go_X	1.0
2972.824	1.0	go	0.401	Go_O	0.0
2975.348	1.0	go	0.439	Go_X	1.0
2977.872	1.0	go	0.374	Go_O	1.0
2980.397	1.0	go	0.416	Go_X	1.0
2982.938	1.0	go	0.438	Go_X	1.0
2985.462	1.0	go	0.458	Go_O	1.0
2987.986	0.15	stopsuccess	0.0	Go_O	1.0
2990.511	1.0	go	0.493	Go_X	1.0
2993.034	1.0	go	0.483	Go_O	1.0
2995.559	1.0	go	0.518	Go_O	1.0
2998.083	1.0	go	0.514	Go_X	1.0
3000.607	1.0	go	0.518	Go_X	1.0
3003.131	0.2	stopsuccess	0.0	Go_X	1.0
3005.656	1.0	go	0.308	Go_O	1.0
3008.196	1.0	go	0.624	Go_X	1.0
3010.721	1.0	go	0.487	Go_O	1.0
3013.245	1.0	go	0.351	Go_O	1.0
3015.769	0.25	stopfail	0.327	Go_O	0.0
3018.293	1.0	go	0.842	Go_X	1.0
3020.818	1.0	go	0.308	Go_O	1.0
3023.342	0.2	stopsuccess	0.0	Go_X	1.0
3025.883	1.0	go	0.471	Go_X	1.0
3028.407	0.25	stopfail	0.432	Go_O	0.0
3030.931	1.0	go	0.406	Go_X	1.0
3033.455	1.0	go	0.504	Go_O	1.0
3035.98	1.0	go	0.57	Go_X	1.0
3038.504	1.0	go	0.465	Go_O	1.0
3041.028	1.0	go	0.581	Go_X	1.0
3043.553	1.0	go	0.741	Go_O	1.0
3046.077	1.0	go	0.706	Go_O	1.0
3048.601	0.2	stopsuccess	0.0	Go_X	1.0
3051.125	1.0	go	0.445	Go_X	1.0
3053.666	1.0	go	0.518	Go_X	1.0
3056.19	1.0	go	0.382	Go_O	1.0
3058.714	0.25	stopsuccess	0.0	Go_O	1.0
3061.239	1.0	go	0.42	Go_O	1.0
3063.78	1.0	go	0.694	Go_X	1.0
3066.304	1.0	go	0.775	Go_X	1.0
3068.845	1.0	go	0.595	Go_O	1.0
3071.369	0.3	stopfail	0.458	Go_X	0.0
3073.91	1.0	go	0.453	Go_X	1.0
3076.434	1.0	go	0.399	Go_O	0.0
3078.958	0.25	stopsuccess	0.0	Go_O	1.0
3081.483	1.0	go	0.489	Go_O	1.0
3084.007	1.0	go	0.573	Go_X	1.0
3086.548	0.3	stopfail	0.511	Go_X	0.0
3089.089	1.0	go	0.385	Go_X	1.0
3091.63	1.0	go	0.608	Go_O	1.0
3094.154	0.25	stopsuccess	0.0	Go_O	1.0
3096.695	1.0	go	0.508	Go_O	1.0
3099.219	1.0	go	0.657	Go_X	1.0
3101.743	1.0	go	0.479	Go_O	1.0
3104.267	1.0	go	0.332	Go_X	1.0
3106.808	1.0	go	0.554	Go_O	1.0
3109.349	1.0	go	0.515	Go_X	1.0
3111.874	0.3	stopsuccess	0.0	Go_X	1.0
3114.415	1.0	go	0.549	Go_O	1.0
3116.939	0.35	stopfail	0.569	Go_O	0.0
3119.48	1.0	go	0.536	Go_X	1.0
3122.004	1.0	go	0.408	Go_X	1.0
3124.528	1.0	go	0.457	Go_O	1.0
3127.052	1.0	go	0.536	Go_O	1.0
3129.593	1.0	go	0.424	Go_X	1.0
3132.118	0.3	stopsuccess	0.0	Go_X	1.0
3134.659	1.0	go	0.525	Go_O	1.0
3137.183	1.0	go	0.38	Go_X	1.0
3139.707	1.0	go	0.419	Go_X	1.0
3142.248	0.35	stopfail	0.293	Go_O	0.0
3144.789	0.3	stopsuccess	0.0	Go_X	1.0
3147.313	0.35	stopsuccess	0.0	Go_O	1.0
3149.854	1.0	go	0.581	Go_O	1.0
3152.395	0.4	stopfail	0.417	Go_X	0.0
3154.936	1.0	go	0.92	Go_X	1.0
3157.46	1.0	go	0.551	Go_O	1.0
3159.984	1.0	go	0.456	Go_X	1.0
3162.509	1.0	go	0.438	Go_O	1.0
3165.033	1.0	go	0.41	Go_O	1.0
3167.557	1.0	go	0.454	Go_X	1.0
3170.081	1.0	go	0.327	Go_O	1.0
3172.605	1.0	go	0.329	Go_X	1.0
3175.146	0.35	stopfail	0.516	Go_O	0.0
3177.687	1.0	go	0.625	Go_X	1.0
3180.212	1.0	go	0.509	Go_O	1.0
3182.752	0.3	stopfail	0.538	Go_X	0.0
3185.293	1.0	go	0.565	Go_X	0.0
3187.818	1.0	go	0.487	Go_O	1.0
3190.342	1.0	go	0.561	Go_O	1.0
3192.883	1.0	go	0.34	Go_X	1.0
3195.407	1.0	go	0.374	Go_X	1.0
3197.931	0.25	stopsuccess	0.0	Go_O	1.0
3200.472	1.0	go	0.512	Go_O	1.0
3202.996	1.0	go	0.644	Go_X	1.0
3205.521	1.0	go	0.468	Go_O	1.0
3208.062	0.3	stopfail	0.396	Go_X	0.0
3210.586	1.0	go	0.594	Go_X	0.0
3213.11	0.25	stopsuccess	0.0	Go_O	1.0
3215.651	1.0	go	0.767	Go_O	1.0
3218.175	1.0	go	0.405	Go_O	1.0
3220.716	1.0	go	0.311	Go_X	1.0
3223.24	1.0	go	0.562	Go_O	1.0
3225.765	1.0	go	0.718	Go_X	1.0
3228.289	1.0	go	0.641	Go_O	1.0
3230.813	1.0	go	0.727	Go_X	0.0
3233.337	0.3	stopfail	0.406	Go_X	0.0
3235.862	1.0	go	0.483	Go_X	1.0
3238.402	1.0	go	0.8	Go_O	1.0
3240.943	1.0	go	0.883	Go_X	1.0
3243.468	1.0	go	0.593	Go_O	1.0
3245.992	0.25	stopsuccess	0.0	Go_O	1.0
3248.533	1.0	go	0.79	Go_O	1.0
3251.057	0.3	stopfail	0.428	Go_X	0.0
3253.598	1.0	go	0.438	Go_X	1.0
3256.139	1.0	go	0.418	Go_O	1.0
3258.663	0.25	stopsuccess	0.0	Go_O	1.0
3261.204	1.0	go	0.424	Go_X	1.0
3263.728	1.0	go	0.43	Go_X	1.0
3266.269	1.0	go	0.85	Go_O	1.0
3268.81	1.0	go	0.404	Go_O	1.0
3271.334	1.0	go	0.526	Go_X	1.0
3273.859	1.0	go	0.466	Go_X	1.0
3276.383	1.0	go	0.362	Go_O	1.0
3278.907	1.0	go	0.59	Go_O	1.0
3281.431	1.0	go	0.45	Go_X	1.0
3283.956	1.0	go	0.353	Go_X	1.0
3286.496	0.3	stopfail	0.44	Go_X	0.0
3289.021	1.0	go	0.298	Go_O	0.0
3291.545	1.0	go	0.364	Go_O	1.0
3294.069	0.25	stopsuccess	0.0	Go_O	1.0
3296.61	1.0	go	0.38	Go_X	0.0
3299.151	0.3	stopsuccess	0.0	Go_X	1.0
3301.692	1.0	go	0.417	Go_X	1.0
3304.233	1.0	go	0.452	Go_O	1.0
3306.757	0.35	stopfail	0.467	Go_O	0.0
3309.281	1.0	go	0.49	Go_X	1.0
3311.806	0.3	stopsuccess	0.0	Go_X	1.0
3314.346	1.0	go	0.432	Go_O	1.0
3316.871	1.0	go	0.466	Go_X	1.0
3319.412	1.0	go	0.546	Go_O	1.0
3321.936	0.35	stopfail	0.46	Go_O	0.0
3324.477	1.0	go	0.55	Go_O	1.0
3327.001	1.0	go	0.694	Go_X	1.0
3329.542	1.0	go	0.432	Go_X	1.0
3332.066	1.0	go	0.551	Go_O	1.0
3334.59	0.3	stopfail	0.573	Go_X	0.0
3337.115	1.0	go	0.533	Go_O	0.0
3339.639	1.0	go	0.455	Go_X	1.0
3342.163	0.25	stopsuccess	0.0	Go_O	1.0
3344.687	1.0	go	0.439	Go_X	1.0
3347.228	1.0	go	0.623	Go_O	1.0
3349.769	1.0	go	0.581	Go_O	1.0
3352.293	1.0	go	0.521	Go_X	1.0
3354.818	0.3	stopfail	0.578	Go_X	0.0
3357.359	1.0	go	0.642	Go_X	1.0
3359.883	0.25	stopsuccess	0.0	Go_O	1.0
3362.424	1.0	go	0.503	Go_O	1.0
3364.965	1.0	go	0.466	Go_O	1.0
3367.506	0.3	stopfail	0.406	Go_X	0.0
3370.047	1.0	go	0.399	Go_X	1.0
3372.571	1.0	go	0.489	Go_O	1.0
3375.095	1.0	go	0.548	Go_X	1.0
3377.619	1.0	go	0.441	Go_X	1.0
3380.144	0.25	stopsuccess	0.0	Go_O	1.0
3382.684	1.0	go	0.469	Go_O	1.0
3385.209	0.3	stopfail	0.514	Go_X	0.0
3387.75	1.0	go	0.547	Go_O	1.0
3390.274	1.0	go	0.518	Go_X	1.0
3392.815	1.0	go	0.412	Go_O	1.0
3395.339	1.0	go	0.702	Go_X	1.0
3397.863	1.0	go	0.696	Go_O	1.0
3400.387	1.0	go	0.435	Go_X	1.0
3402.928	0.25	stopsuccess	0.0	Go_O	1.0
3405.453	1.0	go	0.587	Go_X	1.0
3407.994	1.0	go	0.632	Go_O	1.0
3410.518	0.3	stopfail	0.411	Go_X	0.0
3413.059	1.0	go	0.596	Go_X	1.0
3415.583	1.0	go	0.435	Go_O	1.0
3418.107	0.25	stopfail	0.409	Go_O	0.0
3420.648	1.0	go	0.397	Go_O	1.0
3423.172	1.0	go	0.687	Go_X	1.0
3425.697	1.0	go	0.449	Go_X	1.0
3428.238	1.0	go	0.602	Go_O	1.0
3430.762	0.2	stopsuccess	0.0	Go_X	1.0
3433.303	1.0	go	0.526	Go_X	1.0
3435.827	0.25	stopsuccess	0.0	Go_O	1.0
3438.368	1.0	go	0.585	Go_O	1.0
3440.892	1.0	go	0.491	Go_O	1.0
3443.433	1.0	go	0.492	Go_X	1.0
3445.957	1.0	go	0.582	Go_O	1.0
3448.481	1.0	go	0.511	Go_X	1.0
3451.006	0.3	stopfail	0.467	Go_X	0.0
3453.53	1.0	go	0.223	Go_O	0.0
3456.054	1.0	go	0.509	Go_X	1.0
3458.578	0.25	stopsuccess	0.0	Go_O	1.0
3461.103	0.3	stopfail	0.373	Go_X	0.0
3463.644	1.0	go	0.797	Go_O	1.0
3466.168	1.0	go	0.44	Go_X	1.0
3468.692	1.0	go	0.379	Go_O	1.0
3471.216	1.0	go	0.63	Go_X	1.0
3473.74	0.25	stopfail	0.428	Go_O	0.0
3476.265	1.0	go	0.371	Go_X	1.0
