onset	duration	trial_type	response_time	stim_file	accuracy
35.542	1.0	go	0.725	Go_X	1.0
38.067	1.0	go	0.507	Go_O	1.0
40.608	1.0	go	0.405	Go_O	1.0
43.132	1.0	go	0.363	Go_X	1.0
45.656	1.0	go	0.42	Go_X	1.0
48.18	1.0	go	0.521	Go_O	1.0
50.704	0.25	stop	0.0	Go_O	1.0
53.229	1.0	go	0.246	Go_X	1.0
55.753	0.3	stop	0.51	Go_X	0.0
58.277	1.0	go	0.652	Go_O	1.0
60.801	1.0	go	0.54	Go_O	1.0
63.326	1.0	go	0.43	Go_X	1.0
65.85	0.25	stop	0.324	Go_O	0.0
68.391	1.0	go	0.684	Go_X	1.0
70.915	1.0	go	0.568	Go_O	1.0
73.439	0.2	stop	0.0	Go_X	1.0
75.963	0.25	stop	0.369	Go_O	0.0
78.488	1.0	go	0.558	Go_O	1.0
81.028	1.0	go	0.347	Go_X	1.0
83.553	0.2	stop	0.326	Go_X	0.0
86.077	1.0	go	0.388	Go_O	1.0
88.601	1.0	go	0.554	Go_X	1.0
91.125	0.15	stop	0.0	Go_O	1.0
93.65	1.0	go	0.281	Go_O	0.0
96.174	1.0	go	0.292	Go_X	1.0
98.698	0.2	stop	0.0	Go_X	1.0
101.239	1.0	go	0.326	Go_X	0.0
103.763	1.0	go	0.595	Go_O	1.0
106.287	0.25	stop	0.0	Go_O	1.0
108.812	1.0	go	0.349	Go_O	1.0
111.336	1.0	go	0.47	Go_X	1.0
113.86	1.0	go	0.525	Go_O	1.0
116.384	1.0	go	0.44	Go_X	1.0
118.908	1.0	go	0.609	Go_X	1.0
121.433	0.3	stop	0.0	Go_X	1.0
123.957	1.0	go	0.348	Go_O	1.0
126.481	1.0	go	0.553	Go_X	1.0
129.005	1.0	go	0.443	Go_O	1.0
131.529	1.0	go	0.572	Go_O	1.0
134.054	1.0	go	0.476	Go_X	1.0
136.578	0.35	stop	0.41	Go_O	0.0
139.102	1.0	go	0.577	Go_X	1.0
141.626	1.0	go	0.706	Go_O	1.0
144.151	1.0	go	0.351	Go_X	1.0
146.691	1.0	go	0.45	Go_O	1.0
149.216	1.0	go	0.386	Go_X	1.0
151.74	1.0	go	0.237	Go_O	1.0
154.264	0.3	stop	0.386	Go_X	0.0
156.788	1.0	go	0.654	Go_X	1.0
159.313	1.0	go	0.617	Go_O	1.0
161.837	0.25	stop	0.0	Go_O	1.0
164.361	1.0	go	0.556	Go_O	1.0
166.885	0.3	stop	0.397	Go_X	0.0
169.409	0.25	stop	0.424	Go_O	0.0
171.934	1.0	go	0.68	Go_X	1.0
174.458	1.0	go	0.538	Go_X	1.0
176.982	1.0	go	0.611	Go_O	1.0
179.506	1.0	go	0.344	Go_X	1.0
182.03	0.2	stop	0.469	Go_X	0.0
184.555	1.0	go	0.0	Go_O	0.0
187.079	0.15	stop	0.0	Go_O	1.0
189.603	1.0	go	0.439	Go_X	1.0
192.127	1.0	go	0.255	Go_O	1.0
194.652	1.0	go	0.0	Go_X	0.0
197.176	1.0	go	0.486	Go_O	1.0
199.7	1.0	go	0.0	Go_X	0.0
202.224	1.0	go	0.552	Go_O	1.0
204.748	1.0	go	0.703	Go_O	1.0
207.273	1.0	go	0.491	Go_X	1.0
209.814	1.0	go	0.698	Go_X	1.0
212.338	0.2	stop	0.0	Go_X	1.0
214.879	1.0	go	0.37	Go_O	1.0
217.403	1.0	go	0.384	Go_O	1.0
219.927	1.0	go	0.482	Go_X	1.0
222.451	0.25	stop	0.0	Go_O	1.0
224.992	1.0	go	0.62	Go_X	1.0
227.516	1.0	go	0.579	Go_O	1.0
230.041	1.0	go	0.589	Go_X	1.0
232.565	1.0	go	0.429	Go_O	1.0
235.089	1.0	go	0.472	Go_O	1.0
237.613	1.0	go	0.441	Go_X	1.0
240.138	0.3	stop	0.0	Go_X	1.0
242.678	1.0	go	0.417	Go_O	1.0
245.203	1.0	go	0.538	Go_X	1.0
247.727	0.35	stop	0.497	Go_O	0.0
250.251	1.0	go	0.515	Go_X	1.0
252.775	1.0	go	0.554	Go_O	1.0
255.3	0.3	stop	0.44	Go_X	0.0
257.824	1.0	go	0.509	Go_X	1.0
260.348	0.25	stop	0.0	Go_O	1.0
262.872	1.0	go	0.534	Go_O	1.0
265.396	1.0	go	0.694	Go_X	1.0
267.921	1.0	go	0.661	Go_O	1.0
270.445	1.0	go	0.54	Go_O	1.0
272.969	1.0	go	0.635	Go_X	1.0
275.493	0.3	stop	0.427	Go_X	0.0
278.017	0.25	stop	0.0	Go_O	1.0
280.542	1.0	go	0.0	Go_O	0.0
283.066	1.0	go	0.33	Go_X	1.0
285.59	0.3	stop	0.427	Go_X	0.0
288.131	1.0	go	0.63	Go_O	1.0
290.655	1.0	go	0.461	Go_X	1.0
293.196	1.0	go	0.373	Go_O	0.0
295.72	1.0	go	0.468	Go_X	1.0
298.245	1.0	go	0.535	Go_X	1.0
300.769	1.0	go	0.662	Go_O	1.0
303.293	0.25	stop	0.0	Go_O	1.0
305.817	1.0	go	0.447	Go_O	1.0
308.341	1.0	go	0.949	Go_X	1.0
310.866	1.0	go	0.626	Go_X	1.0
313.39	1.0	go	0.541	Go_O	1.0
315.914	1.0	go	0.374	Go_X	0.0
318.438	0.3	stop	0.0	Go_X	1.0
320.963	1.0	go	0.429	Go_O	1.0
323.487	1.0	go	0.729	Go_O	1.0
326.011	1.0	go	0.812	Go_X	1.0
328.535	1.0	go	0.581	Go_X	1.0
331.059	0.35	stop	0.0	Go_O	1.0
333.584	1.0	go	0.53	Go_O	1.0
336.108	1.0	go	0.884	Go_O	1.0
338.632	0.4	stop	0.513	Go_X	0.0
341.156	1.0	go	0.538	Go_X	1.0
343.68	0.35	stop	0.0	Go_O	1.0
346.205	1.0	go	0.697	Go_X	0.0
348.729	1.0	go	0.708	Go_O	1.0
351.253	1.0	go	0.531	Go_O	1.0
353.777	1.0	go	0.723	Go_X	1.0
356.302	1.0	go	0.92	Go_O	1.0
358.826	1.0	go	0.438	Go_X	1.0
361.35	1.0	go	0.539	Go_O	1.0
363.874	0.4	stop	0.0	Go_X	1.0
366.398	1.0	go	0.657	Go_X	1.0
368.923	1.0	go	0.0	Go_O	0.0
371.447	1.0	go	0.453	Go_X	1.0
373.971	0.45	stop	0.427	Go_O	0.0
376.495	1.0	go	0.448	Go_X	1.0
379.019	1.0	go	0.272	Go_O	1.0
381.544	1.0	go	0.462	Go_X	1.0
384.068	1.0	go	0.549	Go_O	1.0
386.592	0.4	stop	0.323	Go_X	0.0
389.116	1.0	go	0.464	Go_O	1.0
391.641	1.0	go	0.266	Go_X	1.0
394.165	0.35	stop	0.483	Go_O	0.0
396.689	1.0	go	0.776	Go_X	1.0
399.213	1.0	go	0.51	Go_O	1.0
401.737	0.3	stop	0.0	Go_X	1.0
404.262	1.0	go	0.561	Go_O	1.0
406.786	1.0	go	0.0	Go_X	0.0
409.31	0.35	stop	0.332	Go_O	0.0
411.834	1.0	go	0.617	Go_X	1.0
414.358	1.0	go	0.579	Go_O	1.0
416.883	1.0	go	0.507	Go_X	1.0
419.407	1.0	go	0.603	Go_O	1.0
421.948	1.0	go	0.374	Go_X	1.0
424.472	1.0	go	0.416	Go_O	0.0
426.996	0.3	stop	0.0	Go_X	1.0
429.52	1.0	go	0.925	Go_O	1.0
432.045	0.35	stop	0.516	Go_O	0.0
434.569	1.0	go	0.586	Go_X	1.0
437.093	1.0	go	0.401	Go_O	1.0
439.617	1.0	go	0.608	Go_X	1.0
442.141	1.0	go	0.572	Go_O	1.0
444.666	1.0	go	0.0	Go_X	0.0
447.19	0.3	stop	0.515	Go_X	0.0
449.714	1.0	go	0.722	Go_O	1.0
452.238	1.0	go	0.42	Go_X	1.0
454.763	1.0	go	0.379	Go_O	1.0
457.287	0.25	stop	0.49	Go_O	0.0
459.811	0.2	stop	0.0	Go_X	1.0
462.335	0.25	stop	0.0	Go_O	1.0
464.859	1.0	go	0.488	Go_X	1.0
467.384	0.3	stop	0.0	Go_X	1.0
469.908	1.0	go	0.878	Go_O	1.0
472.432	1.0	go	0.754	Go_X	1.0
474.973	1.0	go	0.462	Go_O	1.0
477.497	1.0	go	0.0	Go_X	0.0
480.023	1.0	go	0.455	Go_O	1.0
482.546	1.0	go	0.591	Go_X	1.0
485.07	1.0	go	0.53	Go_X	1.0
487.594	1.0	go	0.796	Go_O	1.0
490.118	0.35	stop	0.563	Go_O	0.0
492.642	1.0	go	0.524	Go_X	1.0
495.167	1.0	go	0.438	Go_O	1.0
497.691	0.3	stop	0.425	Go_X	0.0
500.232	1.0	go	0.0	Go_O	0.0
502.756	1.0	go	0.341	Go_X	1.0
505.28	1.0	go	0.628	Go_X	1.0
507.804	1.0	go	0.66	Go_O	1.0
510.329	1.0	go	0.425	Go_X	1.0
512.853	0.25	stop	0.0	Go_O	1.0
515.377	1.0	go	0.309	Go_O	0.0
517.901	1.0	go	0.67	Go_X	1.0
520.426	1.0	go	0.682	Go_O	1.0
522.95	0.3	stop	0.0	Go_X	1.0
525.491	1.0	go	0.838	Go_X	1.0
528.015	0.35	stop	0.447	Go_O	0.0
530.556	1.0	go	0.532	Go_O	1.0
533.08	1.0	go	0.557	Go_X	1.0
535.621	1.0	go	0.516	Go_O	1.0
538.145	1.0	go	0.648	Go_O	1.0
540.669	1.0	go	0.71	Go_X	1.0
543.194	1.0	go	0.395	Go_X	1.0
545.718	1.0	go	0.0	Go_O	0.0
548.242	0.3	stop	0.464	Go_X	0.0
550.766	1.0	go	0.0	Go_X	0.0
553.29	1.0	go	0.559	Go_O	1.0
555.815	1.0	go	0.0	Go_X	0.0
558.339	1.0	go	0.333	Go_O	1.0
560.863	0.25	stop	0.0	Go_O	1.0
563.387	1.0	go	0.0	Go_O	0.0
565.912	0.3	stop	0.0	Go_X	1.0
568.452	1.0	go	0.182	Go_X	0.0
570.977	1.0	go	0.511	Go_X	1.0
573.501	0.35	stop	0.864	Go_O	0.0
576.025	1.0	go	0.647	Go_O	1.0
578.549	1.0	go	0.0	Go_O	0.0
581.074	1.0	go	0.0	Go_X	0.0
583.614	1.0	go	0.0	Go_X	0.0
586.139	1.0	go	0.32	Go_O	1.0
588.663	1.0	go	0.557	Go_O	1.0
591.187	1.0	go	0.549	Go_X	1.0
593.711	1.0	go	0.662	Go_X	1.0
596.236	1.0	go	0.632	Go_O	1.0
598.76	1.0	go	0.0	Go_X	0.0
601.284	0.3	stop	0.527	Go_X	0.0
603.808	1.0	go	0.0	Go_O	0.0
606.332	1.0	go	0.639	Go_O	1.0
608.857	0.25	stop	0.0	Go_O	1.0
611.381	1.0	go	0.482	Go_X	1.0
613.905	0.3	stop	0.0	Go_X	1.0
616.446	1.0	go	0.537	Go_X	1.0
618.97	1.0	go	0.668	Go_O	1.0
621.494	0.35	stop	0.0	Go_O	1.0
624.019	1.0	go	0.828	Go_O	0.0
626.543	0.4	stop	0.0	Go_X	1.0
629.067	1.0	go	0.0	Go_X	0.0
631.591	1.0	go	0.298	Go_O	1.0
634.115	1.0	go	0.985	Go_X	1.0
636.64	0.45	stop	0.0	Go_O	1.0
639.181	1.0	go	0.404	Go_O	1.0
641.722	1.0	go	0.573	Go_X	1.0
644.246	1.0	go	0.445	Go_X	1.0
646.77	1.0	go	0.0	Go_O	0.0
649.294	0.5	stop	0.407	Go_X	0.0
651.818	1.0	go	0.908	Go_O	1.0
654.343	1.0	go	0.397	Go_X	1.0
656.867	0.45	stop	0.385	Go_O	0.0
659.391	1.0	go	0.437	Go_O	1.0
661.915	1.0	go	0.299	Go_X	1.0
664.439	1.0	go	0.783	Go_X	1.0
666.964	1.0	go	0.492	Go_O	1.0
669.488	0.4	stop	0.221	Go_X	0.0
672.012	1.0	go	0.222	Go_O	1.0
674.536	0.35	stop	0.577	Go_O	0.0
677.061	1.0	go	0.0	Go_X	0.0
679.585	1.0	go	0.439	Go_X	1.0
682.109	0.3	stop	0.0	Go_X	1.0
684.633	1.0	go	0.303	Go_O	1.0
687.157	1.0	go	0.0	Go_X	0.0
689.682	1.0	go	0.419	Go_O	1.0
692.206	1.0	go	0.594	Go_X	1.0
694.747	0.35	stop	0.472	Go_O	0.0
697.271	1.0	go	0.0	Go_O	0.0
699.795	0.3	stop	0.407	Go_X	0.0
702.319	1.0	go	0.808	Go_X	0.0
704.86	1.0	go	0.532	Go_O	1.0
707.385	1.0	go	0.431	Go_X	1.0
709.909	1.0	go	0.314	Go_O	1.0
712.45	1.0	go	0.882	Go_X	1.0
714.974	1.0	go	0.591	Go_O	1.0
717.498	0.25	stop	0.326	Go_O	0.0
720.022	1.0	go	0.0	Go_O	0.0
722.547	1.0	go	0.83	Go_X	1.0
725.087	0.2	stop	0.0	Go_X	1.0
727.612	1.0	go	0.483	Go_O	1.0
730.136	1.0	go	0.544	Go_X	1.0
732.66	0.25	stop	0.415	Go_O	0.0
735.184	1.0	go	0.0	Go_X	0.0
737.709	1.0	go	0.705	Go_O	1.0
740.233	1.0	go	0.281	Go_X	1.0
742.757	1.0	go	0.638	Go_O	1.0
745.281	0.2	stop	0.0	Go_X	1.0
747.805	1.0	go	0.0	Go_O	0.0
750.33	0.25	stop	0.391	Go_O	0.0
752.854	1.0	go	0.533	Go_X	1.0
755.378	1.0	go	0.675	Go_X	1.0
757.902	1.0	go	0.776	Go_O	1.0
760.426	1.0	go	0.72	Go_O	1.0
762.951	1.0	go	0.803	Go_X	1.0
765.475	0.2	stop	0.0	Go_X	1.0
768.016	1.0	go	0.0	Go_O	0.0
770.557	1.0	go	0.287	Go_X	1.0
773.081	0.25	stop	0.455	Go_O	0.0
775.622	0.2	stop	0.314	Go_X	0.0
778.146	1.0	go	0.432	Go_O	1.0
780.67	1.0	go	0.606	Go_X	1.0
783.195	1.0	go	0.674	Go_O	1.0
785.719	1.0	go	0.576	Go_X	1.0
788.243	0.15	stop	0.0	Go_O	1.0
790.786	1.0	go	0.522	Go_O	1.0
