frame	onset	duration	trial_type	event_type	response_type	response_time	stim_file	accuracy
0	134.112		win-noreward	ImageDisplay1		0.0		
0	136.095	0.75	win-noreward	StartDisplay				
0	136.845		win-noreward	ImageDisplay2		0.0		
0	140.095	1.6	win-noreward	ChoiceDisplay	1	0.706	1	1
0	140.829	0.894	win-noreward	ChosenDisplay		0.0		
0	141.695	0.25	win-noreward	TurnDisplay				
0	141.945	0.75	win-noreward	OutcomeDisplay				
1	142.695		control-noreward	ImageDisplay1		0.0		
1	144.695	0.75	control-noreward	StartDisplay				
1	145.445		control-noreward	ImageDisplay2		0.0		
1	148.695	1.6	control-noreward	ChoiceDisplay	1	0.945	1	1
1	149.662	0.655	control-noreward	ChosenDisplay		0.0		
1	150.295	0.25	control-noreward	TurnDisplay				
1	150.545	0.75	control-noreward	OutcomeDisplay				
2	151.295		win-noreward	ImageDisplay1		0.0		
2	153.295	0.75	win-noreward	StartDisplay				
2	154.045		win-noreward	ImageDisplay2		0.0		
2	157.295	1.6	win-noreward	ChoiceDisplay	1	0.722	1	1
2	158.045	0.878	win-noreward	ChosenDisplay		0.0		
2	158.895	0.25	win-noreward	TurnDisplay				
2	159.145	0.75	win-noreward	OutcomeDisplay				
3	159.895		control-reward	ImageDisplay1		0.0		
3	162.145	0.75	control-reward	StartDisplay				
3	162.895		control-reward	ImageDisplay2		0.0		
3	165.895	1.6	control-reward	ChoiceDisplay	1	1.355	1	1
3	167.261	0.245	control-reward	ChosenDisplay		0.0		
3	167.495	0.25	control-reward	TurnDisplay				
3	167.745	0.75	control-reward	OutcomeDisplay				
4	168.495		control-noreward	ImageDisplay1		0.0		
4	170.744	0.75	control-noreward	StartDisplay				
4	171.494		control-noreward	ImageDisplay2		0.0		
4	174.494	1.6	control-noreward	ChoiceDisplay	1	1.132	1	1
4	175.644	0.468	control-noreward	ChosenDisplay		0.0		
4	176.094	0.25	control-noreward	TurnDisplay				
4	176.344	0.75	control-noreward	OutcomeDisplay				
5	177.094		loss-reward	ImageDisplay1		0.0		
5	179.344	0.75	loss-reward	StartDisplay				
5	180.094		loss-reward	ImageDisplay2		0.0		
5	183.094	1.6	loss-reward	ChoiceDisplay	1	1.336	1	1
5	184.444	0.264	loss-reward	ChosenDisplay		0.0		
5	184.694	0.25	loss-reward	TurnDisplay				
5	184.944	0.75	loss-reward	OutcomeDisplay				
6	185.694		win-reward	ImageDisplay1		0.0		
6	187.694	0.75	win-reward	StartDisplay				
6	188.444		win-reward	ImageDisplay2		0.0		
6	191.694	1.6	win-reward	ChoiceDisplay	1	0.749	1	1
6	192.461	0.851	win-reward	ChosenDisplay		0.0		
6	193.294	0.25	win-reward	TurnDisplay				
6	193.544	0.75	win-reward	OutcomeDisplay				
7	194.294		loss-noreward	ImageDisplay1		0.0		
7	196.294	0.75	loss-noreward	StartDisplay				
7	197.044		loss-noreward	ImageDisplay2		0.0		
7	200.294	1.6	loss-noreward	ChoiceDisplay	1	1.093	1	1
7	201.41	0.507	loss-noreward	ChosenDisplay		0.0		
7	201.894	0.25	loss-noreward	TurnDisplay				
7	202.144	0.75	loss-noreward	OutcomeDisplay				
8	202.894		loss-noreward	ImageDisplay1		0.0		
8	205.144	0.75	loss-noreward	StartDisplay				
8	205.894		loss-noreward	ImageDisplay2		0.0		
8	208.894	1.6	loss-noreward	ChoiceDisplay	1	1.032	1	1
8	209.944	0.568	loss-noreward	ChosenDisplay		0.0		
8	210.494	0.25	loss-noreward	TurnDisplay				
8	210.744	0.75	loss-noreward	OutcomeDisplay				
9	211.494		loss-reward	ImageDisplay1		0.0		
9	213.743	0.75	loss-reward	StartDisplay				
9	214.493		loss-reward	ImageDisplay2		0.0		
9	217.493	1.6	loss-reward	ChoiceDisplay	1	1.226	1	1
9	218.743	0.374	loss-reward	ChosenDisplay		0.0		
9	219.093	0.25	loss-reward	TurnDisplay				
9	219.343	0.75	loss-reward	OutcomeDisplay				
10	220.093		win-reward	ImageDisplay1		0.0		
10	222.093	0.75	win-reward	StartDisplay				
10	222.843		win-reward	ImageDisplay2		0.0		
10	226.093	1.6	win-reward	ChoiceDisplay	1	1.403	1	1
10	227.51	0.197	win-reward	ChosenDisplay		0.0		
10	227.693	0.25	win-reward	TurnDisplay				
10	227.943	0.75	win-reward	OutcomeDisplay				
11	228.693		control-noreward	ImageDisplay1		0.0		
11	230.943	0.75	control-noreward	StartDisplay				
11	231.693		control-noreward	ImageDisplay2		0.0		
11	234.693	1.6	control-noreward	ChoiceDisplay	1	0.61	1	1
11	235.326	0.99	control-noreward	ChosenDisplay		0.0		
11	236.293	0.25	control-noreward	TurnDisplay				
11	236.543	0.75	control-noreward	OutcomeDisplay				
12	237.293		loss-noreward	ImageDisplay1		0.0		
12	239.543	0.75	loss-noreward	StartDisplay				
12	240.293		loss-noreward	ImageDisplay2		0.0		
12	243.293	1.6	loss-noreward	ChoiceDisplay	1	1.011	1	1
12	244.326	0.589	loss-noreward	ChosenDisplay		0.0		
12	244.893	0.25	loss-noreward	TurnDisplay				
12	245.143	0.75	loss-noreward	OutcomeDisplay				
13	245.893		win-noreward	ImageDisplay1		0.0		
13	247.893	0.75	win-noreward	StartDisplay				
13	248.643		win-noreward	ImageDisplay2		0.0		
13	251.893	1.6	win-noreward	ChoiceDisplay	1	0.966	1	1
13	252.876	0.634	win-noreward	ChosenDisplay		0.0		
13	253.493	0.25	win-noreward	TurnDisplay				
13	253.743	0.75	win-noreward	OutcomeDisplay				
14	254.493		win-reward	ImageDisplay1		0.0		
14	256.743	0.75	win-reward	StartDisplay				
14	257.492		win-reward	ImageDisplay2		0.0		
14	260.492	1.6	win-reward	ChoiceDisplay	1	1.372	1	1
14	261.876	0.228	win-reward	ChosenDisplay		0.0		
14	262.092	0.25	win-reward	TurnDisplay				
14	262.342	0.75	win-reward	OutcomeDisplay				
15	263.092		loss-reward	ImageDisplay1		0.0		
15	265.092	0.75	loss-reward	StartDisplay				
15	265.842		loss-reward	ImageDisplay2		0.0		
15	269.092	1.6	loss-reward	ChoiceDisplay	1	0.924	1	1
15	270.042	0.676	loss-reward	ChosenDisplay		0.0		
15	270.692	0.25	loss-reward	TurnDisplay				
15	270.942	0.75	loss-reward	OutcomeDisplay				
16	271.692		loss-reward	ImageDisplay1		0.0		
16	273.942	0.75	loss-reward	StartDisplay				
16	274.692		loss-reward	ImageDisplay2		0.0		
16	277.692	1.6	loss-reward	ChoiceDisplay	1	0.866	1	1
16	278.575	0.734	loss-reward	ChosenDisplay		0.0		
16	279.292	0.25	loss-reward	TurnDisplay				
16	279.542	0.75	loss-reward	OutcomeDisplay				
17	280.292		control-reward	ImageDisplay1		0.0		
17	282.292	0.75	control-reward	StartDisplay				
17	283.042		control-reward	ImageDisplay2		0.0		
17	286.292	1.6	control-reward	ChoiceDisplay	1	0.676	1	1
17	286.992	0.924	control-reward	ChosenDisplay		0.0		
17	287.892	0.25	control-reward	TurnDisplay				
17	288.142	0.75	control-reward	OutcomeDisplay				
18	288.892		control-noreward	ImageDisplay1		0.0		
18	291.142	0.75	control-noreward	StartDisplay				
18	291.892		control-noreward	ImageDisplay2		0.0		
18	294.892	1.6	control-noreward	ChoiceDisplay	1	0.567	1	1
18	295.475	1.033	control-noreward	ChosenDisplay		0.0		
18	296.492	0.25	control-noreward	TurnDisplay				
18	296.742	0.75	control-noreward	OutcomeDisplay				
19	297.492		control-reward	ImageDisplay1		0.0		
19	299.492	0.75	control-reward	StartDisplay				
19	300.241		control-reward	ImageDisplay2		0.0		
19	303.491	1.6	control-reward	ChoiceDisplay	1	1.324	1	1
19	304.841	0.276	control-reward	ChosenDisplay		0.0		
19	305.091	0.25	control-reward	TurnDisplay				
19	305.341	0.75	control-reward	OutcomeDisplay				
20	306.091		control-noreward	ImageDisplay1		0.0		
20	308.091	0.75	control-noreward	StartDisplay				
20	308.841		control-noreward	ImageDisplay2		0.0		
20	312.091	1.6	control-noreward	ChoiceDisplay	1	0.256	1	1
20	312.358	1.344	control-noreward	ChosenDisplay		0.0		
20	313.691	0.25	control-noreward	TurnDisplay				
20	313.941	0.75	control-noreward	OutcomeDisplay				
21	314.691		win-reward	ImageDisplay1		0.0		
21	316.941	0.75	win-reward	StartDisplay				
21	317.691		win-reward	ImageDisplay2		0.0		
21	320.691	1.6	win-reward	ChoiceDisplay	1	1.121	1	1
21	321.824	0.479	win-reward	ChosenDisplay		0.0		
21	322.291	0.25	win-reward	TurnDisplay				
21	322.541	0.75	win-reward	OutcomeDisplay				
22	323.291		win-noreward	ImageDisplay1		0.0		
22	325.541	0.75	win-noreward	StartDisplay				
22	326.291		win-noreward	ImageDisplay2		0.0		
22	329.291	1.6	win-noreward	ChoiceDisplay	1	0.864	1	1
22	330.174	0.736	win-noreward	ChosenDisplay		0.0		
22	330.891	0.25	win-noreward	TurnDisplay				
22	331.141	0.75	win-noreward	OutcomeDisplay				
23	331.891		loss-noreward	ImageDisplay1		0.0		
23	333.891	0.75	loss-noreward	StartDisplay				
23	334.641		loss-noreward	ImageDisplay2		0.0		
23	337.891	1.6	loss-noreward	ChoiceDisplay	1	0.827	1	1
23	338.741	0.773	loss-noreward	ChosenDisplay		0.0		
23	339.491	0.25	loss-noreward	TurnDisplay				
23	339.741	0.75	loss-noreward	OutcomeDisplay				
24	340.491		control-noreward	ImageDisplay1		0.0		
24	342.491	0.75	control-noreward	StartDisplay				
24	343.24		control-noreward	ImageDisplay2		0.0		
24	346.49	1.6	control-noreward	ChoiceDisplay	1	0.589	1	1
24	347.09	1.011	control-noreward	ChosenDisplay		0.0		
24	348.09	0.25	control-noreward	TurnDisplay				
24	348.34	0.75	control-noreward	OutcomeDisplay				
25	349.09		loss-noreward	ImageDisplay1		0.0		
25	351.09	0.75	loss-noreward	StartDisplay				
25	351.84		loss-noreward	ImageDisplay2		0.0		
25	355.09	1.6	loss-noreward	ChoiceDisplay	1	0.462	1	1
25	355.574	1.138	loss-noreward	ChosenDisplay		0.0		
25	356.69	0.25	loss-noreward	TurnDisplay				
25	356.94	0.75	loss-noreward	OutcomeDisplay				
26	357.69		win-reward	ImageDisplay1		0.0		
26	359.94	0.75	win-reward	StartDisplay				
26	360.69		win-reward	ImageDisplay2		0.0		
26	363.69	1.6	win-reward	ChoiceDisplay	1	1.031	1	1
26	364.74	0.569	win-reward	ChosenDisplay		0.0		
26	365.29	0.25	win-reward	TurnDisplay				
26	365.54	0.75	win-reward	OutcomeDisplay				
27	366.29		control-noreward	ImageDisplay1		0.0		
27	368.29	0.75	control-noreward	StartDisplay				
27	369.04		control-noreward	ImageDisplay2		0.0		
27	372.29	1.6	control-noreward	ChoiceDisplay	1	0.686	1	1
27	372.99	0.914	control-noreward	ChosenDisplay		0.0		
27	373.89	0.25	control-noreward	TurnDisplay				
27	374.14	0.75	control-noreward	OutcomeDisplay				
28	374.89		loss-reward	ImageDisplay1		0.0		
28	377.14	0.75	loss-reward	StartDisplay				
28	377.89		loss-reward	ImageDisplay2		0.0		
28	380.89	1.6	loss-reward	ChoiceDisplay		0.0		
28	382.49	0.0	loss-reward	ChosenDisplay		0.0		
28	382.506	0.25	loss-reward	TurnDisplay				
28	382.74	0.75	loss-reward	OutcomeDisplay				
29	383.49		win-reward	ImageDisplay1		0.0		
29	385.739	0.75	win-reward	StartDisplay				
29	386.489		win-reward	ImageDisplay2		0.0		
29	389.489	1.6	win-reward	ChoiceDisplay	1	0.338	1	1
29	389.839	1.262	win-reward	ChosenDisplay		0.0		
29	391.089	0.25	win-reward	TurnDisplay				
29	391.339	0.75	win-reward	OutcomeDisplay				
30	392.089		loss-reward	ImageDisplay1		0.0		
30	394.089	0.75	loss-reward	StartDisplay				
30	394.839		loss-reward	ImageDisplay2		0.0		
30	398.089	1.6	loss-reward	ChoiceDisplay	1	0.652	1	1
30	398.756	0.948	loss-reward	ChosenDisplay		0.0		
30	399.689	0.25	loss-reward	TurnDisplay				
30	399.939	0.75	loss-reward	OutcomeDisplay				
31	400.689		loss-noreward	ImageDisplay1		0.0		
31	402.939	0.75	loss-noreward	StartDisplay				
31	403.689		loss-noreward	ImageDisplay2		0.0		
31	406.689	1.6	loss-noreward	ChoiceDisplay	1	0.524	1	1
31	407.239	1.076	loss-noreward	ChosenDisplay		0.0		
31	408.289	0.25	loss-noreward	TurnDisplay				
31	408.539	0.75	loss-noreward	OutcomeDisplay				
32	409.289		loss-noreward	ImageDisplay1		0.0		
32	411.289	0.75	loss-noreward	StartDisplay				
32	412.039		loss-noreward	ImageDisplay2		0.0		
32	415.289	1.6	loss-noreward	ChoiceDisplay	1	0.538	1	1
32	415.839	1.062	loss-noreward	ChosenDisplay		0.0		
32	416.889	0.25	loss-noreward	TurnDisplay				
32	417.139	0.75	loss-noreward	OutcomeDisplay				
33	417.889		control-reward	ImageDisplay1		0.0		
33	419.889	0.75	control-reward	StartDisplay				
33	420.639		control-reward	ImageDisplay2		0.0		
33	423.889	1.6	control-reward	ChoiceDisplay	1	1.141	1	1
33	425.055	0.459	control-reward	ChosenDisplay		0.0		
33	425.489	0.25	control-reward	TurnDisplay				
33	425.739	0.75	control-reward	OutcomeDisplay				
34	426.489		control-noreward	ImageDisplay1		0.0		
34	428.488	0.75	control-noreward	StartDisplay				
34	429.238		control-noreward	ImageDisplay2		0.0		
34	432.488	1.6	control-noreward	ChoiceDisplay		0.0		
34	434.088	0.0	control-noreward	ChosenDisplay		0.0		
34	434.105	0.25	control-noreward	TurnDisplay				
34	434.338	0.75	control-noreward	OutcomeDisplay				
35	435.088		win-reward	ImageDisplay1		0.0		
35	437.338	0.75	win-reward	StartDisplay				
35	438.088		win-reward	ImageDisplay2		0.0		
35	441.088	1.6	win-reward	ChoiceDisplay	1	1.241	1	1
35	442.355	0.359	win-reward	ChosenDisplay		0.0		
35	442.688	0.25	win-reward	TurnDisplay				
35	442.938	0.75	win-reward	OutcomeDisplay				
36	443.688		win-noreward	ImageDisplay1		0.0		
36	445.938	0.75	win-noreward	StartDisplay				
36	446.688		win-noreward	ImageDisplay2		0.0		
36	449.688	1.6	win-noreward	ChoiceDisplay	1	1.123	1	1
36	450.838	0.477	win-noreward	ChosenDisplay		0.0		
36	451.288	0.25	win-noreward	TurnDisplay				
36	451.538	0.75	win-noreward	OutcomeDisplay				
37	452.288		loss-noreward	ImageDisplay1		0.0		
37	454.538	0.75	loss-noreward	StartDisplay				
37	455.288		loss-noreward	ImageDisplay2		0.0		
37	458.288	1.6	loss-noreward	ChoiceDisplay	1	0.765	1	1
37	459.071	0.835	loss-noreward	ChosenDisplay		0.0		
37	459.888	0.25	loss-noreward	TurnDisplay				
37	460.138	0.75	loss-noreward	OutcomeDisplay				
38	460.888		loss-noreward	ImageDisplay1		0.0		
38	462.888	0.75	loss-noreward	StartDisplay				
38	463.638		loss-noreward	ImageDisplay2		0.0		
38	466.888	1.6	loss-noreward	ChoiceDisplay	1	1.051	1	1
38	467.954	0.549	loss-noreward	ChosenDisplay		0.0		
38	468.488	0.25	loss-noreward	TurnDisplay				
38	468.738	0.75	loss-noreward	OutcomeDisplay				
39	469.488		control-reward	ImageDisplay1		0.0		
39	471.488	0.75	control-reward	StartDisplay				
39	472.237		control-reward	ImageDisplay2		0.0		
39	475.487	1.6	control-reward	ChoiceDisplay	1	0.697	1	1
39	476.204	0.903	control-reward	ChosenDisplay		0.0		
39	477.087	0.25	control-reward	TurnDisplay				
39	477.337	0.75	control-reward	OutcomeDisplay				
40	478.087		control-reward	ImageDisplay1		0.0		
40	480.337	0.75	control-reward	StartDisplay				
40	481.087		control-reward	ImageDisplay2		0.0		
40	484.087	1.6	control-reward	ChoiceDisplay	1	0.524	1	1
40	484.637	1.076	control-reward	ChosenDisplay		0.0		
40	485.687	0.25	control-reward	TurnDisplay				
40	485.937	0.75	control-reward	OutcomeDisplay				
41	486.687		win-reward	ImageDisplay1		0.0		
41	488.687	0.75	win-reward	StartDisplay				
41	489.437		win-reward	ImageDisplay2		0.0		
41	492.687	1.6	win-reward	ChoiceDisplay	1	0.801	1	1
41	493.504	0.799	win-reward	ChosenDisplay		0.0		
41	494.287	0.25	win-reward	TurnDisplay				
41	494.537	0.75	win-reward	OutcomeDisplay				
42	495.287		win-reward	ImageDisplay1		0.0		
42	497.287	0.75	win-reward	StartDisplay				
42	498.037		win-reward	ImageDisplay2		0.0		
42	501.287	1.6	win-reward	ChoiceDisplay	1	1.123	1	1
42	502.437	0.477	win-reward	ChosenDisplay		0.0		
42	502.887	0.25	win-reward	TurnDisplay				
42	503.137	0.75	win-reward	OutcomeDisplay				
43	503.887		loss-reward	ImageDisplay1		0.0		
43	505.887	0.75	loss-reward	StartDisplay				
43	506.637		loss-reward	ImageDisplay2		0.0		
43	509.887	1.6	loss-reward	ChoiceDisplay	1	0.507	1	1
43	510.42	1.093	loss-reward	ChosenDisplay		0.0		
43	511.487	0.25	loss-reward	TurnDisplay				
43	511.737	0.75	loss-reward	OutcomeDisplay				
44	512.487		win-noreward	ImageDisplay1		0.0		
44	514.736	0.75	win-noreward	StartDisplay				
44	515.486		win-noreward	ImageDisplay2		0.0		
44	518.486	1.6	win-noreward	ChoiceDisplay	1	0.385	1	1
44	518.886	1.215	win-noreward	ChosenDisplay		0.0		
44	520.086	0.25	win-noreward	TurnDisplay				
44	520.336	0.75	win-noreward	OutcomeDisplay				
45	521.086		control-noreward	ImageDisplay1		0.0		
45	523.336	0.75	control-noreward	StartDisplay				
45	524.086		control-noreward	ImageDisplay2		0.0		
45	527.086	1.6	control-noreward	ChoiceDisplay		0.0		
45	528.686	0.0	control-noreward	ChosenDisplay		0.0		
45	528.703	0.25	control-noreward	TurnDisplay				
45	528.936	0.75	control-noreward	OutcomeDisplay				
46	529.686		loss-reward	ImageDisplay1		0.0		
46	531.686	0.75	loss-reward	StartDisplay				
46	532.436		loss-reward	ImageDisplay2		0.0		
46	535.686	1.6	loss-reward	ChoiceDisplay	1	0.355	1	1
46	536.053	1.245	loss-reward	ChosenDisplay		0.0		
46	537.286	0.25	loss-reward	TurnDisplay				
46	537.536	0.75	loss-reward	OutcomeDisplay				
47	538.286		win-reward	ImageDisplay1		0.0		
47	540.536	0.75	win-reward	StartDisplay				
47	541.286		win-reward	ImageDisplay2		0.0		
47	544.286	1.6	win-reward	ChoiceDisplay	1	0.587	1	1
47	544.886	1.013	win-reward	ChosenDisplay		0.0		
47	545.886	0.25	win-reward	TurnDisplay				
47	546.136	0.75	win-reward	OutcomeDisplay				
48	546.886		win-noreward	ImageDisplay1		0.0		
48	548.886	0.75	win-noreward	StartDisplay				
48	549.636		win-noreward	ImageDisplay2		0.0		
48	552.886	1.6	win-noreward	ChoiceDisplay	1	0.628	1	1
48	553.536	0.972	win-noreward	ChosenDisplay		0.0		
48	554.486	0.25	win-noreward	TurnDisplay				
48	554.736	0.75	win-noreward	OutcomeDisplay				
49	555.486		control-reward	ImageDisplay1		0.0		
49	557.735	0.75	control-reward	StartDisplay				
49	558.485		control-reward	ImageDisplay2		0.0		
49	561.485	1.6	control-reward	ChoiceDisplay	1	0.304	1	1
49	561.802	1.296	control-reward	ChosenDisplay		0.0		
49	563.085	0.25	control-reward	TurnDisplay				
49	563.335	0.75	control-reward	OutcomeDisplay				
50	564.085		control-reward	ImageDisplay1		0.0		
50	566.085	0.75	control-reward	StartDisplay				
50	566.835		control-reward	ImageDisplay2		0.0		
50	570.085	1.6	control-reward	ChoiceDisplay	1	0.799	1	1
50	570.902	0.801	control-reward	ChosenDisplay		0.0		
50	571.685	0.25	control-reward	TurnDisplay				
50	571.935	0.75	control-reward	OutcomeDisplay				
51	572.685		control-noreward	ImageDisplay1		0.0		
51	574.935	0.75	control-noreward	StartDisplay				
51	575.685		control-noreward	ImageDisplay2		0.0		
51	578.685	1.6	control-noreward	ChoiceDisplay	1	1.326	1	1
51	580.035	0.274	control-noreward	ChosenDisplay		0.0		
51	580.285	0.25	control-noreward	TurnDisplay				
51	580.535	0.75	control-noreward	OutcomeDisplay				
52	581.285		win-reward	ImageDisplay1		0.0		
52	583.285	0.75	win-reward	StartDisplay				
52	584.035		win-reward	ImageDisplay2		0.0		
52	587.285	1.6	win-reward	ChoiceDisplay	1	0.32	1	1
52	587.618	1.28	win-reward	ChosenDisplay		0.0		
52	588.885	0.25	win-reward	TurnDisplay				
52	589.135	0.75	win-reward	OutcomeDisplay				
53	589.885		control-reward	ImageDisplay1		0.0		
53	592.135	0.75	control-reward	StartDisplay				
53	592.885		control-reward	ImageDisplay2		0.0		
53	595.885	1.6	control-reward	ChoiceDisplay	1	0.293	1	1
53	596.201	1.307	control-reward	ChosenDisplay		0.0		
53	597.485	0.25	control-reward	TurnDisplay				
53	597.735	0.75	control-reward	OutcomeDisplay				
54	598.485		control-reward	ImageDisplay1		0.0		
54	600.484	0.75	control-reward	StartDisplay				
54	601.234		control-reward	ImageDisplay2		0.0		
54	604.484	1.6	control-reward	ChoiceDisplay	1	0.379	1	1
54	604.884	1.221	control-reward	ChosenDisplay		0.0		
54	606.084	0.25	control-reward	TurnDisplay				
54	606.334	0.75	control-reward	OutcomeDisplay				
55	607.084		win-reward	ImageDisplay1		0.0		
55	609.084	0.75	win-reward	StartDisplay				
55	609.834		win-reward	ImageDisplay2		0.0		
55	613.084	1.6	win-reward	ChoiceDisplay	1	0.502	1	1
55	613.601	1.098	win-reward	ChosenDisplay		0.0		
55	614.684	0.25	win-reward	TurnDisplay				
55	614.934	0.75	win-reward	OutcomeDisplay				
56	615.684		control-noreward	ImageDisplay1		0.0		
56	617.934	0.75	control-noreward	StartDisplay				
56	618.684		control-noreward	ImageDisplay2		0.0		
56	621.684	1.6	control-noreward	ChoiceDisplay	1	0.6	1	1
56	622.301	1.0	control-noreward	ChosenDisplay		0.0		
56	623.284	0.25	control-noreward	TurnDisplay				
56	623.534	0.75	control-noreward	OutcomeDisplay				
57	624.284		loss-reward	ImageDisplay1		0.0		
57	626.534	0.75	loss-reward	StartDisplay				
57	627.284		loss-reward	ImageDisplay2		0.0		
57	630.284	1.6	loss-reward	ChoiceDisplay	1	0.514	1	1
57	630.817	1.086	loss-reward	ChosenDisplay		0.0		
57	631.884	0.25	loss-reward	TurnDisplay				
57	632.134	0.75	loss-reward	OutcomeDisplay				
58	632.884		control-reward	ImageDisplay1		0.0		
58	634.884	0.75	control-reward	StartDisplay				
58	635.634		control-reward	ImageDisplay2		0.0		
58	638.884	1.6	control-reward	ChoiceDisplay	1	0.303	1	1
58	639.2	1.297	control-reward	ChosenDisplay		0.0		
58	640.484	0.25	control-reward	TurnDisplay				
58	640.734	0.75	control-reward	OutcomeDisplay				
59	641.484		win-reward	ImageDisplay1		0.0		
59	643.733	0.75	win-reward	StartDisplay				
59	644.483		win-reward	ImageDisplay2		0.0		
59	647.483	1.6	win-reward	ChoiceDisplay	1	0.349	1	1
59	647.85	1.251	win-reward	ChosenDisplay		0.0		
59	649.083	0.25	win-reward	TurnDisplay				
59	649.333	0.75	win-reward	OutcomeDisplay				
60	650.083		win-noreward	ImageDisplay1		0.0		
60	652.333	0.75	win-noreward	StartDisplay				
60	653.083		win-noreward	ImageDisplay2		0.0		
60	656.083	1.6	win-noreward	ChoiceDisplay	1	0.642	1	1
60	656.75	0.958	win-noreward	ChosenDisplay		0.0		
60	657.683	0.25	win-noreward	TurnDisplay				
60	657.933	0.75	win-noreward	OutcomeDisplay				
61	658.683		win-reward	ImageDisplay1		0.0		
61	660.683	0.75	win-reward	StartDisplay				
61	661.433		win-reward	ImageDisplay2		0.0		
61	664.683	1.6	win-reward	ChoiceDisplay	1	0.611	1	1
61	665.316	0.989	win-reward	ChosenDisplay		0.0		
61	666.283	0.25	win-reward	TurnDisplay				
61	666.533	0.75	win-reward	OutcomeDisplay				
62	667.283		control-reward	ImageDisplay1		0.0		
62	669.533	0.75	control-reward	StartDisplay				
62	670.283		control-reward	ImageDisplay2		0.0		
62	673.283	1.6	control-reward	ChoiceDisplay	1	0.573	1	1
62	673.883	1.027	control-reward	ChosenDisplay		0.0		
62	674.883	0.25	control-reward	TurnDisplay				
62	675.133	0.75	control-reward	OutcomeDisplay				
63	675.883		win-noreward	ImageDisplay1		0.0		
63	677.883	0.75	win-noreward	StartDisplay				
63	678.633		win-noreward	ImageDisplay2		0.0		
63	681.883	1.6	win-noreward	ChoiceDisplay	1	1.057	1	1
63	682.966	0.543	win-noreward	ChosenDisplay		0.0		
63	683.483	0.25	win-noreward	TurnDisplay				
63	683.733	0.75	win-noreward	OutcomeDisplay				
64	684.483		control-noreward	ImageDisplay1		0.0		
64	686.483	0.75	control-noreward	StartDisplay				
64	687.232		control-noreward	ImageDisplay2		0.0		
64	690.482	1.6	control-noreward	ChoiceDisplay	1	0.914	1	1
64	691.416	0.686	control-noreward	ChosenDisplay		0.0		
64	692.082	0.25	control-noreward	TurnDisplay				
64	692.332	0.75	control-noreward	OutcomeDisplay				
65	693.082		control-noreward	ImageDisplay1		0.0		
65	695.082	0.75	control-noreward	StartDisplay				
65	695.832		control-noreward	ImageDisplay2		0.0		
65	699.082	1.6	control-noreward	ChoiceDisplay	1	0.594	1	1
65	699.699	1.006	control-noreward	ChosenDisplay		0.0		
65	700.682	0.25	control-noreward	TurnDisplay				
65	700.932	0.75	control-noreward	OutcomeDisplay				
66	701.682		loss-reward	ImageDisplay1		0.0		
66	703.682	0.75	loss-reward	StartDisplay				
66	704.432		loss-reward	ImageDisplay2		0.0		
66	707.682	1.6	loss-reward	ChoiceDisplay	1	0.18	1	1
66	707.882	1.42	loss-reward	ChosenDisplay		0.0		
66	709.282	0.25	loss-reward	TurnDisplay				
66	709.532	0.75	loss-reward	OutcomeDisplay				
67	710.282		loss-noreward	ImageDisplay1		0.0		
67	712.532	0.75	loss-noreward	StartDisplay				
67	713.282		loss-noreward	ImageDisplay2		0.0		
67	716.282	1.6	loss-noreward	ChoiceDisplay	1	0.317	1	1
67	716.615	1.283	loss-noreward	ChosenDisplay		0.0		
67	717.882	0.25	loss-noreward	TurnDisplay				
67	718.132	0.75	loss-noreward	OutcomeDisplay				
68	718.882		loss-noreward	ImageDisplay1		0.0		
68	720.882	0.75	loss-noreward	StartDisplay				
68	721.632		loss-noreward	ImageDisplay2		0.0		
68	724.882	1.6	loss-noreward	ChoiceDisplay	1	0.398	1	1
68	725.298	1.202	loss-noreward	ChosenDisplay		0.0		
68	726.482	0.25	loss-noreward	TurnDisplay				
68	726.732	0.75	loss-noreward	OutcomeDisplay				
69	727.482		loss-reward	ImageDisplay1		0.0		
69	729.482	0.75	loss-reward	StartDisplay				
69	730.231		loss-reward	ImageDisplay2		0.0		
69	733.481	1.6	loss-reward	ChoiceDisplay	1	0.923	1	1
69	734.431	0.677	loss-reward	ChosenDisplay		0.0		
69	735.081	0.25	loss-reward	TurnDisplay				
69	735.331	0.75	loss-reward	OutcomeDisplay				
70	736.081		control-reward	ImageDisplay1		0.0		
70	738.081	0.75	control-reward	StartDisplay				
70	738.831		control-reward	ImageDisplay2		0.0		
70	742.081	1.6	control-reward	ChoiceDisplay		0.0		
70	743.681	0.0	control-reward	ChosenDisplay		0.0		
70	743.698	0.25	control-reward	TurnDisplay				
70	743.931	0.75	control-reward	OutcomeDisplay				
71	744.681		loss-reward	ImageDisplay1		0.0		
71	746.931	0.75	loss-reward	StartDisplay				
71	747.681		loss-reward	ImageDisplay2		0.0		
71	750.681	1.6	loss-reward	ChoiceDisplay	1	0.246	1	1
71	750.948	1.354	loss-reward	ChosenDisplay		0.0		
71	752.281	0.25	loss-reward	TurnDisplay				
71	752.531	0.75	loss-reward	OutcomeDisplay				
72	753.281		win-noreward	ImageDisplay1		0.0		
72	755.531	0.75	win-noreward	StartDisplay				
72	756.281		win-noreward	ImageDisplay2		0.0		
72	759.281	1.6	win-noreward	ChoiceDisplay	1	0.67	1	1
72	759.964	0.93	win-noreward	ChosenDisplay		0.0		
72	760.881	0.25	win-noreward	TurnDisplay				
72	761.131	0.75	win-noreward	OutcomeDisplay				
73	761.881		win-reward	ImageDisplay1		0.0		
73	764.131	0.75	win-reward	StartDisplay				
73	764.881		win-reward	ImageDisplay2		0.0		
73	767.881	1.6	win-reward	ChoiceDisplay	1	0.543	1	1
73	768.447	1.057	win-reward	ChosenDisplay		0.0		
73	769.481	0.25	win-reward	TurnDisplay				
73	769.731	0.75	win-reward	OutcomeDisplay				
74	770.481		control-noreward	ImageDisplay1		0.0		
74	772.481	0.75	control-noreward	StartDisplay				
74	773.23		control-noreward	ImageDisplay2		0.0		
74	776.48	1.6	control-noreward	ChoiceDisplay	1	1.336	1	1
74	777.83	0.264	control-noreward	ChosenDisplay		0.0		
74	778.08	0.25	control-noreward	TurnDisplay				
74	778.33	0.75	control-noreward	OutcomeDisplay				
75	779.08		loss-noreward	ImageDisplay1		0.0		
75	781.33	0.75	loss-noreward	StartDisplay				
75	782.081		loss-noreward	ImageDisplay2		0.0		
75	785.08	1.6	loss-noreward	ChoiceDisplay	1	0.56	1	1
75	785.664	1.04	loss-noreward	ChosenDisplay		0.0		
75	786.68	0.25	loss-noreward	TurnDisplay				
75	786.93	0.75	loss-noreward	OutcomeDisplay				
76	787.68		control-reward	ImageDisplay1		0.0		
76	789.93	0.75	control-reward	StartDisplay				
76	790.68		control-reward	ImageDisplay2		0.0		
76	793.68	1.6	control-reward	ChoiceDisplay	1	0.886	1	1
76	794.58	0.714	control-reward	ChosenDisplay		0.0		
76	795.28	0.25	control-reward	TurnDisplay				
76	795.53	0.75	control-reward	OutcomeDisplay				
77	796.28		loss-reward	ImageDisplay1		0.0		
77	798.28	0.75	loss-reward	StartDisplay				
77	799.03		loss-reward	ImageDisplay2		0.0		
77	802.28	1.6	loss-reward	ChoiceDisplay		0.0		
77	803.88	0.0	loss-reward	ChosenDisplay		0.0		
77	803.896	0.25	loss-reward	TurnDisplay				
77	804.13	0.75	loss-reward	OutcomeDisplay				
78	804.88		win-reward	ImageDisplay1		0.0		
78	806.88	0.75	win-reward	StartDisplay				
78	807.63		win-reward	ImageDisplay2		0.0		
78	810.88	1.6	win-reward	ChoiceDisplay	1	0.696	1	1
78	811.596	0.904	win-reward	ChosenDisplay		0.0		
78	812.48	0.25	win-reward	TurnDisplay				
78	812.73	0.75	win-reward	OutcomeDisplay				
79	813.48		control-reward	ImageDisplay1		0.0		
79	815.729	0.75	control-reward	StartDisplay				
79	816.479		control-reward	ImageDisplay2		0.0		
79	819.479	1.6	control-reward	ChoiceDisplay	1	0.674	1	1
79	820.179	0.926	control-reward	ChosenDisplay		0.0		
79	821.079	0.25	control-reward	TurnDisplay				
79	821.329	0.75	control-reward	OutcomeDisplay				
80	822.079		win-reward	ImageDisplay1		0.0		
80	824.329	0.75	win-reward	StartDisplay				
80	825.08		win-reward	ImageDisplay2		0.0		
80	828.079	1.6	win-reward	ChoiceDisplay	1	0.385	1	1
80	828.479	1.215	win-reward	ChosenDisplay		0.0		
80	829.679	0.25	win-reward	TurnDisplay				
80	829.929	0.75	win-reward	OutcomeDisplay				
81	830.679		win-noreward	ImageDisplay1		0.0		
81	832.929	0.75	win-noreward	StartDisplay				
81	833.679		win-noreward	ImageDisplay2		0.0		
81	836.679	1.6	win-noreward	ChoiceDisplay	1	0.651	1	1
81	837.346	0.949	win-noreward	ChosenDisplay		0.0		
81	838.279	0.25	win-noreward	TurnDisplay				
81	838.529	0.75	win-noreward	OutcomeDisplay				
82	839.279		loss-reward	ImageDisplay1		0.0		
82	841.529	0.75	loss-reward	StartDisplay				
82	842.279		loss-reward	ImageDisplay2		0.0		
82	845.279	1.6	loss-reward	ChoiceDisplay	1	0.697	1	1
82	845.995	0.903	loss-reward	ChosenDisplay		0.0		
82	846.879	0.25	loss-reward	TurnDisplay				
82	847.129	0.75	loss-reward	OutcomeDisplay				
83	847.879		control-reward	ImageDisplay1		0.0		
83	850.129	0.75	control-reward	StartDisplay				
83	850.879		control-reward	ImageDisplay2		0.0		
83	853.879	1.6	control-reward	ChoiceDisplay	1	1.492	1	1
83	855.395	0.108	control-reward	ChosenDisplay		0.0		
83	855.479	0.25	control-reward	TurnDisplay				
83	855.729	0.75	control-reward	OutcomeDisplay				
84	856.479		loss-noreward	ImageDisplay1		0.0		
84	858.728	0.75	loss-noreward	StartDisplay				
84	859.478		loss-noreward	ImageDisplay2		0.0		
84	862.478	1.6	loss-noreward	ChoiceDisplay	1	0.584	1	1
84	863.078	1.016	loss-noreward	ChosenDisplay		0.0		
84	864.078	0.25	loss-noreward	TurnDisplay				
84	864.328	0.75	loss-noreward	OutcomeDisplay				
85	865.078		win-noreward	ImageDisplay1		0.0		
85	867.078	0.75	win-noreward	StartDisplay				
85	867.828		win-noreward	ImageDisplay2		0.0		
85	871.078	1.6	win-noreward	ChoiceDisplay	1	0.503	1	1
85	871.595	1.097	win-noreward	ChosenDisplay		0.0		
85	872.678	0.25	win-noreward	TurnDisplay				
85	872.928	0.75	win-noreward	OutcomeDisplay				
86	873.678		loss-noreward	ImageDisplay1		0.0		
86	875.678	0.75	loss-noreward	StartDisplay				
86	876.428		loss-noreward	ImageDisplay2		0.0		
86	879.678	1.6	loss-noreward	ChoiceDisplay	1	0.525	1	1
86	880.228	1.075	loss-noreward	ChosenDisplay		0.0		
86	881.278	0.25	loss-noreward	TurnDisplay				
86	881.528	0.75	loss-noreward	OutcomeDisplay				
87	882.278		loss-reward	ImageDisplay1		0.0		
87	884.278	0.75	loss-reward	StartDisplay				
87	885.028		loss-reward	ImageDisplay2		0.0		
87	888.278	1.6	loss-reward	ChoiceDisplay	1	0.541	1	1
87	888.844	1.059	loss-reward	ChosenDisplay		0.0		
87	889.878	0.25	loss-reward	TurnDisplay				
87	890.128	0.75	loss-reward	OutcomeDisplay				
88	890.878		loss-reward	ImageDisplay1		0.0		
88	892.878	0.75	loss-reward	StartDisplay				
88	893.628		loss-reward	ImageDisplay2		0.0		
88	896.878	1.6	loss-reward	ChoiceDisplay	1	0.621	1	1
88	897.511	0.979	loss-reward	ChosenDisplay		0.0		
88	898.478	0.25	loss-reward	TurnDisplay				
88	898.728	0.75	loss-reward	OutcomeDisplay				
89	899.478		control-noreward	ImageDisplay1		0.0		
89	901.727	0.75	control-noreward	StartDisplay				
89	902.477		control-noreward	ImageDisplay2		0.0		
89	905.477	1.6	control-noreward	ChoiceDisplay	1	0.752	1	1
89	906.244	0.848	control-noreward	ChosenDisplay		0.0		
89	907.077	0.25	control-noreward	TurnDisplay				
89	907.327	0.75	control-noreward	OutcomeDisplay				
90	908.077		win-noreward	ImageDisplay1		0.0		
90	910.327	0.75	win-noreward	StartDisplay				
90	911.077		win-noreward	ImageDisplay2		0.0		
90	914.077	1.6	win-noreward	ChoiceDisplay	1	0.792	1	1
90	914.894	0.808	win-noreward	ChosenDisplay		0.0		
90	915.677	0.25	win-noreward	TurnDisplay				
90	915.927	0.75	win-noreward	OutcomeDisplay				
91	916.677		control-noreward	ImageDisplay1		0.0		
91	918.927	0.75	control-noreward	StartDisplay				
91	919.677		control-noreward	ImageDisplay2		0.0		
91	922.677	1.6	control-noreward	ChoiceDisplay	1	0.233	1	1
91	922.927	1.367	control-noreward	ChosenDisplay		0.0		
91	924.277	0.25	control-noreward	TurnDisplay				
91	924.527	0.75	control-noreward	OutcomeDisplay				
92	925.277		win-noreward	ImageDisplay1		0.0		
92	927.277	0.75	win-noreward	StartDisplay				
92	928.027		win-noreward	ImageDisplay2		0.0		
92	931.277	1.6	win-noreward	ChoiceDisplay	1	0.587	1	1
92	931.877	1.013	win-noreward	ChosenDisplay		0.0		
92	932.877	0.25	win-noreward	TurnDisplay				
92	933.127	0.75	win-noreward	OutcomeDisplay				
93	933.877		loss-reward	ImageDisplay1		0.0		
93	936.127	0.75	loss-reward	StartDisplay				
93	936.877		loss-reward	ImageDisplay2		0.0		
93	939.877	1.6	loss-reward	ChoiceDisplay	1	0.651	1	1
93	940.543	0.949	loss-reward	ChosenDisplay		0.0		
93	941.477	0.25	loss-reward	TurnDisplay				
93	941.727	0.75	loss-reward	OutcomeDisplay				
94	942.477		win-reward	ImageDisplay1		0.0		
94	944.476	0.75	win-reward	StartDisplay				
94	945.226		win-reward	ImageDisplay2		0.0		
94	948.476	1.6	win-reward	ChoiceDisplay	1	0.648	1	1
94	949.143	0.952	win-reward	ChosenDisplay		0.0		
94	950.076	0.25	win-reward	TurnDisplay				
94	950.326	0.75	win-reward	OutcomeDisplay				
95	951.076		loss-reward	ImageDisplay1		0.0		
95	953.326	0.75	loss-reward	StartDisplay				
95	954.076		loss-reward	ImageDisplay2		0.0		
95	957.076	1.6	loss-reward	ChoiceDisplay	1	0.923	1	1
95	958.026	0.677	loss-reward	ChosenDisplay		0.0		
95	958.676	0.25	loss-reward	TurnDisplay				
95	958.926	0.75	loss-reward	OutcomeDisplay				
