onset	duration	trial_type	response_time	stim_file	accuracy
89.667	1.0	go	0.958	Go_X	0.0
92.258	1.0	go	0.512	Go_O	1.0
94.782	1.0	go	0.381	Go_X	1.0
97.307	1.0	go	0.403	Go_O	1.0
99.831	1.0	go	0.366	Go_X	1.0
102.355	1.0	go	0.487	Go_O	1.0
104.879	0.25	stop	0.0	Go_O	1.0
107.403	1.0	go	0.536	Go_O	1.0
109.928	0.3	stop	0.389	Go_X	0.0
112.452	1.0	go	0.667	Go_X	1.0
114.976	1.0	go	0.441	Go_O	1.0
117.5	1.0	go	0.454	Go_X	1.0
120.024	0.25	stop	0.0	Go_O	1.0
122.548	1.0	go	0.436	Go_X	1.0
125.073	1.0	go	0.392	Go_O	1.0
127.597	0.3	stop	0.42	Go_X	0.0
130.121	0.25	stop	0.368	Go_O	0.0
132.645	1.0	go	0.484	Go_O	1.0
135.169	1.0	go	0.598	Go_X	1.0
137.694	0.2	stop	0.0	Go_X	1.0
140.218	1.0	go	0.485	Go_X	1.0
142.742	1.0	go	0.781	Go_O	1.0
145.266	0.25	stop	0.0	Go_O	1.0
147.79	1.0	go	0.44	Go_X	1.0
150.314	1.0	go	0.68	Go_O	1.0
152.839	0.3	stop	0.0	Go_X	1.0
155.363	1.0	go	0.536	Go_O	1.0
157.887	1.0	go	0.487	Go_X	1.0
160.411	0.35	stop	0.469	Go_O	0.0
162.935	1.0	go	0.598	Go_O	1.0
165.46	1.0	go	0.708	Go_X	1.0
167.984	1.0	go	0.563	Go_O	1.0
170.508	1.0	go	0.0	Go_X	0.0
173.032	1.0	go	0.38	Go_O	1.0
175.556	0.3	stop	0.0	Go_X	1.0
178.08	1.0	go	0.525	Go_X	1.0
180.605	1.0	go	0.487	Go_O	1.0
183.129	1.0	go	0.611	Go_X	1.0
185.653	1.0	go	0.403	Go_O	1.0
188.177	1.0	go	0.529	Go_X	1.0
190.701	0.35	stop	0.0	Go_O	1.0
193.226	1.0	go	0.585	Go_O	1.0
195.75	1.0	go	0.789	Go_X	1.0
198.274	1.0	go	0.748	Go_O	1.0
200.798	1.0	go	0.0	Go_X	0.0
203.322	1.0	go	0.513	Go_X	1.0
205.846	1.0	go	0.46	Go_O	1.0
208.371	0.4	stop	0.0	Go_X	1.0
210.895	1.0	go	0.493	Go_O	1.0
213.419	1.0	go	0.528	Go_X	1.0
215.943	0.45	stop	0.492	Go_O	0.0
218.467	1.0	go	0.488	Go_X	1.0
220.992	0.4	stop	0.0	Go_X	1.0
223.516	0.45	stop	0.0	Go_O	1.0
226.04	1.0	go	0.715	Go_O	1.0
228.564	1.0	go	0.584	Go_O	1.0
231.088	1.0	go	0.524	Go_X	1.0
233.612	1.0	go	0.601	Go_O	1.0
236.137	0.5	stop	0.465	Go_X	0.0
238.661	1.0	go	0.51	Go_X	1.0
241.185	0.45	stop	0.456	Go_O	0.0
243.709	1.0	go	0.711	Go_X	1.0
246.233	1.0	go	0.75	Go_O	1.0
248.758	1.0	go	0.654	Go_X	1.0
251.282	1.0	go	0.666	Go_O	1.0
253.806	1.0	go	0.707	Go_X	1.0
256.33	1.0	go	0.724	Go_O	1.0
258.854	1.0	go	0.693	Go_X	1.0
261.378	1.0	go	0.647	Go_O	1.0
263.903	1.0	go	0.774	Go_O	1.0
266.427	0.4	stop	0.0	Go_X	1.0
268.951	1.0	go	0.516	Go_X	1.0
271.475	1.0	go	0.57	Go_O	1.0
273.999	1.0	go	0.66	Go_X	1.0
276.524	0.45	stop	0.0	Go_O	1.0
279.048	1.0	go	0.79	Go_X	1.0
281.572	1.0	go	0.542	Go_O	1.0
284.096	1.0	go	0.582	Go_O	1.0
286.62	1.0	go	0.465	Go_X	1.0
289.144	1.0	go	0.706	Go_X	1.0
291.669	1.0	go	0.507	Go_O	1.0
294.193	0.5	stop	0.449	Go_X	0.0
296.717	1.0	go	0.584	Go_X	1.0
299.241	1.0	go	0.679	Go_O	1.0
301.765	0.45	stop	0.0	Go_O	1.0
304.29	1.0	go	0.477	Go_X	1.0
306.814	1.0	go	0.654	Go_O	1.0
309.338	0.5	stop	0.0	Go_X	1.0
311.862	1.0	go	0.646	Go_X	1.0
314.386	0.55	stop	0.743	Go_O	0.0
316.911	1.0	go	0.0	Go_O	0.0
319.435	1.0	go	0.562	Go_O	1.0
321.959	1.0	go	0.524	Go_X	1.0
324.483	1.0	go	0.537	Go_X	1.0
327.007	1.0	go	0.509	Go_O	1.0
329.531	0.5	stop	0.446	Go_X	0.0
332.056	0.45	stop	0.359	Go_O	0.0
334.58	1.0	go	0.586	Go_X	1.0
337.104	1.0	go	0.883	Go_O	1.0
339.628	0.4	stop	0.0	Go_X	1.0
342.152	1.0	go	0.881	Go_O	1.0
344.677	1.0	go	0.77	Go_X	1.0
347.201	1.0	go	0.0	Go_X	0.0
349.725	1.0	go	0.507	Go_O	1.0
352.249	1.0	go	0.879	Go_X	0.0
354.773	1.0	go	0.413	Go_O	1.0
357.297	0.45	stop	0.0	Go_O	1.0
359.822	1.0	go	0.695	Go_X	1.0
362.346	1.0	go	0.0	Go_O	0.0
364.87	1.0	go	0.907	Go_X	1.0
367.394	1.0	go	0.975	Go_O	0.0
369.918	1.0	go	0.787	Go_X	1.0
372.443	0.5	stop	0.0	Go_X	1.0
374.967	1.0	go	0.441	Go_O	1.0
377.491	1.0	go	0.0	Go_X	0.0
380.015	1.0	go	0.569	Go_O	1.0
382.539	1.0	go	0.546	Go_O	1.0
385.063	0.55	stop	0.522	Go_O	0.0
387.588	1.0	go	0.489	Go_X	1.0
390.112	1.0	go	0.467	Go_X	1.0
392.636	0.5	stop	0.6	Go_X	0.0
395.16	1.0	go	0.487	Go_O	1.0
397.684	0.45	stop	0.0	Go_O	1.0
400.209	1.0	go	0.467	Go_X	1.0
402.733	1.0	go	0.954	Go_O	1.0
405.257	1.0	go	0.9	Go_X	1.0
407.781	1.0	go	0.524	Go_O	1.0
410.305	1.0	go	0.743	Go_X	1.0
412.829	1.0	go	0.534	Go_O	1.0
415.354	1.0	go	0.64	Go_X	1.0
417.878	0.5	stop	0.783	Go_X	0.0
420.402	1.0	go	0.386	Go_O	1.0
422.926	1.0	go	0.566	Go_O	1.0
425.45	1.0	go	0.524	Go_X	1.0
427.975	0.45	stop	0.426	Go_O	0.0
430.499	1.0	go	0.0	Go_O	0.0
433.023	1.0	go	0.337	Go_X	1.0
435.547	1.0	go	0.92	Go_X	1.0
438.071	1.0	go	0.555	Go_O	1.0
440.595	0.4	stop	0.502	Go_X	0.0
443.12	1.0	go	0.521	Go_X	1.0
445.644	1.0	go	0.468	Go_O	1.0
448.168	0.35	stop	0.0	Go_O	1.0
450.692	1.0	go	0.723	Go_X	1.0
453.216	1.0	go	0.5	Go_O	1.0
455.741	0.4	stop	0.0	Go_X	1.0
458.265	1.0	go	0.591	Go_X	1.0
460.789	1.0	go	0.553	Go_O	1.0
463.313	0.45	stop	0.573	Go_O	0.0
465.837	1.0	go	0.572	Go_O	1.0
468.361	1.0	go	0.802	Go_X	1.0
470.886	1.0	go	0.857	Go_O	1.0
473.41	1.0	go	0.978	Go_X	1.0
475.934	1.0	go	0.652	Go_O	1.0
478.458	1.0	go	0.0	Go_X	0.0
480.982	0.4	stop	0.605	Go_X	0.0
483.507	1.0	go	0.441	Go_X	1.0
486.031	0.35	stop	0.437	Go_O	0.0
488.555	1.0	go	0.631	Go_O	1.0
491.079	1.0	go	0.0	Go_X	0.0
493.603	1.0	go	0.746	Go_O	1.0
496.127	1.0	go	0.718	Go_O	1.0
498.652	1.0	go	0.778	Go_X	1.0
501.176	0.3	stop	0.593	Go_X	0.0
503.7	1.0	go	0.523	Go_O	1.0
506.224	1.0	go	0.723	Go_X	1.0
508.748	1.0	go	0.464	Go_O	1.0
511.273	0.25	stop	0.0	Go_O	1.0
513.797	0.3	stop	0.439	Go_X	0.0
516.321	0.25	stop	0.0	Go_O	1.0
518.845	1.0	go	0.0	Go_X	0.0
521.369	0.3	stop	0.584	Go_X	0.0
523.893	1.0	go	0.544	Go_O	1.0
526.418	1.0	go	0.549	Go_X	1.0
528.942	1.0	go	0.609	Go_X	1.0
531.466	1.0	go	0.711	Go_O	1.0
533.99	1.0	go	0.416	Go_X	1.0
536.514	1.0	go	0.388	Go_O	1.0
539.039	1.0	go	0.35	Go_O	0.0
541.563	1.0	go	0.368	Go_X	1.0
544.087	0.25	stop	0.286	Go_O	0.0
546.611	1.0	go	0.468	Go_X	1.0
549.135	1.0	go	0.363	Go_O	1.0
551.659	0.2	stop	0.38	Go_X	0.0
554.184	1.0	go	0.432	Go_X	1.0
556.708	1.0	go	0.51	Go_O	1.0
559.232	1.0	go	0.0	Go_X	0.0
561.756	1.0	go	0.389	Go_O	1.0
564.28	1.0	go	0.66	Go_X	1.0
566.805	0.15	stop	0.378	Go_O	0.0
569.329	1.0	go	0.704	Go_O	1.0
571.853	1.0	go	0.253	Go_O	0.0
574.377	1.0	go	0.305	Go_X	1.0
576.901	0.1	stop	0.0	Go_X	1.0
579.425	1.0	go	0.605	Go_X	1.0
581.95	0.15	stop	0.0	Go_O	1.0
584.474	1.0	go	0.386	Go_O	1.0
586.998	1.0	go	0.615	Go_O	1.0
589.522	1.0	go	0.0	Go_X	0.0
592.046	1.0	go	0.316	Go_X	1.0
594.571	1.0	go	0.463	Go_O	1.0
597.095	1.0	go	0.458	Go_O	1.0
599.619	1.0	go	0.0	Go_X	0.0
602.143	0.2	stop	0.0	Go_X	1.0
604.667	1.0	go	0.483	Go_X	1.0
607.191	1.0	go	0.616	Go_O	1.0
609.716	1.0	go	0.462	Go_O	1.0
612.24	1.0	go	0.504	Go_X	1.0
614.764	0.25	stop	0.0	Go_O	1.0
617.288	1.0	go	0.588	Go_O	1.0
619.812	0.3	stop	0.0	Go_X	1.0
622.337	1.0	go	0.585	Go_X	1.0
624.861	1.0	go	0.51	Go_O	1.0
627.385	0.35	stop	0.0	Go_O	1.0
629.909	1.0	go	0.605	Go_X	1.0
632.433	1.0	go	0.443	Go_O	1.0
634.957	1.0	go	0.817	Go_X	1.0
637.482	1.0	go	0.711	Go_X	1.0
640.006	1.0	go	0.36	Go_O	1.0
642.53	1.0	go	0.509	Go_O	1.0
645.054	1.0	go	0.695	Go_X	1.0
647.578	1.0	go	0.326	Go_O	1.0
650.103	1.0	go	0.664	Go_X	1.0
652.627	1.0	go	0.582	Go_X	1.0
655.151	0.4	stop	0.0	Go_X	1.0
657.675	1.0	go	0.322	Go_O	1.0
660.199	1.0	go	0.659	Go_X	1.0
662.724	0.45	stop	0.47	Go_O	0.0
665.248	1.0	go	0.825	Go_O	0.0
667.772	0.4	stop	0.38	Go_X	0.0
670.296	1.0	go	0.806	Go_X	1.0
672.82	1.0	go	0.595	Go_O	1.0
675.344	0.35	stop	0.0	Go_O	1.0
677.869	1.0	go	0.0	Go_O	0.0
680.393	0.4	stop	0.0	Go_X	1.0
682.917	1.0	go	0.96	Go_X	1.0
685.441	1.0	go	0.816	Go_X	1.0
687.965	1.0	go	0.815	Go_O	1.0
690.49	0.45	stop	0.544	Go_O	0.0
693.014	1.0	go	0.511	Go_X	1.0
695.538	1.0	go	0.653	Go_O	1.0
698.062	1.0	go	0.0	Go_O	0.0
700.586	1.0	go	0.449	Go_X	1.0
703.11	0.4	stop	0.688	Go_X	0.0
705.635	1.0	go	0.979	Go_X	0.0
708.159	1.0	go	0.435	Go_O	1.0
710.683	0.35	stop	0.582	Go_O	0.0
713.207	1.0	go	0.526	Go_O	1.0
715.731	1.0	go	0.288	Go_X	1.0
718.256	1.0	go	0.48	Go_X	1.0
720.78	1.0	go	0.43	Go_O	1.0
723.304	0.3	stop	0.0	Go_X	1.0
725.828	1.0	go	0.502	Go_O	1.0
728.352	0.35	stop	0.0	Go_O	1.0
730.876	1.0	go	0.435	Go_X	1.0
733.401	1.0	go	0.618	Go_X	1.0
735.925	0.4	stop	0.418	Go_X	0.0
738.449	1.0	go	0.406	Go_O	0.0
740.973	1.0	go	0.555	Go_O	1.0
743.497	1.0	go	0.755	Go_X	1.0
746.022	1.0	go	0.371	Go_O	1.0
748.546	0.35	stop	0.0	Go_O	1.0
751.07	1.0	go	0.359	Go_X	1.0
753.594	0.4	stop	0.0	Go_X	1.0
756.118	1.0	go	0.506	Go_X	1.0
758.642	1.0	go	0.293	Go_O	1.0
761.167	1.0	go	0.49	Go_X	1.0
763.691	1.0	go	0.292	Go_O	1.0
766.215	1.0	go	0.528	Go_X	1.0
768.739	1.0	go	0.306	Go_O	1.0
771.263	0.45	stop	0.613	Go_O	0.0
773.788	1.0	go	0.594	Go_O	1.0
776.312	1.0	go	0.425	Go_X	1.0
778.836	0.4	stop	0.66	Go_X	0.0
781.36	1.0	go	0.531	Go_X	1.0
783.884	1.0	go	0.38	Go_O	1.0
786.408	0.35	stop	0.531	Go_O	0.0
788.933	1.0	go	0.447	Go_O	1.0
791.457	1.0	go	0.0	Go_X	0.0
793.981	1.0	go	0.407	Go_X	1.0
796.505	1.0	go	0.448	Go_O	1.0
799.029	0.3	stop	0.0	Go_X	1.0
801.554	1.0	go	0.453	Go_O	1.0
804.078	0.35	stop	0.257	Go_O	0.0
806.602	1.0	go	0.452	Go_X	1.0
809.126	1.0	go	0.331	Go_O	1.0
811.65	1.0	go	0.351	Go_X	1.0
814.174	1.0	go	0.308	Go_O	1.0
816.699	1.0	go	0.604	Go_X	1.0
819.223	0.3	stop	0.0	Go_X	1.0
821.747	1.0	go	0.685	Go_X	1.0
824.271	1.0	go	0.667	Go_O	1.0
826.795	0.35	stop	0.0	Go_O	1.0
829.32	0.4	stop	0.482	Go_X	0.0
831.844	1.0	go	0.332	Go_O	1.0
834.368	1.0	go	0.525	Go_X	1.0
836.892	1.0	go	0.543	Go_O	1.0
839.416	1.0	go	0.76	Go_X	1.0
841.94	0.35	stop	0.0	Go_O	1.0
844.465	1.0	go	0.493	Go_X	1.0
