onset	duration	trial_type	response_time	stim_file	accuracy
39.767	1.0	go	0.67	Go_X	0.0
42.291	1.0	go	0.479	Go_O	1.0
44.815	1.0	go	0.426	Go_X	1.0
47.339	1.0	go	0.452	Go_O	1.0
49.863	1.0	go	0.731	Go_X	1.0
52.388	1.0	go	0.894	Go_O	1.0
54.912	0.25	stop	0.0	Go_O	1.0
57.436	1.0	go	0.57	Go_O	1.0
59.96	0.3	stop	0.0	Go_X	1.0
62.484	1.0	go	0.758	Go_X	1.0
65.009	1.0	go	0.807	Go_O	1.0
67.533	1.0	go	0.818	Go_X	1.0
70.057	0.35	stop	0.0	Go_O	1.0
72.581	1.0	go	0.679	Go_O	1.0
75.105	1.0	go	0.746	Go_X	1.0
77.63	0.4	stop	0.0	Go_X	1.0
80.154	0.45	stop	0.0	Go_O	1.0
82.678	1.0	go	0.713	Go_O	1.0
85.202	1.0	go	0.0	Go_X	0.0
87.726	0.5	stop	0.0	Go_X	1.0
90.251	1.0	go	0.61	Go_O	1.0
92.775	1.0	go	0.816	Go_X	1.0
95.299	0.55	stop	0.698	Go_O	0.0
97.823	1.0	go	0.756	Go_O	1.0
100.347	1.0	go	0.745	Go_X	1.0
102.872	0.5	stop	0.0	Go_X	1.0
105.396	1.0	go	0.567	Go_O	1.0
107.92	1.0	go	0.76	Go_X	1.0
110.444	0.55	stop	0.692	Go_O	0.0
112.968	1.0	go	0.903	Go_O	1.0
115.492	1.0	go	0.73	Go_X	1.0
118.017	1.0	go	0.903	Go_O	1.0
120.541	1.0	go	0.822	Go_X	1.0
123.065	1.0	go	0.661	Go_O	1.0
125.589	0.5	stop	0.0	Go_X	1.0
128.113	1.0	go	0.541	Go_X	1.0
130.638	1.0	go	0.59	Go_X	1.0
133.162	1.0	go	0.696	Go_O	1.0
135.686	1.0	go	0.578	Go_X	1.0
138.21	1.0	go	0.805	Go_O	1.0
140.734	0.55	stop	0.0	Go_O	1.0
143.259	1.0	go	0.691	Go_X	1.0
145.783	1.0	go	0.776	Go_O	1.0
148.307	1.0	go	0.962	Go_X	1.0
150.831	1.0	go	0.644	Go_O	1.0
153.355	1.0	go	0.679	Go_X	1.0
155.88	1.0	go	0.651	Go_O	1.0
158.404	0.6	stop	0.0	Go_X	1.0
160.928	1.0	go	0.859	Go_O	1.0
163.452	1.0	go	0.0	Go_X	0.0
165.976	0.65	stop	0.694	Go_O	0.0
168.5	1.0	go	0.874	Go_O	1.0
171.025	0.6	stop	0.61	Go_X	0.0
173.549	0.55	stop	0.0	Go_O	1.0
176.073	1.0	go	0.626	Go_X	1.0
178.597	1.0	go	0.768	Go_O	1.0
181.121	1.0	go	0.918	Go_X	1.0
183.646	1.0	go	0.934	Go_O	1.0
186.17	0.6	stop	0.0	Go_X	1.0
188.694	1.0	go	0.678	Go_X	1.0
191.218	0.65	stop	0.0	Go_O	1.0
193.742	1.0	go	0.748	Go_O	1.0
196.267	1.0	go	0.0	Go_X	0.0
198.791	1.0	go	0.784	Go_X	1.0
201.315	1.0	go	0.949	Go_O	1.0
203.839	1.0	go	0.412	Go_X	1.0
206.363	1.0	go	0.698	Go_O	1.0
208.888	1.0	go	0.949	Go_O	1.0
211.412	1.0	go	0.789	Go_X	1.0
213.936	1.0	go	0.923	Go_X	1.0
216.46	0.7	stop	0.723	Go_X	0.0
218.984	1.0	go	0.663	Go_O	1.0
221.509	1.0	go	0.77	Go_X	1.0
224.033	1.0	go	0.807	Go_O	1.0
226.557	0.65	stop	0.798	Go_O	0.0
229.081	1.0	go	0.783	Go_X	1.0
231.605	1.0	go	0.657	Go_O	1.0
234.129	1.0	go	0.715	Go_O	1.0
236.654	1.0	go	0.68	Go_X	1.0
239.178	1.0	go	0.918	Go_X	1.0
241.702	1.0	go	0.702	Go_O	1.0
244.226	0.6	stop	0.544	Go_X	0.0
246.75	1.0	go	0.895	Go_X	1.0
249.275	1.0	go	0.691	Go_O	1.0
251.799	0.55	stop	0.0	Go_O	1.0
254.323	1.0	go	0.745	Go_O	1.0
256.847	1.0	go	0.765	Go_X	1.0
259.371	0.6	stop	0.626	Go_X	0.0
261.896	1.0	go	0.76	Go_X	0.0
264.42	0.55	stop	0.0	Go_O	1.0
266.944	1.0	go	0.638	Go_O	1.0
269.468	1.0	go	0.937	Go_X	1.0
271.992	1.0	go	0.0	Go_O	0.0
274.517	1.0	go	0.693	Go_X	1.0
277.041	1.0	go	0.59	Go_O	1.0
279.565	0.6	stop	0.682	Go_X	0.0
282.089	0.55	stop	0.0	Go_O	1.0
284.613	1.0	go	0.446	Go_X	1.0
287.138	1.0	go	0.802	Go_O	1.0
289.662	0.6	stop	0.745	Go_X	0.0
292.186	1.0	go	0.868	Go_X	1.0
294.71	1.0	go	0.814	Go_O	1.0
297.234	1.0	go	0.992	Go_O	1.0
299.758	1.0	go	0.739	Go_X	1.0
302.283	1.0	go	0.816	Go_O	1.0
304.807	1.0	go	0.744	Go_X	1.0
307.331	0.55	stop	0.0	Go_O	1.0
309.855	1.0	go	0.797	Go_X	1.0
312.379	1.0	go	0.682	Go_O	1.0
314.904	1.0	go	0.892	Go_O	1.0
317.428	1.0	go	0.809	Go_X	1.0
319.952	1.0	go	0.803	Go_O	1.0
322.476	0.6	stop	0.0	Go_X	1.0
325.0	1.0	go	0.74	Go_X	1.0
327.525	1.0	go	0.953	Go_O	1.0
330.049	1.0	go	0.91	Go_X	1.0
332.573	1.0	go	0.698	Go_O	1.0
335.097	0.65	stop	0.479	Go_O	0.0
337.621	1.0	go	0.843	Go_X	1.0
340.146	1.0	go	0.68	Go_X	1.0
342.67	0.6	stop	0.767	Go_X	0.0
345.194	1.0	go	0.78	Go_O	1.0
347.718	0.55	stop	0.0	Go_O	1.0
350.242	1.0	go	0.76	Go_X	1.0
352.767	1.0	go	0.887	Go_O	1.0
355.291	1.0	go	0.878	Go_X	1.0
357.815	1.0	go	0.984	Go_O	1.0
360.339	1.0	go	0.929	Go_X	0.0
362.863	1.0	go	0.976	Go_O	1.0
365.387	1.0	go	0.0	Go_X	0.0
367.912	0.6	stop	0.0	Go_X	1.0
370.436	1.0	go	0.768	Go_O	1.0
372.96	1.0	go	0.827	Go_X	1.0
375.484	1.0	go	0.963	Go_O	1.0
378.008	0.65	stop	0.0	Go_O	1.0
380.533	1.0	go	0.807	Go_X	1.0
383.057	1.0	go	0.939	Go_O	1.0
385.581	1.0	go	0.0	Go_X	0.0
388.105	1.0	go	0.754	Go_O	1.0
390.629	0.7	stop	0.752	Go_X	0.0
393.154	1.0	go	0.0	Go_X	0.0
395.678	1.0	go	0.875	Go_O	1.0
398.202	0.65	stop	0.0	Go_O	1.0
400.726	1.0	go	0.706	Go_X	1.0
403.25	1.0	go	0.831	Go_O	1.0
405.775	0.7	stop	0.943	Go_X	0.0
408.299	1.0	go	0.904	Go_O	1.0
410.823	1.0	go	0.779	Go_X	1.0
413.347	0.65	stop	0.759	Go_O	0.0
415.871	1.0	go	0.0	Go_X	0.0
418.396	1.0	go	0.875	Go_O	1.0
420.92	1.0	go	0.812	Go_O	1.0
423.444	1.0	go	0.951	Go_X	1.0
425.968	1.0	go	0.836	Go_O	1.0
428.492	1.0	go	0.819	Go_X	1.0
431.016	0.6	stop	0.809	Go_X	0.0
433.541	1.0	go	0.567	Go_X	1.0
436.065	0.55	stop	0.0	Go_O	1.0
438.589	1.0	go	0.507	Go_O	1.0
441.113	1.0	go	0.652	Go_X	1.0
443.637	1.0	go	0.831	Go_O	1.0
446.162	1.0	go	0.964	Go_X	1.0
448.686	1.0	go	0.843	Go_O	1.0
451.21	0.6	stop	0.0	Go_X	1.0
453.734	1.0	go	0.518	Go_O	1.0
456.258	1.0	go	0.0	Go_X	0.0
458.783	1.0	go	0.0	Go_O	0.0
461.307	0.65	stop	0.789	Go_O	0.0
463.831	0.6	stop	0.0	Go_X	1.0
466.355	0.65	stop	0.858	Go_O	0.0
468.879	1.0	go	0.878	Go_X	1.0
471.404	0.6	stop	0.0	Go_X	1.0
473.928	1.0	go	0.831	Go_X	1.0
476.452	1.0	go	0.805	Go_O	1.0
478.976	1.0	go	0.587	Go_X	1.0
481.5	1.0	go	0.875	Go_O	1.0
484.025	1.0	go	0.937	Go_O	1.0
486.549	1.0	go	0.883	Go_X	1.0
489.073	1.0	go	0.816	Go_X	1.0
491.597	1.0	go	0.0	Go_O	0.0
494.121	0.65	stop	0.69	Go_O	0.0
496.645	1.0	go	0.867	Go_X	1.0
499.17	1.0	go	0.776	Go_O	0.0
501.694	0.6	stop	0.654	Go_X	0.0
504.218	1.0	go	0.55	Go_O	1.0
506.742	1.0	go	0.78	Go_X	1.0
509.266	1.0	go	0.613	Go_X	1.0
511.791	1.0	go	0.884	Go_O	1.0
514.315	1.0	go	0.89	Go_X	1.0
516.839	0.55	stop	0.591	Go_O	0.0
519.363	1.0	go	0.721	Go_O	1.0
521.887	1.0	go	0.919	Go_O	1.0
524.412	1.0	go	0.714	Go_X	1.0
526.936	0.5	stop	0.0	Go_X	1.0
529.46	1.0	go	0.658	Go_X	1.0
531.984	0.55	stop	0.0	Go_O	1.0
534.508	1.0	go	0.831	Go_O	1.0
537.033	1.0	go	0.84	Go_X	1.0
539.557	1.0	go	0.802	Go_O	1.0
542.081	1.0	go	0.863	Go_O	1.0
544.605	1.0	go	0.729	Go_X	1.0
547.129	1.0	go	0.777	Go_X	1.0
549.654	1.0	go	0.819	Go_O	1.0
552.178	0.6	stop	0.0	Go_X	1.0
554.702	1.0	go	0.867	Go_X	1.0
557.226	1.0	go	0.894	Go_O	1.0
559.75	1.0	go	0.0	Go_O	0.0
562.274	1.0	go	0.907	Go_X	1.0
564.799	0.65	stop	0.0	Go_O	1.0
567.323	1.0	go	0.678	Go_X	1.0
569.847	0.7	stop	0.0	Go_X	1.0
572.371	1.0	go	0.956	Go_O	1.0
574.895	1.0	go	0.0	Go_O	0.0
577.42	0.75	stop	0.521	Go_O	0.0
579.944	1.0	go	0.859	Go_X	1.0
582.468	1.0	go	0.636	Go_X	1.0
584.992	1.0	go	0.676	Go_O	1.0
587.516	1.0	go	0.613	Go_O	1.0
590.041	1.0	go	0.854	Go_X	1.0
592.565	1.0	go	0.834	Go_O	1.0
595.089	1.0	go	0.0	Go_X	0.0
597.613	1.0	go	0.682	Go_X	1.0
600.137	1.0	go	0.203	Go_O	1.0
602.662	1.0	go	0.805	Go_X	1.0
605.186	0.7	stop	0.987	Go_X	0.0
607.71	1.0	go	0.886	Go_O	1.0
610.234	1.0	go	0.887	Go_O	1.0
612.758	0.65	stop	0.0	Go_O	1.0
615.283	1.0	go	0.834	Go_X	1.0
617.807	0.7	stop	0.55	Go_X	0.0
620.331	1.0	go	0.7	Go_X	1.0
622.855	1.0	go	0.717	Go_O	1.0
625.379	0.65	stop	0.444	Go_O	0.0
627.903	1.0	go	0.822	Go_O	1.0
630.428	0.6	stop	0.79	Go_X	0.0
632.952	1.0	go	0.87	Go_X	1.0
635.476	1.0	go	0.634	Go_X	1.0
638.0	1.0	go	0.69	Go_O	1.0
640.524	0.55	stop	0.6	Go_O	0.0
643.049	1.0	go	0.747	Go_O	1.0
645.573	1.0	go	0.822	Go_X	1.0
648.097	1.0	go	0.813	Go_X	1.0
650.621	1.0	go	0.83	Go_O	1.0
653.145	0.5	stop	0.0	Go_X	1.0
655.67	1.0	go	0.783	Go_O	1.0
658.194	1.0	go	0.859	Go_X	1.0
660.718	0.55	stop	0.0	Go_O	1.0
663.242	1.0	go	0.697	Go_X	1.0
665.766	1.0	go	0.722	Go_O	1.0
668.291	1.0	go	0.804	Go_X	1.0
670.815	1.0	go	0.655	Go_O	1.0
673.339	0.6	stop	0.797	Go_X	0.0
675.863	1.0	go	0.956	Go_O	1.0
678.387	0.55	stop	0.0	Go_O	1.0
680.912	1.0	go	0.707	Go_X	1.0
683.436	1.0	go	0.863	Go_X	1.0
685.96	0.6	stop	0.0	Go_X	1.0
688.484	1.0	go	0.684	Go_O	1.0
691.008	1.0	go	0.904	Go_X	1.0
693.532	1.0	go	0.0	Go_O	0.0
696.057	1.0	go	0.748	Go_X	0.0
698.581	0.65	stop	0.0	Go_O	1.0
701.105	1.0	go	0.691	Go_O	1.0
703.629	0.7	stop	0.651	Go_X	0.0
706.153	1.0	go	0.888	Go_O	1.0
708.678	1.0	go	0.826	Go_X	1.0
711.202	1.0	go	0.878	Go_O	1.0
713.726	1.0	go	0.763	Go_X	1.0
716.25	1.0	go	0.684	Go_O	1.0
718.774	1.0	go	0.751	Go_X	0.0
721.299	0.65	stop	0.842	Go_O	0.0
723.823	1.0	go	0.913	Go_X	1.0
726.347	1.0	go	0.764	Go_O	1.0
728.871	0.6	stop	0.0	Go_X	1.0
731.395	1.0	go	0.821	Go_O	1.0
733.92	1.0	go	0.976	Go_X	1.0
736.444	0.65	stop	0.0	Go_O	1.0
738.968	1.0	go	0.865	Go_O	1.0
741.492	1.0	go	0.0	Go_X	0.0
744.016	1.0	go	0.936	Go_X	1.0
746.541	1.0	go	0.0	Go_O	0.0
749.065	0.7	stop	0.0	Go_X	1.0
751.589	1.0	go	0.737	Go_O	1.0
754.113	0.75	stop	0.0	Go_O	1.0
756.637	1.0	go	0.0	Go_X	0.0
759.161	1.0	go	0.885	Go_X	1.0
761.686	1.0	go	0.819	Go_O	1.0
764.21	1.0	go	0.732	Go_X	1.0
766.734	1.0	go	0.55	Go_O	1.0
769.258	0.8	stop	0.663	Go_X	0.0
771.782	1.0	go	0.889	Go_O	1.0
774.307	1.0	go	0.665	Go_X	1.0
776.831	0.75	stop	0.531	Go_O	0.0
779.355	0.7	stop	0.803	Go_X	0.0
781.879	1.0	go	0.99	Go_O	1.0
784.403	1.0	go	0.879	Go_X	1.0
786.928	1.0	go	0.878	Go_X	1.0
789.452	1.0	go	0.768	Go_O	1.0
791.976	0.65	stop	0.828	Go_O	0.0
794.5	1.0	go	0.824	Go_O	1.0
