onset	duration	trial_type	response_time	stim_file	accuracy
100.855	1.0	go	0.0	Go_X	0.0
103.379	1.0	go	0.462	Go_O	1.0
105.904	1.0	go	0.31	Go_X	1.0
108.428	1.0	go	0.373	Go_O	1.0
110.952	1.0	go	0.304	Go_X	1.0
113.476	1.0	go	0.317	Go_O	1.0
116.0	0.25	stopfail	0.367	Go_O	0.0
118.525	1.0	go	0.355	Go_X	1.0
121.049	0.2	stopfail	0.341	Go_X	0.0
123.573	1.0	go	0.387	Go_O	1.0
126.097	1.0	go	0.411	Go_O	1.0
128.622	1.0	go	0.487	Go_X	1.0
131.146	0.15	stopsuccess	0.0	Go_O	1.0
133.67	1.0	go	0.532	Go_O	1.0
136.194	1.0	go	0.485	Go_X	1.0
138.718	0.2	stopsuccess	0.0	Go_X	1.0
141.243	0.25	stopsuccess	0.0	Go_O	1.0
143.767	1.0	go	0.556	Go_O	1.0
146.291	1.0	go	0.561	Go_X	1.0
148.815	0.3	stopsuccess	0.0	Go_X	1.0
151.34	1.0	go	0.568	Go_O	1.0
153.864	1.0	go	0.735	Go_X	1.0
156.388	0.35	stopfail	0.464	Go_O	0.0
158.912	1.0	go	0.467	Go_X	1.0
161.436	1.0	go	0.544	Go_O	1.0
163.961	0.3	stopsuccess	0.0	Go_X	1.0
166.485	1.0	go	0.545	Go_O	1.0
169.009	1.0	go	0.58	Go_X	1.0
171.533	0.35	stopfail	0.432	Go_O	0.0
174.058	1.0	go	0.491	Go_O	1.0
176.582	1.0	go	0.562	Go_X	1.0
179.106	1.0	go	0.463	Go_O	1.0
181.63	1.0	go	0.532	Go_X	1.0
184.154	1.0	go	0.583	Go_O	1.0
186.679	0.3	stopsuccess	0.0	Go_X	1.0
189.203	1.0	go	0.525	Go_X	1.0
191.727	1.0	go	0.541	Go_O	1.0
194.251	1.0	go	0.507	Go_X	1.0
196.776	1.0	go	0.572	Go_X	1.0
199.3	1.0	go	0.521	Go_O	1.0
201.824	0.35	stopsuccess	0.0	Go_O	1.0
204.348	1.0	go	0.472	Go_X	1.0
206.872	1.0	go	0.484	Go_O	1.0
209.397	1.0	go	0.491	Go_O	1.0
211.921	1.0	go	0.534	Go_X	1.0
214.445	1.0	go	0.455	Go_O	1.0
216.969	1.0	go	0.472	Go_X	1.0
219.494	0.4	stopfail	0.477	Go_X	0.0
222.018	1.0	go	0.429	Go_X	1.0
224.542	1.0	go	0.612	Go_O	1.0
227.066	0.35	stopfail	0.507	Go_O	0.0
229.591	1.0	go	0.854	Go_O	1.0
232.115	0.3	stopfail	0.423	Go_X	0.0
234.639	0.25	stopsuccess	0.0	Go_O	1.0
237.163	1.0	go	0.55	Go_X	1.0
239.687	1.0	go	0.462	Go_X	1.0
242.212	1.0	go	0.611	Go_O	1.0
244.736	1.0	go	0.641	Go_X	1.0
247.26	0.3	stopsuccess	0.0	Go_X	1.0
249.784	1.0	go	0.509	Go_O	1.0
252.309	0.35	stopsuccess	0.0	Go_O	1.0
254.833	1.0	go	0.604	Go_X	1.0
257.357	1.0	go	0.636	Go_O	1.0
259.881	1.0	go	0.489	Go_O	1.0
262.405	1.0	go	0.484	Go_X	1.0
264.93	1.0	go	0.591	Go_O	1.0
267.454	1.0	go	0.796	Go_X	1.0
269.978	1.0	go	0.456	Go_X	1.0
272.502	1.0	go	0.501	Go_O	1.0
275.027	1.0	go	0.505	Go_O	1.0
277.551	0.4	stopfail	0.461	Go_X	0.0
280.075	1.0	go	0.635	Go_X	1.0
282.599	1.0	go	0.418	Go_X	1.0
285.123	1.0	go	0.482	Go_O	1.0
287.648	0.35	stopfail	0.546	Go_O	0.0
290.172	1.0	go	0.742	Go_X	1.0
292.696	1.0	go	0.587	Go_O	1.0
295.22	1.0	go	0.689	Go_O	1.0
297.745	1.0	go	0.55	Go_X	1.0
300.269	1.0	go	0.607	Go_X	1.0
302.793	1.0	go	0.713	Go_O	1.0
305.317	0.3	stopfail	0.534	Go_X	0.0
307.841	1.0	go	0.537	Go_O	1.0
310.366	1.0	go	0.472	Go_X	1.0
312.89	0.25	stopsuccess	0.0	Go_O	1.0
315.414	1.0	go	0.657	Go_O	1.0
317.938	1.0	go	0.601	Go_X	1.0
320.463	0.3	stopsuccess	0.0	Go_X	1.0
322.987	1.0	go	0.529	Go_X	1.0
325.511	0.35	stopsuccess	0.0	Go_O	1.0
328.035	1.0	go	0.438	Go_O	1.0
330.56	1.0	go	0.43	Go_X	1.0
333.084	1.0	go	0.502	Go_O	1.0
335.608	1.0	go	0.57	Go_X	1.0
338.132	1.0	go	0.549	Go_O	1.0
340.656	0.4	stopfail	0.663	Go_X	0.0
343.181	0.35	stopsuccess	0.0	Go_O	1.0
345.722	1.0	go	0.627	Go_X	1.0
348.246	1.0	go	0.853	Go_O	1.0
350.77	0.4	stopfail	0.43	Go_X	0.0
353.294	1.0	go	0.55	Go_X	1.0
355.818	1.0	go	0.547	Go_O	1.0
358.343	1.0	go	0.747	Go_O	1.0
360.867	1.0	go	0.557	Go_X	1.0
363.391	1.0	go	0.385	Go_O	1.0
365.915	1.0	go	0.525	Go_X	1.0
368.44	0.35	stopsuccess	0.0	Go_O	1.0
370.964	1.0	go	0.395	Go_X	1.0
373.488	1.0	go	0.335	Go_O	1.0
376.012	1.0	go	0.485	Go_O	1.0
378.536	1.0	go	0.415	Go_X	1.0
381.061	1.0	go	0.56	Go_O	1.0
383.585	0.4	stopfail	0.48	Go_X	0.0
386.109	1.0	go	0.696	Go_X	1.0
388.633	1.0	go	0.355	Go_X	1.0
391.158	1.0	go	0.508	Go_O	1.0
393.682	1.0	go	0.512	Go_X	1.0
396.206	0.35	stopfail	0.495	Go_O	0.0
398.73	1.0	go	0.403	Go_O	1.0
401.255	1.0	go	0.456	Go_O	1.0
403.779	0.3	stopfail	0.345	Go_X	0.0
406.303	1.0	go	0.473	Go_X	1.0
408.827	0.25	stopsuccess	0.0	Go_O	1.0
411.351	1.0	go	0.5	Go_O	1.0
413.876	1.0	go	0.602	Go_X	1.0
416.4	1.0	go	0.448	Go_X	1.0
418.924	1.0	go	0.542	Go_O	1.0
421.448	1.0	go	0.475	Go_X	1.0
423.973	1.0	go	0.43	Go_O	1.0
426.497	1.0	go	0.379	Go_X	1.0
429.021	0.3	stopfail	0.437	Go_X	0.0
431.545	1.0	go	0.49	Go_O	1.0
434.069	1.0	go	0.541	Go_X	1.0
436.594	1.0	go	0.66	Go_O	1.0
439.118	0.25	stopfail	0.469	Go_O	0.0
441.642	1.0	go	0.625	Go_O	1.0
444.166	1.0	go	0.508	Go_X	1.0
446.691	1.0	go	0.934	Go_O	1.0
449.215	1.0	go	0.376	Go_X	1.0
451.739	0.2	stopfail	0.45	Go_X	0.0
454.263	1.0	go	0.579	Go_X	1.0
456.787	1.0	go	0.489	Go_O	1.0
459.312	0.15	stopsuccess	0.0	Go_O	1.0
461.836	1.0	go	0.724	Go_O	1.0
464.36	1.0	go	0.532	Go_X	1.0
466.884	0.2	stopsuccess	0.0	Go_X	1.0
469.409	1.0	go	0.417	Go_O	1.0
471.933	1.0	go	0.508	Go_X	1.0
474.457	0.25	stopsuccess	0.0	Go_O	1.0
476.981	1.0	go	0.524	Go_O	1.0
479.505	1.0	go	0.613	Go_X	1.0
482.03	1.0	go	0.556	Go_X	1.0
484.554	1.0	go	0.52	Go_O	1.0
487.078	1.0	go	0.519	Go_X	1.0
489.602	1.0	go	0.43	Go_O	1.0
492.127	0.3	stopsuccess	0.0	Go_X	1.0
494.668	1.0	go	0.773	Go_O	1.0
497.192	0.35	stopfail	0.427	Go_O	0.0
499.716	1.0	go	0.565	Go_X	1.0
502.24	1.0	go	0.688	Go_O	1.0
504.764	1.0	go	0.559	Go_X	1.0
507.289	1.0	go	0.461	Go_O	1.0
509.813	1.0	go	0.416	Go_X	1.0
512.337	0.3	stopfail	0.554	Go_X	0.0
514.861	1.0	go	0.445	Go_O	1.0
517.386	1.0	go	0.458	Go_X	1.0
519.91	1.0	go	0.592	Go_O	1.0
522.434	0.25	stopfail	0.52	Go_O	0.0
524.958	0.2	stopfail	0.532	Go_X	0.0
527.482	0.15	stopsuccess	0.0	Go_O	1.0
530.007	1.0	go	0.596	Go_X	1.0
532.531	0.2	stopsuccess	0.0	Go_X	1.0
535.055	1.0	go	0.564	Go_X	1.0
537.579	1.0	go	0.568	Go_O	1.0
540.104	1.0	go	0.547	Go_X	1.0
542.628	1.0	go	0.57	Go_O	1.0
545.152	1.0	go	0.482	Go_O	1.0
547.676	1.0	go	0.547	Go_X	1.0
550.2	1.0	go	0.567	Go_O	1.0
552.725	1.0	go	0.58	Go_X	1.0
555.249	0.25	stopsuccess	0.0	Go_O	1.0
557.773	1.0	go	0.671	Go_O	1.0
560.297	1.0	go	0.83	Go_X	0.0
562.822	0.3	stopfail	0.39	Go_X	0.0
565.346	1.0	go	0.477	Go_O	1.0
567.87	1.0	go	0.552	Go_X	1.0
570.394	1.0	go	0.452	Go_X	1.0
572.918	1.0	go	0.539	Go_O	1.0
575.443	1.0	go	0.477	Go_O	1.0
577.967	0.25	stopsuccess	0.0	Go_O	1.0
580.491	1.0	go	0.46	Go_X	1.0
583.015	1.0	go	0.465	Go_O	1.0
585.54	1.0	go	0.517	Go_X	1.0
588.064	0.3	stopfail	0.501	Go_X	0.0
590.588	1.0	go	0.522	Go_O	1.0
593.112	0.25	stopsuccess	0.0	Go_O	1.0
595.637	1.0	go	0.508	Go_X	1.0
598.161	1.0	go	0.501	Go_O	1.0
600.685	1.0	go	0.468	Go_X	1.0
603.209	1.0	go	0.485	Go_X	1.0
605.733	1.0	go	0.522	Go_O	1.0
608.258	1.0	go	0.673	Go_O	1.0
610.782	1.0	go	0.61	Go_X	1.0
613.306	0.3	stopfail	0.511	Go_X	0.0
615.83	1.0	go	0.758	Go_O	1.0
618.355	1.0	go	0.565	Go_X	1.0
620.879	1.0	go	0.665	Go_X	1.0
623.403	1.0	go	0.618	Go_O	1.0
625.927	0.25	stopfail	0.472	Go_O	0.0
628.451	1.0	go	0.497	Go_X	1.0
630.976	0.2	stopsuccess	0.0	Go_X	1.0
633.5	1.0	go	0.51	Go_O	1.0
636.024	1.0	go	0.44	Go_O	1.0
638.548	0.25	stopsuccess	0.0	Go_O	1.0
641.073	1.0	go	0.438	Go_X	1.0
643.597	1.0	go	0.661	Go_X	1.0
646.121	1.0	go	0.511	Go_O	1.0
648.645	1.0	go	0.465	Go_X	1.0
651.169	1.0	go	0.586	Go_O	1.0
653.694	1.0	go	0.388	Go_O	0.0
656.218	1.0	go	0.552	Go_X	1.0
658.742	1.0	go	0.388	Go_X	1.0
661.266	1.0	go	0.384	Go_O	1.0
663.791	1.0	go	0.37	Go_O	1.0
666.315	0.3	stopfail	0.499	Go_X	0.0
668.839	1.0	go	0.581	Go_X	1.0
671.363	1.0	go	0.485	Go_X	1.0
673.887	0.25	stopfail	0.433	Go_O	0.0
676.412	1.0	go	0.579	Go_O	1.0
678.936	0.2	stopsuccess	0.0	Go_X	1.0
681.46	1.0	go	0.674	Go_O	1.0
683.984	1.0	go	0.588	Go_X	1.0
686.509	0.25	stopsuccess	0.0	Go_O	1.0
689.033	1.0	go	0.638	Go_X	1.0
691.557	0.3	stopfail	0.525	Go_X	0.0
694.081	1.0	go	0.674	Go_O	1.0
696.605	1.0	go	0.418	Go_X	1.0
699.13	1.0	go	0.483	Go_O	1.0
701.654	0.25	stopsuccess	0.0	Go_O	1.0
704.178	1.0	go	0.629	Go_O	1.0
706.702	1.0	go	0.602	Go_X	1.0
709.227	1.0	go	0.551	Go_O	1.0
711.751	1.0	go	0.526	Go_X	1.0
714.275	0.3	stopsuccess	0.0	Go_X	1.0
716.799	1.0	go	0.52	Go_X	1.0
719.324	1.0	go	0.533	Go_O	1.0
721.848	0.35	stopfail	0.409	Go_O	0.0
724.372	1.0	go	0.509	Go_O	1.0
726.896	1.0	go	0.538	Go_X	1.0
729.42	1.0	go	0.527	Go_O	1.0
731.945	1.0	go	0.443	Go_X	1.0
734.469	0.3	stopfail	0.432	Go_X	0.0
736.993	1.0	go	0.506	Go_O	1.0
739.517	0.25	stopsuccess	0.0	Go_O	1.0
742.042	1.0	go	0.592	Go_X	1.0
744.566	1.0	go	0.484	Go_O	1.0
747.09	0.3	stopfail	0.577	Go_X	0.0
749.614	1.0	go	0.6	Go_X	1.0
752.138	1.0	go	0.389	Go_X	1.0
754.663	1.0	go	0.473	Go_O	1.0
757.187	1.0	go	0.521	Go_X	1.0
759.711	0.25	stopfail	0.41	Go_O	0.0
762.235	1.0	go	0.494	Go_O	1.0
764.76	0.2	stopsuccess	0.0	Go_X	1.0
767.284	1.0	go	0.545	Go_X	1.0
769.808	1.0	go	0.537	Go_O	1.0
772.332	1.0	go	0.674	Go_X	1.0
774.856	1.0	go	0.638	Go_O	1.0
777.381	1.0	go	0.453	Go_X	1.0
779.905	1.0	go	0.425	Go_O	1.0
782.429	0.25	stopsuccess	0.0	Go_O	1.0
784.953	1.0	go	0.421	Go_X	1.0
787.478	1.0	go	0.497	Go_O	1.0
790.002	0.3	stopfail	0.569	Go_X	0.0
792.526	1.0	go	0.469	Go_X	1.0
795.05	1.0	go	0.505	Go_O	1.0
797.574	0.25	stopfail	0.433	Go_O	0.0
800.099	1.0	go	0.535	Go_O	1.0
802.623	1.0	go	0.543	Go_X	1.0
805.147	1.0	go	0.519	Go_X	1.0
807.671	1.0	go	0.455	Go_O	1.0
810.196	0.2	stopsuccess	0.0	Go_X	1.0
812.72	1.0	go	0.458	Go_O	1.0
815.244	0.25	stopsuccess	0.0	Go_O	1.0
817.768	1.0	go	0.626	Go_X	1.0
820.293	1.0	go	0.736	Go_X	1.0
822.817	1.0	go	0.723	Go_O	1.0
825.341	1.0	go	0.526	Go_X	1.0
827.865	1.0	go	0.538	Go_O	1.0
830.389	0.3	stopsuccess	0.0	Go_X	1.0
832.914	1.0	go	0.533	Go_O	1.0
835.438	1.0	go	0.573	Go_X	1.0
837.962	0.35	stopfail	0.504	Go_O	0.0
840.486	0.3	stopsuccess	0.0	Go_X	1.0
843.011	1.0	go	0.541	Go_O	1.0
845.535	1.0	go	0.529	Go_X	1.0
848.059	1.0	go	0.474	Go_O	1.0
850.583	1.0	go	0.482	Go_X	1.0
853.107	0.35	stopfail	0.448	Go_O	0.0
855.632	1.0	go	0.46	Go_X	1.0
