onset	duration	trial_type	response_time	stim_file	accuracy
645.941	1.0	go	0.447	Go_X	1.0
648.515	1.0	go	0.327	Go_O	1.0
651.039	1.0	go	0.279	Go_X	1.0
653.563	1.0	go	0.347	Go_O	1.0
656.087	1.0	go	0.418	Go_O	1.0
658.612	1.0	go	0.241	Go_X	1.0
661.136	0.25	stopfail	0.23	Go_O	0.0
663.66	1.0	go	0.212	Go_X	1.0
666.184	0.2	stopsuccess	0.0	Go_X	1.0
668.708	1.0	go	0.264	Go_O	1.0
671.232	1.0	go	0.444	Go_O	1.0
673.757	1.0	go	0.363	Go_X	1.0
676.281	0.25	stopfail	0.269	Go_O	0.0
678.805	1.0	go	0.474	Go_O	1.0
681.329	1.0	go	0.229	Go_X	1.0
683.853	0.2	stopfail	0.331	Go_X	0.0
686.377	0.15	stopsuccess	0.0	Go_O	1.0
688.902	1.0	go	0.328	Go_X	1.0
691.426	1.0	go	0.315	Go_O	1.0
693.95	0.2	stopfail	0.324	Go_X	0.0
696.474	1.0	go	0.375	Go_O	1.0
698.998	1.0	go	0.343	Go_X	1.0
701.522	0.15	stopfail	0.282	Go_O	0.0
704.047	1.0	go	0.408	Go_O	1.0
706.571	1.0	go	0.29	Go_X	1.0
709.095	0.1	stopsuccess	0.0	Go_X	1.0
711.619	1.0	go	0.419	Go_O	1.0
714.143	1.0	go	0.457	Go_X	1.0
716.668	0.15	stopsuccess	0.0	Go_O	1.0
719.192	1.0	go	0.362	Go_X	1.0
721.716	1.0	go	0.279	Go_O	1.0
724.24	1.0	go	0.293	Go_X	1.0
726.764	1.0	go	0.264	Go_O	1.0
729.288	1.0	go	0.478	Go_O	1.0
731.813	0.2	stopsuccess	0.0	Go_X	1.0
734.337	1.0	go	0.281	Go_X	1.0
736.861	1.0	go	0.377	Go_O	1.0
739.385	1.0	go	0.385	Go_X	1.0
741.909	1.0	go	0.462	Go_O	1.0
744.433	1.0	go	0.361	Go_X	1.0
746.958	0.25	stopfail	0.336	Go_O	0.0
749.482	1.0	go	0.378	Go_O	1.0
752.006	1.0	go	0.384	Go_X	1.0
754.53	1.0	go	0.36	Go_X	1.0
757.054	1.0	go	0.415	Go_O	1.0
759.578	1.0	go	0.397	Go_O	1.0
762.103	1.0	go	0.285	Go_X	1.0
764.627	0.2	stopfail	0.289	Go_X	0.0
767.151	1.0	go	0.407	Go_O	1.0
769.675	1.0	go	0.381	Go_X	1.0
772.199	0.15	stopsuccess	0.0	Go_O	1.0
774.723	1.0	go	0.429	Go_O	1.0
777.248	0.2	stopsuccess	0.0	Go_X	1.0
779.772	0.25	stopfail	0.403	Go_O	0.0
782.296	1.0	go	0.353	Go_X	1.0
784.82	1.0	go	0.495	Go_O	1.0
787.344	1.0	go	0.447	Go_X	1.0
789.868	1.0	go	0.394	Go_O	1.0
792.393	0.2	stopfail	0.269	Go_X	0.0
794.917	1.0	go	0.265	Go_X	1.0
797.441	0.15	stopfail	0.253	Go_O	0.0
799.965	1.0	go	0.388	Go_X	1.0
802.489	1.0	go	0.347	Go_O	1.0
805.014	1.0	go	0.209	Go_X	1.0
807.538	1.0	go	0.296	Go_O	1.0
810.062	1.0	go	0.403	Go_O	1.0
812.586	1.0	go	0.235	Go_X	1.0
815.11	1.0	go	0.265	Go_O	1.0
817.634	1.0	go	0.529	Go_X	1.0
820.159	1.0	go	0.354	Go_O	1.0
822.683	0.1	stopsuccess	0.0	Go_X	1.0
825.207	1.0	go	0.45	Go_X	1.0
827.731	1.0	go	0.366	Go_X	1.0
830.255	1.0	go	0.465	Go_O	1.0
832.779	0.15	stopsuccess	0.0	Go_O	1.0
835.304	1.0	go	0.428	Go_O	1.0
837.828	1.0	go	0.332	Go_X	1.0
840.352	1.0	go	0.825	Go_O	1.0
842.876	1.0	go	0.401	Go_X	1.0
845.4	1.0	go	0.416	Go_X	1.0
847.924	1.0	go	0.31	Go_O	1.0
850.449	0.2	stopsuccess	0.0	Go_X	1.0
852.973	1.0	go	0.376	Go_X	1.0
855.497	1.0	go	0.501	Go_O	1.0
858.021	0.25	stopsuccess	0.0	Go_O	1.0
860.545	1.0	go	0.324	Go_O	1.0
863.069	1.0	go	0.33	Go_X	1.0
865.594	0.3	stopfail	0.384	Go_X	0.0
868.118	1.0	go	0.424	Go_X	1.0
870.642	0.25	stopfail	0.268	Go_O	0.0
873.166	1.0	go	0.431	Go_O	1.0
875.69	1.0	go	0.367	Go_O	1.0
878.214	1.0	go	0.266	Go_X	1.0
880.739	1.0	go	0.374	Go_X	1.0
883.263	1.0	go	0.291	Go_O	1.0
885.787	0.2	stopfail	0.233	Go_X	0.0
888.311	0.15	stopsuccess	0.0	Go_O	1.0
890.835	1.0	go	0.377	Go_O	1.0
893.36	1.0	go	0.412	Go_X	1.0
895.884	0.2	stopsuccess	0.0	Go_X	1.0
898.408	1.0	go	0.421	Go_O	1.0
900.932	1.0	go	0.452	Go_X	1.0
903.456	1.0	go	0.344	Go_X	1.0
905.98	1.0	go	0.384	Go_O	1.0
908.505	1.0	go	0.52	Go_X	1.0
911.029	1.0	go	0.595	Go_O	1.0
913.553	0.25	stopsuccess	0.0	Go_O	1.0
916.077	1.0	go	0.302	Go_X	1.0
918.601	1.0	go	0.588	Go_O	1.0
921.125	1.0	go	0.501	Go_X	1.0
923.65	1.0	go	0.0	Go_O	0.0
926.174	1.0	go	0.31	Go_X	1.0
928.698	0.3	stopfail	0.326	Go_X	0.0
931.222	1.0	go	0.446	Go_O	1.0
933.746	1.0	go	0.284	Go_X	1.0
936.27	1.0	go	0.492	Go_O	1.0
938.795	1.0	go	0.467	Go_X	1.0
941.319	0.25	stopfail	0.318	Go_O	0.0
943.843	1.0	go	0.443	Go_O	1.0
946.367	1.0	go	0.404	Go_O	1.0
948.891	0.2	stopsuccess	0.0	Go_X	1.0
951.415	1.0	go	0.481	Go_X	1.0
953.94	0.25	stopsuccess	0.0	Go_O	1.0
956.464	1.0	go	0.262	Go_X	1.0
958.988	1.0	go	0.673	Go_O	1.0
961.512	1.0	go	0.324	Go_O	1.0
964.036	1.0	go	0.391	Go_X	1.0
966.561	1.0	go	0.404	Go_X	1.0
969.085	1.0	go	0.339	Go_O	1.0
971.609	1.0	go	0.344	Go_O	1.0
974.133	0.3	stopfail	0.285	Go_X	0.0
976.657	1.0	go	0.457	Go_X	1.0
979.181	1.0	go	0.503	Go_X	1.0
981.706	1.0	go	0.378	Go_O	1.0
984.23	0.25	stopsuccess	0.0	Go_O	1.0
986.754	1.0	go	0.202	Go_X	1.0
989.278	1.0	go	0.365	Go_O	1.0
991.802	1.0	go	0.527	Go_X	1.0
994.326	1.0	go	0.538	Go_O	1.0
996.851	0.3	stopsuccess	0.0	Go_X	1.0
999.375	1.0	go	0.707	Go_O	1.0
1001.899	1.0	go	0.481	Go_X	1.0
1004.423	0.35	stopfail	0.374	Go_O	0.0
1006.947	1.0	go	0.814	Go_X	1.0
1009.471	1.0	go	0.559	Go_O	1.0
1011.996	0.3	stopsuccess	0.0	Go_X	1.0
1014.52	1.0	go	0.437	Go_O	1.0
1017.044	1.0	go	0.417	Go_X	1.0
1019.568	0.35	stopsuccess	0.0	Go_O	1.0
1022.092	1.0	go	0.401	Go_X	1.0
1024.616	1.0	go	0.545	Go_O	1.0
1027.141	1.0	go	0.488	Go_X	1.0
1029.665	1.0	go	0.356	Go_O	1.0
1032.189	1.0	go	0.251	Go_X	1.0
1034.713	1.0	go	0.314	Go_O	1.0
1037.237	0.4	stopfail	0.339	Go_X	0.0
1039.762	1.0	go	0.354	Go_O	1.0
1042.286	0.35	stopfail	0.36	Go_O	0.0
1044.81	1.0	go	0.346	Go_X	1.0
1047.334	1.0	go	0.295	Go_X	1.0
1049.858	1.0	go	0.581	Go_O	1.0
1052.382	1.0	go	0.405	Go_O	1.0
1054.907	1.0	go	0.41	Go_X	1.0
1057.447	0.3	stopfail	0.29	Go_X	0.0
1059.972	1.0	go	0.97	Go_O	1.0
1062.496	1.0	go	0.34	Go_X	1.0
1065.02	1.0	go	0.232	Go_X	1.0
1067.544	0.25	stopsuccess	0.0	Go_O	1.0
1070.068	0.3	stopfail	0.347	Go_X	0.0
1072.592	0.25	stopfail	0.391	Go_O	0.0
1075.117	1.0	go	0.439	Go_O	1.0
1077.641	0.2	stopfail	0.247	Go_X	0.0
1080.165	1.0	go	0.374	Go_X	1.0
1082.689	1.0	go	0.288	Go_O	1.0
1085.213	1.0	go	0.449	Go_O	1.0
1087.737	1.0	go	0.395	Go_X	1.0
1090.262	1.0	go	0.386	Go_X	1.0
1092.786	1.0	go	0.334	Go_O	1.0
1095.31	1.0	go	0.279	Go_X	1.0
1097.834	1.0	go	0.334	Go_O	1.0
1100.358	0.15	stopsuccess	0.0	Go_O	1.0
1102.883	1.0	go	0.38	Go_O	1.0
1105.407	1.0	go	0.341	Go_X	1.0
1107.931	0.2	stopfail	0.269	Go_X	0.0
1110.455	1.0	go	0.418	Go_X	1.0
1112.979	1.0	go	0.356	Go_O	1.0
1115.503	1.0	go	0.435	Go_O	1.0
1118.028	1.0	go	0.396	Go_X	1.0
1120.552	1.0	go	0.413	Go_O	1.0
1123.076	0.15	stopsuccess	0.0	Go_O	1.0
1125.6	1.0	go	0.242	Go_X	1.0
1128.124	1.0	go	0.309	Go_O	1.0
1130.648	1.0	go	0.31	Go_X	1.0
1133.173	0.2	stopsuccess	0.0	Go_X	1.0
1135.697	1.0	go	0.308	Go_O	1.0
1138.221	0.25	stopfail	0.323	Go_O	0.0
1140.745	1.0	go	0.347	Go_X	1.0
1143.269	1.0	go	0.34	Go_O	1.0
1145.793	1.0	go	0.427	Go_X	1.0
1148.318	1.0	go	0.486	Go_X	1.0
1150.842	1.0	go	0.65	Go_O	1.0
1153.366	1.0	go	0.445	Go_X	1.0
1155.89	1.0	go	0.332	Go_O	1.0
1158.414	0.2	stopsuccess	0.0	Go_X	1.0
1160.938	1.0	go	0.385	Go_X	1.0
1163.463	1.0	go	0.504	Go_O	1.0
1165.987	1.0	go	0.55	Go_O	1.0
1168.511	1.0	go	0.392	Go_X	1.0
1171.035	0.25	stopsuccess	0.0	Go_O	1.0
1173.559	1.0	go	0.329	Go_X	1.0
1176.083	0.3	stopfail	0.384	Go_X	0.0
1178.608	1.0	go	0.408	Go_O	1.0
1181.132	1.0	go	0.487	Go_X	1.0
1183.656	0.25	stopfail	0.309	Go_O	0.0
1186.18	1.0	go	0.511	Go_O	1.0
1188.704	1.0	go	0.327	Go_X	1.0
1191.229	1.0	go	0.373	Go_O	1.0
1193.753	1.0	go	0.628	Go_X	1.0
1196.277	1.0	go	0.369	Go_O	1.0
1198.801	1.0	go	0.385	Go_X	1.0
1201.325	1.0	go	0.35	Go_O	1.0
1203.849	1.0	go	0.449	Go_O	1.0
1206.374	1.0	go	0.455	Go_X	1.0
1208.898	1.0	go	0.422	Go_X	1.0
1211.422	0.2	stopsuccess	0.0	Go_X	1.0
1213.946	1.0	go	0.264	Go_O	1.0
1216.47	1.0	go	0.451	Go_O	1.0
1218.994	0.25	stopsuccess	0.0	Go_O	1.0
1221.519	1.0	go	0.396	Go_X	1.0
1224.043	0.3	stopsuccess	0.0	Go_X	1.0
1226.567	1.0	go	0.0	Go_X	0.0
1229.091	1.0	go	0.575	Go_O	1.0
1231.615	0.35	stopfail	0.449	Go_O	0.0
1234.139	1.0	go	0.508	Go_O	1.0
1236.664	0.3	stopfail	0.367	Go_X	0.0
1239.188	1.0	go	0.339	Go_X	1.0
1241.712	1.0	go	0.224	Go_O	1.0
1244.236	1.0	go	0.332	Go_X	1.0
1246.76	0.25	stopsuccess	0.0	Go_O	1.0
1249.284	1.0	go	0.607	Go_O	1.0
1251.809	1.0	go	0.295	Go_X	1.0
1254.333	1.0	go	0.245	Go_O	1.0
1256.857	1.0	go	0.29	Go_X	1.0
1259.381	0.3	stopfail	0.366	Go_X	0.0
1261.905	1.0	go	0.373	Go_O	1.0
1264.43	1.0	go	0.394	Go_X	1.0
1266.954	0.25	stopsuccess	0.0	Go_O	1.0
1269.478	1.0	go	0.357	Go_X	1.0
1272.002	1.0	go	0.493	Go_O	1.0
1274.526	1.0	go	0.321	Go_X	1.0
1277.05	1.0	go	0.496	Go_O	1.0
1279.575	0.3	stopfail	0.541	Go_X	0.0
1282.099	1.0	go	0.471	Go_X	1.0
1284.623	0.25	stopfail	0.228	Go_O	0.0
1287.147	1.0	go	0.392	Go_O	1.0
1289.671	1.0	go	0.315	Go_X	1.0
1292.195	0.2	stopsuccess	0.0	Go_X	1.0
1294.72	1.0	go	0.363	Go_O	1.0
1297.244	1.0	go	0.396	Go_O	1.0
1299.768	1.0	go	0.33	Go_X	1.0
1302.292	1.0	go	0.671	Go_O	1.0
1304.816	0.25	stopfail	0.409	Go_O	0.0
1307.34	1.0	go	0.255	Go_X	1.0
1309.865	0.2	stopfail	0.268	Go_X	0.0
1312.389	1.0	go	0.342	Go_X	1.0
1314.913	1.0	go	0.359	Go_O	1.0
1317.437	1.0	go	0.332	Go_O	1.0
1319.961	1.0	go	0.469	Go_X	1.0
1322.485	1.0	go	0.464	Go_O	1.0
1325.01	1.0	go	0.706	Go_X	1.0
1327.534	0.15	stopsuccess	0.0	Go_O	1.0
1330.058	1.0	go	0.558	Go_X	1.0
1332.582	1.0	go	0.359	Go_O	1.0
1335.106	0.2	stopsuccess	0.0	Go_X	1.0
1337.63	1.0	go	0.368	Go_X	1.0
1340.155	1.0	go	0.41	Go_O	1.0
1342.679	0.25	stopfail	0.373	Go_O	0.0
1345.203	1.0	go	0.583	Go_O	1.0
1347.727	1.0	go	0.421	Go_X	1.0
1350.251	1.0	go	0.564	Go_O	1.0
1352.776	1.0	go	0.988	Go_X	1.0
1355.3	0.2	stopsuccess	0.0	Go_X	1.0
1357.824	1.0	go	0.377	Go_O	1.0
1360.348	0.25	stopfail	0.3	Go_O	0.0
1362.872	1.0	go	0.264	Go_X	1.0
1365.396	1.0	go	0.436	Go_O	1.0
1367.921	1.0	go	0.472	Go_X	1.0
1370.445	1.0	go	0.417	Go_X	1.0
1372.969	1.0	go	0.342	Go_O	1.0
1375.493	0.2	stopfail	0.22	Go_X	0.0
1378.017	1.0	go	0.38	Go_O	1.0
1380.541	1.0	go	0.327	Go_X	1.0
1383.066	0.15	stopsuccess	0.0	Go_O	1.0
1385.59	0.2	stopfail	0.291	Go_X	0.0
1388.114	1.0	go	0.283	Go_X	1.0
1390.638	1.0	go	0.282	Go_O	1.0
1393.162	1.0	go	0.444	Go_X	1.0
1395.686	1.0	go	0.341	Go_O	1.0
1398.211	0.15	stopsuccess	0.0	Go_O	1.0
1400.735	1.0	go	0.339	Go_O	1.0
