onset	duration	trial_type	response_time	stim_file	accuracy
34.337	1.0	go	0.607	Go_O	1.0
36.87	1.0	go	0.662	Go_X	1.0
39.404	1.0	go	0.84	Go_X	1.0
41.937	1.0	go	0.617	Go_O	1.0
44.47	1.0	go	0.64	Go_X	1.0
47.003	1.0	go	0.726	Go_O	1.0
49.537	0.25	stop	0.0	Go_O	1.0
52.07	1.0	go	0.641	Go_X	1.0
54.603	0.3	stop	0.0	Go_X	1.0
57.136	1.0	go	0.641	Go_O	1.0
59.67	1.0	go	0.706	Go_X	1.0
62.203	1.0	go	0.599	Go_O	1.0
64.736	0.35	stop	0.0	Go_O	1.0
67.269	1.0	go	0.585	Go_O	1.0
69.803	1.0	go	0.63	Go_X	1.0
72.336	0.4	stop	0.0	Go_X	1.0
74.869	0.45	stop	0.0	Go_O	1.0
77.402	1.0	go	0.992	Go_O	1.0
79.936	1.0	go	0.599	Go_X	1.0
82.469	0.5	stop	0.443	Go_X	0.0
85.002	1.0	go	0.571	Go_X	1.0
87.535	1.0	go	0.51	Go_O	1.0
90.069	0.45	stop	0.384	Go_O	0.0
92.602	1.0	go	0.598	Go_O	1.0
95.135	1.0	go	0.52	Go_X	1.0
97.668	0.4	stop	0.573	Go_X	0.0
100.202	1.0	go	0.879	Go_O	1.0
102.751	1.0	go	0.807	Go_X	1.0
105.285	0.35	stop	0.0	Go_O	1.0
107.818	1.0	go	0.529	Go_X	1.0
110.351	1.0	go	0.478	Go_O	1.0
112.884	1.0	go	0.0	Go_X	0.0
115.418	1.0	go	0.558	Go_O	1.0
117.951	1.0	go	0.723	Go_O	1.0
120.484	0.4	stop	0.0	Go_X	1.0
123.017	1.0	go	0.692	Go_X	1.0
125.551	1.0	go	0.668	Go_X	1.0
128.084	1.0	go	0.671	Go_O	1.0
130.617	1.0	go	0.726	Go_X	1.0
133.15	1.0	go	0.71	Go_O	1.0
135.684	0.45	stop	0.593	Go_O	0.0
138.217	1.0	go	0.816	Go_O	1.0
140.75	1.0	go	0.679	Go_X	1.0
143.283	1.0	go	0.664	Go_O	1.0
145.817	1.0	go	0.783	Go_X	1.0
148.35	1.0	go	0.0	Go_X	0.0
150.883	1.0	go	0.699	Go_O	1.0
153.416	0.4	stop	0.0	Go_X	1.0
155.95	1.0	go	0.335	Go_X	0.0
158.499	1.0	go	0.47	Go_O	1.0
161.033	0.45	stop	0.56	Go_O	0.0
163.566	1.0	go	0.605	Go_O	1.0
166.099	0.4	stop	0.0	Go_X	1.0
168.632	0.45	stop	0.49	Go_O	0.0
171.166	1.0	go	0.742	Go_X	1.0
173.699	1.0	go	0.739	Go_X	1.0
176.232	1.0	go	0.452	Go_O	1.0
178.765	1.0	go	0.457	Go_X	1.0
181.299	0.4	stop	0.535	Go_X	0.0
183.832	1.0	go	0.605	Go_O	1.0
186.365	0.35	stop	0.0	Go_O	1.0
188.898	1.0	go	0.565	Go_O	1.0
191.432	1.0	go	0.629	Go_X	1.0
193.965	1.0	go	0.732	Go_X	1.0
196.498	1.0	go	0.711	Go_O	1.0
199.031	1.0	go	0.939	Go_X	1.0
201.565	1.0	go	0.714	Go_O	1.0
204.098	1.0	go	0.626	Go_X	1.0
206.631	1.0	go	0.619	Go_O	1.0
209.164	1.0	go	0.63	Go_O	1.0
211.698	0.4	stop	0.0	Go_X	1.0
214.247	1.0	go	0.738	Go_X	1.0
216.781	1.0	go	0.507	Go_X	1.0
219.314	1.0	go	0.816	Go_O	1.0
221.847	0.45	stop	0.0	Go_O	1.0
224.38	1.0	go	0.0	Go_X	0.0
226.914	1.0	go	0.771	Go_O	1.0
229.447	1.0	go	0.724	Go_X	1.0
231.98	1.0	go	0.496	Go_O	1.0
234.513	1.0	go	0.345	Go_X	1.0
237.047	1.0	go	0.356	Go_O	1.0
239.58	0.5	stop	0.581	Go_X	0.0
242.113	1.0	go	0.56	Go_O	1.0
244.646	1.0	go	0.545	Go_X	1.0
247.18	0.45	stop	0.48	Go_O	0.0
249.713	1.0	go	0.438	Go_O	1.0
252.246	1.0	go	0.589	Go_X	1.0
254.779	0.4	stop	0.0	Go_X	1.0
257.313	1.0	go	0.784	Go_X	1.0
259.846	0.45	stop	0.443	Go_O	0.0
262.379	1.0	go	0.668	Go_O	1.0
264.912	1.0	go	0.772	Go_O	1.0
267.446	1.0	go	0.977	Go_X	1.0
269.979	1.0	go	0.664	Go_X	1.0
272.512	1.0	go	0.541	Go_O	1.0
275.045	0.4	stop	0.0	Go_X	1.0
277.579	0.45	stop	0.512	Go_O	0.0
280.128	1.0	go	0.686	Go_X	1.0
282.662	1.0	go	0.835	Go_O	1.0
285.195	0.4	stop	0.0	Go_X	1.0
287.728	1.0	go	0.422	Go_O	1.0
290.261	1.0	go	0.486	Go_X	1.0
292.795	1.0	go	0.715	Go_X	1.0
295.328	1.0	go	0.616	Go_O	1.0
297.861	1.0	go	0.724	Go_X	1.0
300.394	1.0	go	0.612	Go_O	1.0
302.928	0.45	stop	0.0	Go_O	1.0
305.461	1.0	go	0.818	Go_X	1.0
307.994	1.0	go	0.685	Go_O	0.0
310.527	1.0	go	0.622	Go_X	1.0
313.061	1.0	go	0.481	Go_O	1.0
315.594	1.0	go	0.655	Go_X	1.0
318.127	0.5	stop	0.616	Go_X	0.0
320.66	1.0	go	0.678	Go_O	1.0
323.194	1.0	go	0.542	Go_X	1.0
325.727	1.0	go	0.567	Go_O	1.0
328.26	1.0	go	0.509	Go_O	1.0
330.793	0.45	stop	0.0	Go_O	1.0
333.327	1.0	go	0.423	Go_X	1.0
335.876	1.0	go	0.629	Go_X	1.0
338.41	0.5	stop	0.0	Go_X	1.0
340.943	1.0	go	0.52	Go_O	1.0
343.476	0.55	stop	0.718	Go_O	0.0
346.009	1.0	go	0.928	Go_X	1.0
348.543	1.0	go	0.536	Go_O	1.0
351.076	1.0	go	0.721	Go_O	1.0
353.609	1.0	go	0.759	Go_X	1.0
356.142	1.0	go	0.611	Go_O	1.0
358.676	1.0	go	0.61	Go_X	1.0
361.209	1.0	go	0.64	Go_O	1.0
363.742	0.5	stop	0.888	Go_X	0.0
366.275	1.0	go	0.0	Go_X	0.0
368.809	1.0	go	0.615	Go_O	1.0
371.342	1.0	go	0.699	Go_X	1.0
373.875	0.45	stop	0.0	Go_O	1.0
376.408	1.0	go	0.721	Go_O	1.0
378.942	1.0	go	0.818	Go_X	1.0
381.475	1.0	go	0.697	Go_O	1.0
384.008	1.0	go	0.926	Go_X	1.0
386.541	0.5	stop	0.0	Go_X	1.0
389.075	1.0	go	0.616	Go_X	1.0
391.624	1.0	go	0.429	Go_O	1.0
394.158	0.55	stop	0.541	Go_O	0.0
396.691	1.0	go	0.629	Go_O	1.0
399.224	1.0	go	0.564	Go_X	1.0
401.757	0.5	stop	0.0	Go_X	1.0
404.291	1.0	go	0.955	Go_X	1.0
406.824	1.0	go	0.637	Go_O	1.0
409.357	0.55	stop	0.0	Go_O	1.0
411.89	1.0	go	0.827	Go_O	1.0
414.424	1.0	go	0.497	Go_X	1.0
416.957	1.0	go	0.524	Go_X	1.0
419.49	1.0	go	0.921	Go_O	1.0
422.023	1.0	go	0.729	Go_O	1.0
424.557	1.0	go	0.0	Go_X	0.0
427.09	0.6	stop	0.0	Go_X	1.0
429.623	1.0	go	0.456	Go_O	1.0
432.156	0.65	stop	0.392	Go_O	0.0
434.69	1.0	go	0.34	Go_X	1.0
437.223	1.0	go	0.274	Go_O	1.0
439.756	1.0	go	0.449	Go_X	1.0
442.289	1.0	go	0.357	Go_X	1.0
444.823	1.0	go	0.646	Go_O	1.0
447.356	0.6	stop	0.682	Go_X	0.0
449.889	1.0	go	0.788	Go_O	1.0
452.422	1.0	go	0.6	Go_X	1.0
454.956	1.0	go	0.719	Go_X	1.0
457.505	0.55	stop	0.683	Go_O	0.0
460.039	0.5	stop	0.0	Go_X	1.0
462.572	0.55	stop	0.57	Go_O	0.0
465.105	1.0	go	0.855	Go_O	1.0
467.638	0.5	stop	0.0	Go_X	1.0
470.172	1.0	go	0.636	Go_X	1.0
472.705	1.0	go	0.772	Go_O	1.0
475.238	1.0	go	0.827	Go_X	1.0
477.771	1.0	go	0.0	Go_O	0.0
480.305	1.0	go	0.705	Go_O	1.0
482.838	1.0	go	0.636	Go_X	1.0
485.371	1.0	go	0.584	Go_O	1.0
487.904	1.0	go	0.668	Go_X	1.0
490.438	0.55	stop	0.547	Go_O	0.0
492.971	1.0	go	0.806	Go_X	1.0
495.504	1.0	go	0.553	Go_O	1.0
498.037	0.5	stop	0.685	Go_X	0.0
500.571	1.0	go	0.77	Go_X	1.0
503.104	1.0	go	0.64	Go_O	1.0
505.637	1.0	go	0.642	Go_X	1.0
508.17	1.0	go	0.89	Go_O	1.0
510.704	1.0	go	0.784	Go_X	1.0
513.253	0.45	stop	0.0	Go_O	1.0
515.787	1.0	go	0.655	Go_O	1.0
518.32	1.0	go	0.708	Go_O	1.0
520.853	1.0	go	0.726	Go_X	1.0
523.386	0.5	stop	0.0	Go_X	1.0
525.92	1.0	go	0.803	Go_X	1.0
528.453	0.55	stop	0.859	Go_O	0.0
530.986	1.0	go	0.875	Go_O	1.0
533.519	1.0	go	0.797	Go_X	1.0
536.053	1.0	go	0.886	Go_O	1.0
538.586	1.0	go	0.718	Go_O	1.0
541.119	1.0	go	0.702	Go_X	1.0
543.652	1.0	go	0.8	Go_O	1.0
546.186	1.0	go	0.692	Go_X	1.0
548.719	0.5	stop	0.0	Go_X	1.0
551.252	1.0	go	0.699	Go_X	1.0
553.785	1.0	go	0.693	Go_O	1.0
556.319	1.0	go	0.698	Go_X	1.0
558.852	1.0	go	0.684	Go_O	1.0
561.385	0.55	stop	0.0	Go_O	1.0
563.918	1.0	go	0.0	Go_X	0.0
566.452	0.6	stop	0.721	Go_X	0.0
568.985	1.0	go	0.963	Go_O	1.0
571.518	1.0	go	0.61	Go_X	1.0
574.051	0.55	stop	0.408	Go_O	0.0
576.585	1.0	go	0.635	Go_O	1.0
579.134	1.0	go	0.896	Go_X	1.0
581.668	1.0	go	0.653	Go_O	1.0
584.201	1.0	go	0.695	Go_O	1.0
586.734	1.0	go	0.951	Go_X	1.0
589.267	1.0	go	0.683	Go_X	1.0
591.801	1.0	go	0.823	Go_O	1.0
594.334	1.0	go	0.0	Go_X	0.0
596.867	1.0	go	0.603	Go_O	1.0
599.4	1.0	go	0.663	Go_O	1.0
601.934	0.5	stop	0.578	Go_X	0.0
604.467	1.0	go	0.771	Go_X	1.0
607.0	1.0	go	0.718	Go_X	1.0
609.533	0.45	stop	0.0	Go_O	1.0
612.067	1.0	go	0.702	Go_O	1.0
614.6	0.5	stop	0.555	Go_X	0.0
617.133	1.0	go	0.734	Go_O	1.0
619.666	1.0	go	0.0	Go_X	0.0
622.2	0.45	stop	0.818	Go_O	0.0
624.733	1.0	go	0.781	Go_O	1.0
627.266	0.4	stop	0.0	Go_X	1.0
629.799	1.0	go	0.688	Go_X	1.0
632.333	1.0	go	0.803	Go_X	1.0
634.882	1.0	go	0.901	Go_O	1.0
637.416	0.45	stop	0.593	Go_O	0.0
639.949	1.0	go	0.878	Go_X	1.0
642.482	1.0	go	0.0	Go_O	0.0
645.015	1.0	go	0.579	Go_O	1.0
647.549	1.0	go	0.725	Go_X	1.0
650.082	0.4	stop	0.0	Go_X	1.0
652.615	1.0	go	0.0	Go_X	0.0
655.148	1.0	go	0.654	Go_O	1.0
657.682	0.45	stop	0.0	Go_O	1.0
660.215	1.0	go	0.949	Go_O	1.0
662.748	1.0	go	0.807	Go_X	1.0
665.281	1.0	go	0.0	Go_X	0.0
667.815	1.0	go	0.54	Go_O	1.0
670.348	0.5	stop	0.0	Go_X	1.0
672.881	1.0	go	0.86	Go_X	1.0
675.414	0.55	stop	0.579	Go_O	0.0
677.948	1.0	go	0.905	Go_O	1.0
680.481	1.0	go	0.731	Go_X	1.0
683.014	0.5	stop	0.0	Go_X	1.0
685.547	1.0	go	0.608	Go_O	1.0
688.081	1.0	go	0.611	Go_O	1.0
690.614	1.0	go	0.669	Go_X	1.0
693.147	1.0	go	0.698	Go_O	1.0
695.68	0.55	stop	0.0	Go_O	1.0
698.214	1.0	go	0.912	Go_X	1.0
700.763	0.6	stop	0.0	Go_X	1.0
703.297	1.0	go	0.97	Go_O	0.0
705.83	1.0	go	0.581	Go_X	1.0
708.363	1.0	go	0.681	Go_X	1.0
710.896	1.0	go	0.664	Go_O	1.0
713.43	1.0	go	0.778	Go_X	1.0
715.963	1.0	go	0.806	Go_O	1.0
718.496	0.65	stop	0.789	Go_O	0.0
721.029	1.0	go	0.606	Go_O	1.0
723.563	1.0	go	0.634	Go_X	1.0
726.096	0.6	stop	0.704	Go_X	0.0
728.629	1.0	go	0.968	Go_O	1.0
731.162	1.0	go	0.734	Go_X	1.0
733.696	0.55	stop	0.436	Go_O	0.0
736.229	1.0	go	0.723	Go_O	1.0
738.762	1.0	go	0.654	Go_X	1.0
741.295	1.0	go	0.778	Go_O	1.0
743.829	1.0	go	0.958	Go_X	1.0
746.362	0.5	stop	0.0	Go_X	1.0
748.895	1.0	go	0.0	Go_X	0.0
751.428	0.55	stop	0.71	Go_O	0.0
753.962	1.0	go	0.796	Go_O	1.0
756.511	1.0	go	0.694	Go_X	1.0
759.045	1.0	go	0.825	Go_O	1.0
761.578	1.0	go	0.77	Go_X	1.0
764.111	1.0	go	0.711	Go_O	1.0
766.644	0.5	stop	0.6	Go_X	0.0
769.178	1.0	go	0.0	Go_O	0.0
771.711	1.0	go	0.828	Go_X	1.0
774.244	0.45	stop	0.434	Go_O	0.0
776.777	0.4	stop	0.43	Go_X	0.0
779.311	1.0	go	0.823	Go_X	1.0
781.844	1.0	go	0.696	Go_O	1.0
784.377	1.0	go	0.54	Go_O	1.0
786.91	1.0	go	0.677	Go_X	1.0
789.444	0.35	stop	0.0	Go_O	1.0
791.977	1.0	go	0.974	Go_O	0.0
