onset	duration	trial_type	response_time	stim_file	accuracy
115.669	1.0	go	0.723	Go_O	1.0
118.252	1.0	go	0.349	Go_X	1.0
120.785	1.0	go	0.441	Go_X	1.0
123.319	1.0	go	0.505	Go_O	1.0
125.852	1.0	go	0.461	Go_X	1.0
128.385	1.0	go	0.606	Go_O	1.0
130.918	0.25	stopsuccess	0.0	Go_O	1.0
133.452	1.0	go	0.528	Go_O	1.0
135.985	0.3	stopsuccess	0.0	Go_X	1.0
138.518	1.0	go	0.502	Go_X	1.0
141.051	1.0	go	0.724	Go_O	1.0
143.585	1.0	go	0.669	Go_X	1.0
146.118	0.35	stopsuccess	0.0	Go_O	1.0
148.651	1.0	go	0.379	Go_O	1.0
151.185	1.0	go	0.661	Go_X	1.0
153.718	0.4	stopsuccess	0.0	Go_X	1.0
156.251	0.45	stopfail	0.534	Go_O	0.0
158.784	1.0	go	0.638	Go_O	1.0
161.318	1.0	go	0.637	Go_X	1.0
163.851	0.4	stopfail	0.557	Go_X	0.0
166.384	1.0	go	0.781	Go_O	1.0
168.918	1.0	go	0.646	Go_X	1.0
171.467	0.35	stopsuccess	0.0	Go_O	1.0
174.001	1.0	go	0.662	Go_X	1.0
176.534	1.0	go	0.775	Go_O	1.0
179.067	0.4	stopsuccess	0.0	Go_X	1.0
181.601	1.0	go	0.707	Go_X	1.0
184.134	1.0	go	0.992	Go_O	1.0
186.667	0.45	stopsuccess	0.0	Go_O	1.0
189.2	1.0	go	0.631	Go_O	1.0
191.734	1.0	go	0.552	Go_X	1.0
194.267	1.0	go	0.832	Go_X	1.0
196.8	1.0	go	0.716	Go_O	1.0
199.333	1.0	go	0.509	Go_X	1.0
201.867	0.5	stopfail	0.519	Go_X	0.0
204.4	1.0	go	0.626	Go_O	1.0
206.933	1.0	go	0.666	Go_X	1.0
209.467	1.0	go	0.524	Go_O	1.0
212.0	1.0	go	0.344	Go_X	1.0
214.533	1.0	go	0.577	Go_O	1.0
217.066	0.45	stopfail	0.654	Go_O	0.0
219.6	1.0	go	0.635	Go_X	1.0
222.133	1.0	go	0.518	Go_O	1.0
224.666	1.0	go	0.608	Go_X	1.0
227.199	1.0	go	0.738	Go_O	1.0
229.733	1.0	go	0.438	Go_O	1.0
232.266	1.0	go	0.59	Go_X	1.0
234.799	0.4	stopfail	0.519	Go_X	0.0
237.333	1.0	go	0.572	Go_X	1.0
239.866	1.0	go	0.465	Go_O	1.0
242.399	0.35	stopsuccess	0.0	Go_O	1.0
244.932	1.0	go	0.532	Go_O	1.0
247.466	0.4	stopfail	0.557	Go_X	0.0
249.999	0.35	stopsuccess	0.0	Go_O	1.0
252.532	1.0	go	0.529	Go_X	1.0
255.065	1.0	go	0.941	Go_O	1.0
257.599	1.0	go	0.938	Go_X	1.0
260.132	1.0	go	0.813	Go_O	1.0
262.665	0.4	stopsuccess	0.0	Go_X	1.0
265.199	1.0	go	0.667	Go_X	1.0
267.732	0.45	stopfail	0.641	Go_O	0.0
270.265	1.0	go	0.894	Go_X	1.0
272.798	1.0	go	0.875	Go_O	1.0
275.332	1.0	go	0.67	Go_O	1.0
277.865	1.0	go	0.785	Go_X	1.0
280.398	1.0	go	0.603	Go_O	1.0
282.932	1.0	go	0.625	Go_X	1.0
285.481	1.0	go	0.696	Go_O	1.0
288.015	1.0	go	0.596	Go_X	1.0
290.548	1.0	go	0.734	Go_O	1.0
293.081	0.4	stopsuccess	0.0	Go_X	1.0
295.615	1.0	go	0.477	Go_X	1.0
298.148	1.0	go	0.54	Go_X	1.0
300.681	1.0	go	0.505	Go_O	1.0
303.214	0.45	stopfail	0.596	Go_O	0.0
305.748	1.0	go	0.509	Go_X	1.0
308.281	1.0	go	0.868	Go_O	1.0
310.814	1.0	go	0.567	Go_O	1.0
313.347	1.0	go	0.497	Go_X	1.0
315.881	1.0	go	0.497	Go_O	1.0
318.414	1.0	go	0.443	Go_X	1.0
320.947	0.4	stopfail	0.409	Go_X	0.0
323.481	1.0	go	0.267	Go_O	1.0
326.014	1.0	go	0.023	Go_X	1.0
328.547	0.35	stopsuccess	0.0	Go_O	1.0
331.08	1.0	go	0.501	Go_X	1.0
333.614	1.0	go	0.819	Go_O	1.0
336.147	0.4	stopsuccess	0.0	Go_X	1.0
338.68	1.0	go	0.596	Go_O	1.0
341.213	0.45	stopsuccess	0.0	Go_O	1.0
343.747	1.0	go	0.625	Go_X	1.0
346.28	1.0	go	0.0	Go_O	0.0
348.813	1.0	go	0.821	Go_X	1.0
351.347	1.0	go	0.507	Go_O	1.0
353.88	1.0	go	0.465	Go_X	1.0
356.413	0.5	stopfail	0.484	Go_X	0.0
358.946	0.45	stopsuccess	0.0	Go_O	1.0
361.48	1.0	go	0.658	Go_X	1.0
364.013	1.0	go	0.752	Go_O	1.0
366.546	0.5	stopfail	0.609	Go_X	0.0
369.08	1.0	go	0.727	Go_O	1.0
371.629	1.0	go	0.927	Go_X	1.0
374.163	1.0	go	0.957	Go_O	1.0
376.696	1.0	go	0.94	Go_X	1.0
379.229	1.0	go	0.977	Go_O	1.0
381.763	1.0	go	0.716	Go_X	1.0
384.296	0.45	stopsuccess	0.0	Go_O	1.0
386.829	1.0	go	0.65	Go_O	1.0
389.362	1.0	go	0.718	Go_X	1.0
391.896	1.0	go	0.465	Go_X	1.0
394.429	1.0	go	0.546	Go_O	1.0
396.962	1.0	go	0.637	Go_X	1.0
399.495	0.5	stopfail	0.538	Go_X	0.0
402.029	1.0	go	0.591	Go_O	1.0
404.562	1.0	go	0.88	Go_O	1.0
407.095	1.0	go	0.643	Go_X	1.0
409.629	1.0	go	0.468	Go_X	1.0
412.162	0.45	stopfail	0.608	Go_O	0.0
414.695	1.0	go	0.364	Go_O	0.0
417.228	1.0	go	0.495	Go_O	1.0
419.762	0.4	stopfail	0.43	Go_X	0.0
422.295	1.0	go	0.512	Go_X	1.0
424.828	0.35	stopfail	0.349	Go_O	0.0
427.361	1.0	go	0.673	Go_X	1.0
429.895	1.0	go	0.786	Go_O	1.0
432.428	1.0	go	0.69	Go_X	1.0
434.961	1.0	go	0.649	Go_O	1.0
437.495	1.0	go	0.43	Go_X	1.0
440.028	1.0	go	0.495	Go_O	1.0
442.561	1.0	go	0.506	Go_X	1.0
445.094	0.3	stopfail	0.58	Go_X	0.0
447.628	1.0	go	0.384	Go_O	1.0
450.161	1.0	go	0.374	Go_O	1.0
452.694	1.0	go	0.363	Go_X	1.0
455.228	0.25	stopsuccess	0.0	Go_O	1.0
457.777	1.0	go	0.409	Go_O	1.0
460.311	1.0	go	0.533	Go_X	1.0
462.844	1.0	go	0.393	Go_X	1.0
465.377	1.0	go	0.835	Go_O	1.0
467.911	0.3	stopfail	0.612	Go_X	0.0
470.444	1.0	go	0.478	Go_O	1.0
472.977	1.0	go	0.562	Go_X	1.0
475.51	0.25	stopsuccess	0.0	Go_O	1.0
478.044	1.0	go	0.523	Go_O	1.0
480.577	1.0	go	0.0	Go_X	0.0
483.11	0.3	stopfail	0.433	Go_X	0.0
485.643	1.0	go	0.489	Go_O	1.0
488.177	1.0	go	0.642	Go_X	1.0
490.71	0.25	stopsuccess	0.0	Go_O	1.0
493.243	1.0	go	0.452	Go_X	1.0
495.777	1.0	go	0.393	Go_O	1.0
498.31	1.0	go	0.44	Go_X	1.0
500.843	1.0	go	0.416	Go_O	1.0
503.376	1.0	go	0.48	Go_X	1.0
505.91	1.0	go	0.623	Go_O	1.0
508.443	0.3	stopfail	0.362	Go_X	0.0
510.976	1.0	go	0.526	Go_X	1.0
513.509	0.25	stopfail	0.381	Go_O	0.0
516.043	1.0	go	0.92	Go_O	1.0
518.576	1.0	go	0.523	Go_O	1.0
521.109	1.0	go	0.504	Go_X	1.0
523.643	1.0	go	0.527	Go_O	1.0
526.176	1.0	go	0.769	Go_X	1.0
528.709	0.2	stopsuccess	0.0	Go_X	1.0
531.242	1.0	go	0.514	Go_O	1.0
533.776	1.0	go	0.987	Go_X	1.0
536.309	1.0	go	0.535	Go_X	1.0
538.842	0.25	stopsuccess	0.0	Go_O	1.0
541.376	0.3	stopfail	0.561	Go_X	0.0
543.925	0.25	stopsuccess	0.0	Go_O	1.0
546.459	1.0	go	0.832	Go_O	1.0
548.992	0.3	stopsuccess	0.0	Go_X	1.0
551.525	1.0	go	0.553	Go_O	1.0
554.059	1.0	go	0.303	Go_X	1.0
556.608	1.0	go	0.0	Go_O	0.0
559.142	1.0	go	0.258	Go_X	1.0
561.675	1.0	go	0.51	Go_O	1.0
564.208	1.0	go	0.513	Go_X	1.0
566.742	1.0	go	0.548	Go_X	1.0
569.275	1.0	go	0.487	Go_O	1.0
571.808	0.35	stopfail	0.638	Go_O	0.0
574.341	1.0	go	0.645	Go_X	1.0
576.875	1.0	go	0.606	Go_O	1.0
579.408	0.3	stopsuccess	0.0	Go_X	1.0
581.941	1.0	go	0.554	Go_O	1.0
584.475	1.0	go	0.512	Go_X	1.0
587.024	1.0	go	0.695	Go_X	1.0
589.558	1.0	go	0.523	Go_O	1.0
592.091	1.0	go	0.355	Go_X	1.0
594.624	0.35	stopfail	0.528	Go_O	0.0
597.158	1.0	go	0.72	Go_O	1.0
599.707	1.0	go	0.395	Go_O	1.0
602.241	1.0	go	0.68	Go_X	1.0
604.774	0.3	stopsuccess	0.0	Go_X	1.0
607.307	1.0	go	0.886	Go_X	1.0
609.841	0.35	stopsuccess	0.0	Go_O	1.0
612.374	1.0	go	0.388	Go_O	1.0
614.907	1.0	go	0.705	Go_O	1.0
617.44	1.0	go	0.617	Go_X	1.0
619.974	1.0	go	0.501	Go_O	1.0
622.507	1.0	go	0.604	Go_X	1.0
625.04	1.0	go	0.0	Go_O	0.0
627.574	1.0	go	0.578	Go_X	1.0
630.123	0.4	stopsuccess	0.0	Go_X	1.0
632.657	1.0	go	0.612	Go_X	1.0
635.19	1.0	go	0.0	Go_O	0.0
637.723	1.0	go	0.0	Go_X	0.0
640.257	1.0	go	0.761	Go_O	1.0
642.79	0.45	stopfail	0.641	Go_O	0.0
645.323	1.0	go	0.545	Go_X	1.0
647.856	0.4	stopsuccess	0.0	Go_X	1.0
650.39	1.0	go	0.482	Go_O	1.0
652.923	1.0	go	0.588	Go_X	1.0
655.456	0.45	stopsuccess	0.0	Go_O	1.0
657.989	1.0	go	0.969	Go_O	1.0
660.523	1.0	go	0.567	Go_X	1.0
663.056	1.0	go	0.481	Go_O	1.0
665.589	1.0	go	0.537	Go_X	1.0
668.123	1.0	go	0.46	Go_O	1.0
670.656	1.0	go	0.485	Go_X	1.0
673.189	1.0	go	0.455	Go_O	1.0
675.722	1.0	go	0.653	Go_X	1.0
678.256	1.0	go	0.0	Go_O	0.0
680.789	1.0	go	0.782	Go_O	1.0
683.322	0.5	stopfail	0.791	Go_X	0.0
685.855	1.0	go	0.953	Go_X	1.0
688.389	1.0	go	0.603	Go_O	1.0
690.922	0.45	stopsuccess	0.0	Go_O	1.0
693.455	1.0	go	0.557	Go_X	1.0
695.989	0.5	stopfail	0.796	Go_X	0.0
698.522	1.0	go	0.841	Go_X	1.0
701.055	1.0	go	0.824	Go_O	0.0
703.588	0.45	stopfail	0.618	Go_O	0.0
706.122	1.0	go	0.535	Go_X	1.0
708.655	0.4	stopsuccess	0.0	Go_X	1.0
711.188	1.0	go	0.421	Go_O	1.0
713.721	1.0	go	0.982	Go_O	0.0
716.255	1.0	go	0.613	Go_X	1.0
718.788	0.45	stopsuccess	0.0	Go_O	1.0
721.321	1.0	go	0.671	Go_O	1.0
723.855	1.0	go	0.59	Go_X	1.0
726.388	1.0	go	0.858	Go_X	1.0
728.921	1.0	go	0.662	Go_O	1.0
731.454	0.5	stopfail	0.605	Go_X	0.0
733.988	1.0	go	0.624	Go_O	1.0
736.521	1.0	go	0.49	Go_X	1.0
739.054	0.45	stopfail	0.579	Go_O	0.0
741.588	1.0	go	0.661	Go_X	1.0
744.137	1.0	go	0.684	Go_O	1.0
746.671	1.0	go	0.84	Go_O	1.0
749.204	1.0	go	0.868	Go_X	1.0
751.737	0.4	stopsuccess	0.0	Go_X	1.0
754.271	1.0	go	0.763	Go_O	1.0
756.804	0.45	stopsuccess	0.0	Go_O	1.0
759.337	1.0	go	0.701	Go_X	1.0
761.87	1.0	go	0.696	Go_O	1.0
764.404	0.5	stopsuccess	0.0	Go_X	1.0
766.937	1.0	go	0.777	Go_X	1.0
769.47	1.0	go	0.584	Go_O	1.0
772.003	1.0	go	0.591	Go_X	1.0
774.537	1.0	go	0.841	Go_O	1.0
777.07	0.55	stopfail	0.505	Go_O	0.0
779.603	1.0	go	0.469	Go_X	1.0
782.137	0.5	stopfail	0.612	Go_X	0.0
784.67	1.0	go	0.456	Go_O	1.0
787.203	1.0	go	0.527	Go_X	1.0
789.736	1.0	go	0.639	Go_O	1.0
792.27	1.0	go	0.703	Go_X	1.0
794.803	1.0	go	0.642	Go_X	1.0
797.336	1.0	go	0.685	Go_O	1.0
799.869	0.45	stopsuccess	0.0	Go_O	1.0
802.403	1.0	go	0.572	Go_O	1.0
804.936	1.0	go	0.582	Go_X	1.0
807.469	0.5	stopfail	0.626	Go_X	0.0
810.003	1.0	go	0.551	Go_O	1.0
812.536	1.0	go	0.59	Go_X	1.0
815.069	0.45	stopfail	0.498	Go_O	0.0
817.602	1.0	go	0.44	Go_X	1.0
820.136	1.0	go	0.452	Go_O	1.0
822.669	1.0	go	0.501	Go_X	1.0
825.202	1.0	go	0.456	Go_O	1.0
827.735	0.4	stopsuccess	0.0	Go_X	1.0
830.269	1.0	go	0.458	Go_X	1.0
832.802	0.45	stopsuccess	0.0	Go_O	1.0
835.335	1.0	go	0.268	Go_O	1.0
837.869	1.0	go	0.513	Go_X	1.0
840.402	1.0	go	0.428	Go_O	1.0
842.935	1.0	go	0.365	Go_X	1.0
845.468	1.0	go	0.343	Go_O	1.0
848.002	0.5	stopfail	0.416	Go_X	0.0
850.535	1.0	go	0.739	Go_X	1.0
853.068	1.0	go	0.534	Go_O	1.0
855.602	0.45	stopfail	0.491	Go_O	0.0
858.151	0.4	stopsuccess	0.0	Go_X	1.0
860.685	1.0	go	0.605	Go_X	1.0
863.218	1.0	go	0.782	Go_O	1.0
865.751	1.0	go	0.487	Go_X	1.0
868.285	1.0	go	0.0	Go_O	0.0
870.818	0.45	stopsuccess	0.0	Go_O	1.0
873.351	1.0	go	0.495	Go_O	1.0
