onset	duration	trial_type	response_time	stim_file	accuracy
104.73	1.0	go	0.668	Go_O	1.0
107.263	1.0	go	0.379	Go_X	1.0
109.796	1.0	go	0.564	Go_X	1.0
112.33	1.0	go	0.0	Go_O	0.0
114.863	1.0	go	0.344	Go_X	1.0
117.396	1.0	go	0.292	Go_O	1.0
119.93	0.25	stop	0.401	Go_O	0.0
122.463	1.0	go	0.406	Go_O	1.0
124.996	0.2	stop	0.346	Go_X	0.0
127.529	1.0	go	0.576	Go_X	1.0
130.063	1.0	go	0.55	Go_X	1.0
132.596	1.0	go	0.65	Go_O	1.0
135.129	0.15	stop	0.0	Go_O	1.0
137.663	1.0	go	0.401	Go_O	1.0
140.196	1.0	go	0.421	Go_X	1.0
142.729	0.2	stop	0.0	Go_X	1.0
145.262	0.25	stop	0.0	Go_O	1.0
147.796	1.0	go	0.374	Go_O	1.0
150.329	1.0	go	0.241	Go_X	1.0
152.862	0.3	stop	0.0	Go_X	1.0
155.396	1.0	go	0.517	Go_O	1.0
157.929	1.0	go	0.596	Go_X	1.0
160.462	0.35	stop	0.0	Go_O	1.0
162.995	1.0	go	0.642	Go_O	1.0
165.529	1.0	go	0.475	Go_X	1.0
168.062	0.4	stop	0.464	Go_X	0.0
170.595	1.0	go	0.538	Go_O	1.0
173.129	1.0	go	0.633	Go_X	1.0
175.662	0.35	stop	0.495	Go_O	0.0
178.195	1.0	go	0.462	Go_O	1.0
180.728	1.0	go	0.492	Go_X	1.0
183.262	1.0	go	0.585	Go_X	1.0
185.795	1.0	go	0.562	Go_O	1.0
188.328	1.0	go	0.605	Go_O	1.0
190.862	0.3	stop	0.0	Go_X	1.0
193.395	1.0	go	0.516	Go_X	1.0
195.928	1.0	go	0.521	Go_O	1.0
198.461	1.0	go	0.76	Go_X	1.0
200.995	1.0	go	0.7	Go_X	1.0
203.528	1.0	go	0.471	Go_O	1.0
206.061	0.35	stop	0.469	Go_O	0.0
208.595	1.0	go	0.458	Go_X	1.0
211.128	1.0	go	0.498	Go_O	1.0
213.661	1.0	go	0.545	Go_O	1.0
216.194	1.0	go	0.487	Go_X	1.0
218.728	1.0	go	0.557	Go_O	1.0
221.261	1.0	go	0.646	Go_X	1.0
223.794	0.3	stop	0.0	Go_X	1.0
226.344	1.0	go	0.441	Go_X	1.0
228.877	1.0	go	0.538	Go_O	1.0
231.411	0.35	stop	0.0	Go_O	1.0
233.944	1.0	go	0.54	Go_O	1.0
236.477	0.4	stop	0.508	Go_X	0.0
239.011	0.35	stop	0.459	Go_O	0.0
241.544	1.0	go	0.691	Go_X	1.0
244.077	1.0	go	0.523	Go_X	1.0
246.61	1.0	go	0.331	Go_O	1.0
249.144	1.0	go	0.692	Go_X	1.0
251.677	0.3	stop	0.0	Go_X	1.0
254.21	1.0	go	0.438	Go_O	1.0
256.744	0.35	stop	0.429	Go_O	0.0
259.277	1.0	go	0.628	Go_O	1.0
261.81	1.0	go	0.566	Go_X	1.0
264.343	1.0	go	0.609	Go_X	1.0
266.877	1.0	go	0.571	Go_O	1.0
269.41	1.0	go	0.744	Go_X	1.0
271.943	1.0	go	0.72	Go_O	1.0
274.477	1.0	go	0.523	Go_O	0.0
277.01	1.0	go	0.471	Go_X	1.0
279.543	1.0	go	0.583	Go_O	1.0
282.076	0.3	stop	0.0	Go_X	1.0
284.61	1.0	go	0.756	Go_X	1.0
287.143	1.0	go	0.496	Go_O	1.0
289.676	1.0	go	0.636	Go_X	1.0
292.21	0.35	stop	0.0	Go_O	1.0
294.743	1.0	go	0.632	Go_O	1.0
297.276	1.0	go	0.675	Go_X	1.0
299.809	1.0	go	0.701	Go_X	1.0
302.343	1.0	go	0.694	Go_O	1.0
304.876	1.0	go	0.582	Go_O	1.0
307.409	1.0	go	0.889	Go_X	1.0
309.943	0.4	stop	0.475	Go_X	0.0
312.476	1.0	go	0.34	Go_X	1.0
315.009	1.0	go	0.363	Go_O	1.0
317.542	0.35	stop	0.462	Go_O	0.0
320.076	1.0	go	0.462	Go_O	1.0
322.609	1.0	go	0.52	Go_X	1.0
325.142	0.3	stop	0.438	Go_X	0.0
327.676	1.0	go	0.537	Go_O	1.0
330.209	0.25	stop	0.0	Go_O	1.0
332.742	1.0	go	0.42	Go_X	1.0
335.275	1.0	go	0.64	Go_X	1.0
337.809	1.0	go	0.409	Go_O	1.0
340.342	1.0	go	0.572	Go_O	1.0
342.875	1.0	go	0.729	Go_X	1.0
345.409	0.3	stop	0.0	Go_X	1.0
347.942	0.35	stop	0.456	Go_O	0.0
350.475	1.0	go	0.886	Go_X	1.0
353.008	1.0	go	0.572	Go_O	1.0
355.542	0.3	stop	0.0	Go_X	1.0
358.075	1.0	go	0.599	Go_O	1.0
360.608	1.0	go	0.801	Go_X	1.0
363.142	1.0	go	0.721	Go_X	1.0
365.675	1.0	go	0.552	Go_O	1.0
368.208	1.0	go	0.386	Go_O	1.0
370.741	1.0	go	0.339	Go_X	1.0
373.275	0.35	stop	0.285	Go_O	0.0
375.808	1.0	go	0.359	Go_X	1.0
378.341	1.0	go	0.691	Go_O	1.0
380.875	1.0	go	0.599	Go_O	1.0
383.408	1.0	go	0.598	Go_X	1.0
385.941	1.0	go	0.57	Go_O	1.0
388.474	0.3	stop	0.0	Go_X	1.0
391.008	1.0	go	0.573	Go_X	1.0
393.541	1.0	go	0.717	Go_O	1.0
396.074	1.0	go	0.849	Go_X	1.0
398.608	1.0	go	0.914	Go_X	1.0
401.141	0.35	stop	0.0	Go_O	1.0
403.674	1.0	go	0.428	Go_O	1.0
406.207	1.0	go	0.585	Go_O	1.0
408.741	0.4	stop	0.538	Go_X	0.0
411.274	1.0	go	0.412	Go_X	1.0
413.807	0.35	stop	0.0	Go_O	1.0
416.341	1.0	go	0.685	Go_X	1.0
418.874	1.0	go	0.789	Go_O	1.0
421.407	1.0	go	0.587	Go_O	1.0
423.94	1.0	go	0.635	Go_X	1.0
426.474	1.0	go	0.669	Go_O	0.0
429.007	1.0	go	0.464	Go_X	1.0
431.54	1.0	go	0.589	Go_O	1.0
434.074	0.4	stop	0.577	Go_X	0.0
436.607	1.0	go	0.528	Go_X	1.0
439.14	1.0	go	0.49	Go_O	1.0
441.673	1.0	go	0.629	Go_X	1.0
444.207	0.35	stop	0.0	Go_O	1.0
446.74	1.0	go	0.699	Go_X	1.0
449.273	1.0	go	0.722	Go_O	1.0
451.807	1.0	go	0.691	Go_X	1.0
454.34	1.0	go	0.399	Go_O	1.0
456.873	0.4	stop	0.0	Go_X	1.0
459.406	1.0	go	0.521	Go_O	1.0
461.94	1.0	go	0.483	Go_X	1.0
464.473	0.45	stop	0.655	Go_O	0.0
467.006	1.0	go	0.652	Go_X	1.0
469.54	1.0	go	0.649	Go_O	1.0
472.073	0.4	stop	0.0	Go_X	1.0
474.606	1.0	go	0.599	Go_O	1.0
477.139	1.0	go	0.636	Go_X	1.0
479.673	0.45	stop	0.0	Go_O	1.0
482.206	1.0	go	0.721	Go_O	1.0
484.739	1.0	go	0.463	Go_X	1.0
487.273	1.0	go	0.628	Go_O	1.0
489.806	1.0	go	0.52	Go_X	1.0
492.339	1.0	go	0.521	Go_O	1.0
494.872	1.0	go	0.561	Go_X	1.0
497.406	0.5	stop	0.388	Go_X	0.0
499.939	1.0	go	0.526	Go_X	1.0
502.472	0.45	stop	0.0	Go_O	1.0
505.006	1.0	go	0.614	Go_O	1.0
507.539	1.0	go	0.678	Go_O	1.0
510.072	1.0	go	0.811	Go_X	1.0
512.605	1.0	go	0.767	Go_O	1.0
515.139	1.0	go	0.73	Go_X	1.0
517.672	0.5	stop	0.767	Go_X	0.0
520.205	1.0	go	0.583	Go_O	1.0
522.739	1.0	go	0.884	Go_X	1.0
525.272	1.0	go	0.797	Go_O	1.0
527.805	0.45	stop	0.0	Go_O	1.0
530.338	0.5	stop	0.66	Go_X	0.0
532.872	0.45	stop	0.0	Go_O	1.0
535.405	1.0	go	0.874	Go_X	1.0
537.938	0.5	stop	0.0	Go_X	1.0
540.472	1.0	go	0.81	Go_O	1.0
543.005	1.0	go	0.662	Go_X	1.0
545.538	1.0	go	0.67	Go_O	1.0
548.071	1.0	go	0.607	Go_X	1.0
550.605	1.0	go	0.771	Go_X	1.0
553.138	1.0	go	0.677	Go_O	1.0
555.671	1.0	go	0.744	Go_X	1.0
558.205	1.0	go	0.611	Go_O	1.0
560.738	0.55	stop	0.199	Go_O	0.0
563.271	1.0	go	0.51	Go_X	1.0
565.804	1.0	go	0.598	Go_O	1.0
568.338	0.5	stop	0.446	Go_X	0.0
570.871	1.0	go	0.58	Go_X	1.0
573.404	1.0	go	0.779	Go_O	1.0
575.938	1.0	go	0.634	Go_X	1.0
578.471	1.0	go	0.824	Go_O	1.0
581.004	1.0	go	0.597	Go_O	1.0
583.537	0.45	stop	0.43	Go_O	0.0
586.071	1.0	go	0.525	Go_X	1.0
588.604	1.0	go	0.863	Go_O	1.0
591.137	1.0	go	0.62	Go_X	1.0
593.671	0.4	stop	0.0	Go_X	1.0
596.204	1.0	go	0.675	Go_O	1.0
598.737	0.45	stop	0.454	Go_O	0.0
601.27	1.0	go	0.62	Go_X	1.0
603.804	1.0	go	0.392	Go_O	1.0
606.337	1.0	go	0.747	Go_X	1.0
608.87	1.0	go	0.522	Go_O	1.0
611.404	1.0	go	0.548	Go_X	1.0
613.937	1.0	go	0.554	Go_X	1.0
616.47	1.0	go	0.643	Go_O	1.0
619.003	0.4	stop	0.0	Go_X	1.0
621.537	1.0	go	0.44	Go_O	1.0
624.07	1.0	go	0.589	Go_X	1.0
626.603	1.0	go	0.0	Go_O	0.0
629.137	1.0	go	0.401	Go_X	1.0
631.67	0.45	stop	0.534	Go_O	0.0
634.203	1.0	go	0.598	Go_O	1.0
636.736	0.4	stop	0.592	Go_X	0.0
639.27	1.0	go	0.482	Go_X	0.0
641.803	1.0	go	0.357	Go_O	1.0
644.336	0.35	stop	0.341	Go_O	0.0
646.87	1.0	go	0.3	Go_X	1.0
649.403	1.0	go	0.551	Go_X	1.0
651.936	1.0	go	0.419	Go_O	1.0
654.469	1.0	go	0.513	Go_X	1.0
657.003	1.0	go	0.329	Go_O	1.0
659.536	1.0	go	0.333	Go_X	1.0
662.069	1.0	go	0.414	Go_O	1.0
664.603	1.0	go	0.479	Go_O	1.0
667.136	1.0	go	0.386	Go_X	1.0
669.669	1.0	go	0.325	Go_X	1.0
672.202	0.3	stop	0.38	Go_X	0.0
674.736	1.0	go	0.447	Go_O	1.0
677.269	1.0	go	0.446	Go_X	1.0
679.802	0.25	stop	0.382	Go_O	0.0
682.336	1.0	go	0.413	Go_O	1.0
684.885	0.2	stop	0.33	Go_X	0.0
687.419	1.0	go	0.494	Go_O	1.0
689.952	1.0	go	0.439	Go_X	1.0
692.485	0.15	stop	0.28	Go_O	0.0
695.019	1.0	go	0.299	Go_X	1.0
697.552	0.1	stop	0.0	Go_X	1.0
700.085	1.0	go	0.391	Go_O	1.0
702.618	1.0	go	0.372	Go_O	1.0
705.152	1.0	go	0.982	Go_X	1.0
707.685	0.15	stop	0.0	Go_O	1.0
710.218	1.0	go	0.584	Go_X	1.0
712.752	1.0	go	0.417	Go_O	1.0
715.285	1.0	go	0.0	Go_O	0.0
717.818	1.0	go	0.377	Go_X	1.0
720.351	0.2	stop	0.0	Go_X	1.0
722.885	1.0	go	0.473	Go_X	1.0
725.418	1.0	go	0.486	Go_O	1.0
727.951	0.25	stop	0.0	Go_O	1.0
730.485	1.0	go	0.472	Go_O	1.0
733.018	1.0	go	0.655	Go_X	1.0
735.551	1.0	go	0.528	Go_X	1.0
738.084	1.0	go	0.434	Go_O	1.0
740.618	0.3	stop	0.0	Go_X	1.0
743.151	1.0	go	0.604	Go_X	1.0
745.684	0.35	stop	0.0	Go_O	1.0
748.218	1.0	go	0.517	Go_O	1.0
750.751	1.0	go	0.633	Go_O	1.0
753.284	0.4	stop	0.0	Go_X	1.0
755.817	1.0	go	0.56	Go_X	1.0
758.351	1.0	go	0.47	Go_O	1.0
760.884	1.0	go	0.652	Go_X	1.0
763.417	1.0	go	0.671	Go_X	1.0
765.951	0.45	stop	0.0	Go_O	1.0
768.484	1.0	go	0.546	Go_O	1.0
771.017	0.5	stop	0.621	Go_X	0.0
773.55	1.0	go	0.587	Go_X	1.0
776.084	1.0	go	0.637	Go_O	1.0
778.617	1.0	go	0.643	Go_X	1.0
781.15	1.0	go	0.963	Go_O	1.0
783.684	1.0	go	0.486	Go_O	1.0
786.217	1.0	go	0.2	Go_X	1.0
788.75	0.45	stop	0.2	Go_O	0.0
791.283	1.0	go	0.274	Go_O	1.0
793.817	1.0	go	0.278	Go_X	1.0
796.35	0.4	stop	0.445	Go_X	0.0
798.883	1.0	go	0.538	Go_O	1.0
801.417	1.0	go	0.549	Go_X	1.0
803.95	0.35	stop	0.471	Go_O	0.0
806.483	1.0	go	0.461	Go_O	1.0
809.016	1.0	go	0.434	Go_X	1.0
811.55	1.0	go	0.43	Go_X	1.0
814.083	1.0	go	0.506	Go_O	1.0
816.616	0.3	stop	0.448	Go_X	0.0
819.15	1.0	go	0.476	Go_O	1.0
821.683	0.25	stop	0.427	Go_O	0.0
824.216	1.0	go	0.397	Go_X	1.0
826.749	1.0	go	0.406	Go_X	1.0
829.283	1.0	go	0.383	Go_O	1.0
831.816	1.0	go	0.443	Go_X	1.0
834.349	1.0	go	0.282	Go_O	1.0
836.883	0.2	stop	0.388	Go_X	0.0
839.416	1.0	go	0.071	Go_X	1.0
841.949	1.0	go	0.559	Go_O	1.0
844.482	0.15	stop	0.0	Go_O	1.0
847.016	0.2	stop	0.0	Go_X	1.0
849.549	1.0	go	0.463	Go_X	1.0
852.082	1.0	go	0.626	Go_O	1.0
854.616	1.0	go	0.508	Go_X	1.0
857.149	1.0	go	0.525	Go_O	0.0
859.682	0.25	stop	0.344	Go_O	0.0
862.215	1.0	go	0.35	Go_X	1.0
