frame	onset	duration	trial_type	event_type	response_type	response_time	stim_file	accuracy
0	67.856		loss-noreward	ImageDisplay1		0.0		
0	69.839	0.75	loss-noreward	StartDisplay				
0	70.589		loss-noreward	ImageDisplay2		0.0		
0	73.839	1.6	loss-noreward	ChoiceDisplay	1	0.469	1	1
0	74.323	1.131	loss-noreward	ChosenDisplay		0.0		
0	75.439	0.25	loss-noreward	TurnDisplay				
0	75.689	0.75	loss-noreward	OutcomeDisplay				
1	76.439		win-reward	ImageDisplay1		0.0		
1	78.439	0.75	win-reward	StartDisplay				
1	79.189		win-reward	ImageDisplay2		0.0		
1	82.439	1.6	win-reward	ChoiceDisplay	1	0.571	1	1
1	83.022	1.029	win-reward	ChosenDisplay		0.0		
1	84.039	0.25	win-reward	TurnDisplay				
1	84.289	0.75	win-reward	OutcomeDisplay				
2	85.039		loss-reward	ImageDisplay1		0.0		
2	87.289	0.75	loss-reward	StartDisplay				
2	88.039		loss-reward	ImageDisplay2		0.0		
2	91.039	1.6	loss-reward	ChoiceDisplay	1	0.774	1	1
2	91.839	0.826	loss-reward	ChosenDisplay		0.0		
2	92.639	0.25	loss-reward	TurnDisplay				
2	92.889	0.75	loss-reward	OutcomeDisplay				
3	93.639		control-reward	ImageDisplay1		0.0		
3	95.639	0.75	control-reward	StartDisplay				
3	96.389		control-reward	ImageDisplay2		0.0		
3	99.639	1.6	control-reward	ChoiceDisplay	1	0.488	1	1
3	100.139	1.112	control-reward	ChosenDisplay		0.0		
3	101.239	0.25	control-reward	TurnDisplay				
3	101.489	0.75	control-reward	OutcomeDisplay				
4	102.239		loss-reward	ImageDisplay1		0.0		
4	104.489	0.75	loss-reward	StartDisplay				
4	105.239		loss-reward	ImageDisplay2		0.0		
4	108.239	1.6	loss-reward	ChoiceDisplay	1	0.723	1	1
4	108.989	0.877	loss-reward	ChosenDisplay		0.0		
4	109.839	0.25	loss-reward	TurnDisplay				
4	110.089	0.75	loss-reward	OutcomeDisplay				
5	110.839		win-reward	ImageDisplay1		0.0		
5	113.089	0.75	win-reward	StartDisplay				
5	113.839		win-reward	ImageDisplay2		0.0		
5	116.839	1.6	win-reward	ChoiceDisplay	1	0.503	1	1
5	117.355	1.097	win-reward	ChosenDisplay		0.0		
5	118.438	0.25	win-reward	TurnDisplay				
5	118.688	0.75	win-reward	OutcomeDisplay				
6	119.438		win-noreward	ImageDisplay1		0.0		
6	121.438	0.75	win-noreward	StartDisplay				
6	122.188		win-noreward	ImageDisplay2		0.0		
6	125.438	1.6	win-noreward	ChoiceDisplay	1	0.645	1	1
6	126.105	0.955	win-noreward	ChosenDisplay		0.0		
6	127.038	0.25	win-noreward	TurnDisplay				
6	127.288	0.75	win-noreward	OutcomeDisplay				
7	128.038		win-reward	ImageDisplay1		0.0		
7	130.038	0.75	win-reward	StartDisplay				
7	130.788		win-reward	ImageDisplay2		0.0		
7	134.038	1.6	win-reward	ChoiceDisplay	1	0.342	1	1
7	134.405	1.258	win-reward	ChosenDisplay		0.0		
7	135.638	0.25	win-reward	TurnDisplay				
7	135.888	0.75	win-reward	OutcomeDisplay				
8	136.638		win-reward	ImageDisplay1		0.0		
8	138.888	0.75	win-reward	StartDisplay				
8	139.638		win-reward	ImageDisplay2		0.0		
8	142.638	1.6	win-reward	ChoiceDisplay	1	0.542	1	1
8	143.205	1.058	win-reward	ChosenDisplay		0.0		
8	144.238	0.25	win-reward	TurnDisplay				
8	144.488	0.75	win-reward	OutcomeDisplay				
9	145.238		loss-noreward	ImageDisplay1		0.0		
9	147.488	0.75	loss-noreward	StartDisplay				
9	148.238		loss-noreward	ImageDisplay2		0.0		
9	151.238	1.6	loss-noreward	ChoiceDisplay	1	0.292	1	1
9	151.555	1.308	loss-noreward	ChosenDisplay		0.0		
9	152.838	0.25	loss-noreward	TurnDisplay				
9	153.088	0.75	loss-noreward	OutcomeDisplay				
10	153.838		control-noreward	ImageDisplay1		0.0		
10	156.088	0.75	control-noreward	StartDisplay				
10	156.838		control-noreward	ImageDisplay2		0.0		
10	159.838	1.6	control-noreward	ChoiceDisplay	1	0.417	1	1
10	160.271	1.183	control-noreward	ChosenDisplay		0.0		
10	161.438	0.25	control-noreward	TurnDisplay				
10	161.688	0.75	control-noreward	OutcomeDisplay				
11	162.438		win-noreward	ImageDisplay1		0.0		
11	164.688	0.75	win-noreward	StartDisplay				
11	165.438		win-noreward	ImageDisplay2		0.0		
11	168.438	1.6	win-noreward	ChoiceDisplay	1	0.332	1	1
11	168.788	1.268	win-noreward	ChosenDisplay		0.0		
11	170.037	0.25	win-noreward	TurnDisplay				
11	170.288	0.75	win-noreward	OutcomeDisplay				
12	171.037		win-reward	ImageDisplay1		0.0		
12	173.037	0.75	win-reward	StartDisplay				
12	173.787		win-reward	ImageDisplay2		0.0		
12	177.037	1.6	win-reward	ChoiceDisplay	1	0.516	1	1
12	177.571	1.084	win-reward	ChosenDisplay		0.0		
12	178.637	0.25	win-reward	TurnDisplay				
12	178.887	0.75	win-reward	OutcomeDisplay				
13	179.637		loss-noreward	ImageDisplay1		0.0		
13	181.637	0.75	loss-noreward	StartDisplay				
13	182.387		loss-noreward	ImageDisplay2		0.0		
13	185.637	1.6	loss-noreward	ChoiceDisplay	1	0.727	1	1
13	186.387	0.873	loss-noreward	ChosenDisplay		0.0		
13	187.237	0.25	loss-noreward	TurnDisplay				
13	187.487	0.75	loss-noreward	OutcomeDisplay				
14	188.237		loss-noreward	ImageDisplay1		0.0		
14	190.237	0.75	loss-noreward	StartDisplay				
14	190.987		loss-noreward	ImageDisplay2		0.0		
14	194.237	1.6	loss-noreward	ChoiceDisplay	1	0.465	1	1
14	194.72	1.135	loss-noreward	ChosenDisplay		0.0		
14	195.837	0.25	loss-noreward	TurnDisplay				
14	196.087	0.75	loss-noreward	OutcomeDisplay				
15	196.837		control-noreward	ImageDisplay1		0.0		
15	199.087	0.75	control-noreward	StartDisplay				
15	199.837		control-noreward	ImageDisplay2		0.0		
15	202.837	1.6	control-noreward	ChoiceDisplay	1	0.431	1	1
15	203.287	1.169	control-noreward	ChosenDisplay		0.0		
15	204.437	0.25	control-noreward	TurnDisplay				
15	204.687	0.75	control-noreward	OutcomeDisplay				
16	205.437		control-reward	ImageDisplay1		0.0		
16	207.687	0.75	control-reward	StartDisplay				
16	208.437		control-reward	ImageDisplay2		0.0		
16	211.437	1.6	control-reward	ChoiceDisplay	1	0.21	1	1
16	211.67	1.39	control-reward	ChosenDisplay		0.0		
16	213.037	0.25	control-reward	TurnDisplay				
16	213.287	0.75	control-reward	OutcomeDisplay				
17	214.037		loss-reward	ImageDisplay1		0.0		
17	216.037	0.75	loss-reward	StartDisplay				
17	216.787		loss-reward	ImageDisplay2		0.0		
17	220.037	1.6	loss-reward	ChoiceDisplay	1	0.498	1	1
17	220.553	1.102	loss-reward	ChosenDisplay		0.0		
17	221.637	0.25	loss-reward	TurnDisplay				
17	221.887	0.75	loss-reward	OutcomeDisplay				
18	222.637		loss-noreward	ImageDisplay1		0.0		
18	224.886	0.75	loss-noreward	StartDisplay				
18	225.636		loss-noreward	ImageDisplay2		0.0		
18	228.636	1.6	loss-noreward	ChoiceDisplay	1	0.699	1	1
18	229.353	0.901	loss-noreward	ChosenDisplay		0.0		
18	230.236	0.25	loss-noreward	TurnDisplay				
18	230.486	0.75	loss-noreward	OutcomeDisplay				
19	231.236		control-noreward	ImageDisplay1		0.0		
19	233.236	0.75	control-noreward	StartDisplay				
19	233.986		control-noreward	ImageDisplay2		0.0		
19	237.236	1.6	control-noreward	ChoiceDisplay	1	0.714	1	1
19	237.97	0.886	control-noreward	ChosenDisplay		0.0		
19	238.836	0.25	control-noreward	TurnDisplay				
19	239.086	0.75	control-noreward	OutcomeDisplay				
20	239.836		loss-noreward	ImageDisplay1		0.0		
20	242.086	0.75	loss-noreward	StartDisplay				
20	242.836		loss-noreward	ImageDisplay2		0.0		
20	245.836	1.6	loss-noreward	ChoiceDisplay	1	0.447	1	1
20	246.303	1.153	loss-noreward	ChosenDisplay		0.0		
20	247.436	0.25	loss-noreward	TurnDisplay				
20	247.686	0.75	loss-noreward	OutcomeDisplay				
21	248.436		control-reward	ImageDisplay1		0.0		
21	250.686	0.75	control-reward	StartDisplay				
21	251.436		control-reward	ImageDisplay2		0.0		
21	254.436	1.6	control-reward	ChoiceDisplay	1	0.456	1	1
21	254.919	1.144	control-reward	ChosenDisplay		0.0		
21	256.036	0.25	control-reward	TurnDisplay				
21	256.286	0.75	control-reward	OutcomeDisplay				
22	257.036		loss-reward	ImageDisplay1		0.0		
22	259.286	0.75	loss-reward	StartDisplay				
22	260.036		loss-reward	ImageDisplay2		0.0		
22	263.036	1.6	loss-reward	ChoiceDisplay	1	0.503	1	1
22	263.552	1.097	loss-reward	ChosenDisplay		0.0		
22	264.636	0.25	loss-reward	TurnDisplay				
22	264.886	0.75	loss-reward	OutcomeDisplay				
23	265.636		win-noreward	ImageDisplay1		0.0		
23	267.636	0.75	win-noreward	StartDisplay				
23	268.386		win-noreward	ImageDisplay2		0.0		
23	271.636	1.6	win-noreward	ChoiceDisplay	1	0.654	1	1
23	272.302	0.946	win-noreward	ChosenDisplay		0.0		
23	273.236	0.25	win-noreward	TurnDisplay				
23	273.486	0.75	win-noreward	OutcomeDisplay				
24	274.236		loss-noreward	ImageDisplay1		0.0		
24	276.235	0.75	loss-noreward	StartDisplay				
24	276.985		loss-noreward	ImageDisplay2		0.0		
24	280.235	1.6	loss-noreward	ChoiceDisplay	1	0.373	1	1
24	280.635	1.227	loss-noreward	ChosenDisplay		0.0		
24	281.835	0.25	loss-noreward	TurnDisplay				
24	282.085	0.75	loss-noreward	OutcomeDisplay				
25	282.835		loss-reward	ImageDisplay1		0.0		
25	284.835	0.75	loss-reward	StartDisplay				
25	285.585		loss-reward	ImageDisplay2		0.0		
25	288.835	1.6	loss-reward	ChoiceDisplay	1	0.435	1	1
25	289.285	1.165	loss-reward	ChosenDisplay		0.0		
25	290.435	0.25	loss-reward	TurnDisplay				
25	290.685	0.75	loss-reward	OutcomeDisplay				
26	291.435		control-reward	ImageDisplay1		0.0		
26	293.435	0.75	control-reward	StartDisplay				
26	294.185		control-reward	ImageDisplay2		0.0		
26	297.435	1.6	control-reward	ChoiceDisplay	1	0.665	1	1
26	298.118	0.935	control-reward	ChosenDisplay		0.0		
26	299.035	0.25	control-reward	TurnDisplay				
26	299.285	0.75	control-reward	OutcomeDisplay				
27	300.035		control-reward	ImageDisplay1		0.0		
27	302.035	0.75	control-reward	StartDisplay				
27	302.785		control-reward	ImageDisplay2		0.0		
27	306.035	1.6	control-reward	ChoiceDisplay	1	0.325	1	1
27	306.385	1.275	control-reward	ChosenDisplay		0.0		
27	307.635	0.25	control-reward	TurnDisplay				
27	307.885	0.75	control-reward	OutcomeDisplay				
28	308.635		control-reward	ImageDisplay1		0.0		
28	310.635	0.75	control-reward	StartDisplay				
28	311.385		control-reward	ImageDisplay2		0.0		
28	314.635	1.6	control-reward	ChoiceDisplay	1	0.805	1	1
28	315.468	0.795	control-reward	ChosenDisplay		0.0		
28	316.235	0.25	control-reward	TurnDisplay				
28	316.485	0.75	control-reward	OutcomeDisplay				
29	317.235		control-reward	ImageDisplay1		0.0		
29	319.485	0.75	control-reward	StartDisplay				
29	320.235		control-reward	ImageDisplay2		0.0		
29	323.235	1.6	control-reward	ChoiceDisplay	1	0.263	1	1
29	323.518	1.337	control-reward	ChosenDisplay		0.0		
29	324.835	0.25	control-reward	TurnDisplay				
29	325.085	0.75	control-reward	OutcomeDisplay				
30	325.835		win-noreward	ImageDisplay1		0.0		
30	327.835	0.75	win-noreward	StartDisplay				
30	328.584		win-noreward	ImageDisplay2		0.0		
30	331.834	1.6	win-noreward	ChoiceDisplay	1	0.257	1	1
30	332.118	1.343	win-noreward	ChosenDisplay		0.0		
30	333.434	0.25	win-noreward	TurnDisplay				
30	333.684	0.75	win-noreward	OutcomeDisplay				
31	334.434		loss-reward	ImageDisplay1		0.0		
31	336.434	0.75	loss-reward	StartDisplay				
31	337.184		loss-reward	ImageDisplay2		0.0		
31	340.434	1.6	loss-reward	ChoiceDisplay	1	0.623	1	1
31	341.084	0.977	loss-reward	ChosenDisplay		0.0		
31	342.034	0.25	loss-reward	TurnDisplay				
31	342.284	0.75	loss-reward	OutcomeDisplay				
32	343.034		loss-noreward	ImageDisplay1		0.0		
32	345.034	0.75	loss-noreward	StartDisplay				
32	345.784		loss-noreward	ImageDisplay2		0.0		
32	349.034	1.6	loss-noreward	ChoiceDisplay	1	0.495	1	1
32	349.551	1.105	loss-noreward	ChosenDisplay		0.0		
32	350.634	0.25	loss-noreward	TurnDisplay				
32	350.884	0.75	loss-noreward	OutcomeDisplay				
33	351.634		loss-noreward	ImageDisplay1		0.0		
33	353.884	0.75	loss-noreward	StartDisplay				
33	354.634		loss-noreward	ImageDisplay2		0.0		
33	357.634	1.6	loss-noreward	ChoiceDisplay	1	0.608	1	1
33	358.267	0.992	loss-noreward	ChosenDisplay		0.0		
33	359.234	0.25	loss-noreward	TurnDisplay				
33	359.484	0.75	loss-noreward	OutcomeDisplay				
34	360.234		loss-reward	ImageDisplay1		0.0		
34	362.484	0.75	loss-reward	StartDisplay				
34	363.234		loss-reward	ImageDisplay2		0.0		
34	366.234	1.6	loss-reward	ChoiceDisplay	1	0.629	1	1
34	366.884	0.971	loss-reward	ChosenDisplay		0.0		
34	367.834	0.25	loss-reward	TurnDisplay				
34	368.084	0.75	loss-reward	OutcomeDisplay				
35	368.834		control-reward	ImageDisplay1		0.0		
35	371.084	0.75	control-reward	StartDisplay				
35	371.834		control-reward	ImageDisplay2		0.0		
35	374.834	1.6	control-reward	ChoiceDisplay	1	0.483	1	1
35	375.334	1.117	control-reward	ChosenDisplay		0.0		
35	376.434	0.25	control-reward	TurnDisplay				
35	376.684	0.75	control-reward	OutcomeDisplay				
36	377.434		win-reward	ImageDisplay1		0.0		
36	379.434	0.75	win-reward	StartDisplay				
36	380.184		win-reward	ImageDisplay2		0.0		
36	383.433	1.6	win-reward	ChoiceDisplay	1	0.883	1	1
36	384.333	0.717	win-reward	ChosenDisplay		0.0		
36	385.033	0.25	win-reward	TurnDisplay				
36	385.283	0.75	win-reward	OutcomeDisplay				
37	386.033		control-noreward	ImageDisplay1		0.0		
37	388.283	0.75	control-noreward	StartDisplay				
37	389.033		control-noreward	ImageDisplay2		0.0		
37	392.033	1.6	control-noreward	ChoiceDisplay	1	0.94	1	1
37	393.0	0.66	control-noreward	ChosenDisplay		0.0		
37	393.633	0.25	control-noreward	TurnDisplay				
37	393.883	0.75	control-noreward	OutcomeDisplay				
38	394.633		win-reward	ImageDisplay1		0.0		
38	396.883	0.75	win-reward	StartDisplay				
38	397.633		win-reward	ImageDisplay2		0.0		
38	400.633	1.6	win-reward	ChoiceDisplay	1	0.579	1	1
38	401.233	1.021	win-reward	ChosenDisplay		0.0		
38	402.233	0.25	win-reward	TurnDisplay				
38	402.483	0.75	win-reward	OutcomeDisplay				
39	403.233		loss-noreward	ImageDisplay1		0.0		
39	405.233	0.75	loss-noreward	StartDisplay				
39	405.983		loss-noreward	ImageDisplay2		0.0		
39	409.233	1.6	loss-noreward	ChoiceDisplay	1	0.64	1	1
39	409.9	0.96	loss-noreward	ChosenDisplay		0.0		
39	410.833	0.25	loss-noreward	TurnDisplay				
39	411.083	0.75	loss-noreward	OutcomeDisplay				
40	411.833		win-noreward	ImageDisplay1		0.0		
40	414.083	0.75	win-noreward	StartDisplay				
40	414.833		win-noreward	ImageDisplay2		0.0		
40	417.833	1.6	win-noreward	ChoiceDisplay	1	0.67	1	1
40	418.516	0.93	win-noreward	ChosenDisplay		0.0		
40	419.433	0.25	win-noreward	TurnDisplay				
40	419.683	0.75	win-noreward	OutcomeDisplay				
41	420.433		control-noreward	ImageDisplay1		0.0		
41	422.433	0.75	control-noreward	StartDisplay				
41	423.183		control-noreward	ImageDisplay2		0.0		
41	426.433	1.6	control-noreward	ChoiceDisplay	1	0.655	1	1
41	427.116	0.945	control-noreward	ChosenDisplay		0.0		
41	428.033	0.25	control-noreward	TurnDisplay				
41	428.283	0.75	control-noreward	OutcomeDisplay				
42	429.033		control-noreward	ImageDisplay1		0.0		
42	431.033	0.75	control-noreward	StartDisplay				
42	431.783		control-noreward	ImageDisplay2		0.0		
42	435.032	1.6	control-noreward	ChoiceDisplay	1	0.233	1	1
42	435.282	1.367	control-noreward	ChosenDisplay		0.0		
42	436.632	0.25	control-noreward	TurnDisplay				
42	436.882	0.75	control-noreward	OutcomeDisplay				
43	437.632		control-reward	ImageDisplay1		0.0		
43	439.632	0.75	control-reward	StartDisplay				
43	440.382		control-reward	ImageDisplay2		0.0		
43	443.632	1.6	control-reward	ChoiceDisplay	1	0.458	1	1
43	444.116	1.142	control-reward	ChosenDisplay		0.0		
43	445.232	0.25	control-reward	TurnDisplay				
43	445.482	0.75	control-reward	OutcomeDisplay				
44	446.232		loss-reward	ImageDisplay1		0.0		
44	448.482	0.75	loss-reward	StartDisplay				
44	449.232		loss-reward	ImageDisplay2		0.0		
44	452.232	1.6	loss-reward	ChoiceDisplay	1	0.63	1	1
44	452.882	0.97	loss-reward	ChosenDisplay		0.0		
44	453.832	0.25	loss-reward	TurnDisplay				
44	454.082	0.75	loss-reward	OutcomeDisplay				
45	454.832		loss-noreward	ImageDisplay1		0.0		
45	457.082	0.75	loss-noreward	StartDisplay				
45	457.832		loss-noreward	ImageDisplay2		0.0		
45	460.832	1.6	loss-noreward	ChoiceDisplay	1	0.644	1	1
45	461.499	0.956	loss-noreward	ChosenDisplay		0.0		
45	462.432	0.25	loss-noreward	TurnDisplay				
45	462.682	0.75	loss-noreward	OutcomeDisplay				
46	463.432		win-reward	ImageDisplay1		0.0		
46	465.682	0.75	win-reward	StartDisplay				
46	466.432		win-reward	ImageDisplay2		0.0		
46	469.432	1.6	win-reward	ChoiceDisplay	1	0.884	1	1
46	470.332	0.716	win-reward	ChosenDisplay		0.0		
46	471.032	0.25	win-reward	TurnDisplay				
46	471.282	0.75	win-reward	OutcomeDisplay				
47	472.032		control-noreward	ImageDisplay1		0.0		
47	474.032	0.75	control-noreward	StartDisplay				
47	474.782		control-noreward	ImageDisplay2		0.0		
47	478.032	1.6	control-noreward	ChoiceDisplay	1	0.763	1	1
47	478.815	0.837	control-noreward	ChosenDisplay		0.0		
47	479.632	0.25	control-noreward	TurnDisplay				
47	479.882	0.75	control-noreward	OutcomeDisplay				
48	480.632		win-noreward	ImageDisplay1		0.0		
48	482.882	0.75	win-noreward	StartDisplay				
48	483.632		win-noreward	ImageDisplay2		0.0		
48	486.631	1.6	win-noreward	ChoiceDisplay	1	0.711	1	1
48	487.365	0.889	win-noreward	ChosenDisplay		0.0		
48	488.231	0.25	win-noreward	TurnDisplay				
48	488.481	0.75	win-noreward	OutcomeDisplay				
49	489.231		win-noreward	ImageDisplay1		0.0		
49	491.481	0.75	win-noreward	StartDisplay				
49	492.231		win-noreward	ImageDisplay2		0.0		
49	495.231	1.6	win-noreward	ChoiceDisplay	1	0.475	1	1
49	495.731	1.125	win-noreward	ChosenDisplay		0.0		
49	496.831	0.25	win-noreward	TurnDisplay				
49	497.081	0.75	win-noreward	OutcomeDisplay				
50	497.831		control-noreward	ImageDisplay1		0.0		
50	500.081	0.75	control-noreward	StartDisplay				
50	500.831		control-noreward	ImageDisplay2		0.0		
50	503.831	1.6	control-noreward	ChoiceDisplay	1	1.125	1	1
50	504.981	0.475	control-noreward	ChosenDisplay		0.0		
50	505.431	0.25	control-noreward	TurnDisplay				
50	505.681	0.75	control-noreward	OutcomeDisplay				
51	506.431		win-noreward	ImageDisplay1		0.0		
51	508.681	0.75	win-noreward	StartDisplay				
51	509.431		win-noreward	ImageDisplay2		0.0		
51	512.431	1.6	win-noreward	ChoiceDisplay	1	0.533	1	1
51	512.981	1.067	win-noreward	ChosenDisplay		0.0		
51	514.031	0.25	win-noreward	TurnDisplay				
51	514.281	0.75	win-noreward	OutcomeDisplay				
52	515.031		control-reward	ImageDisplay1		0.0		
52	517.031	0.75	control-reward	StartDisplay				
52	517.781		control-reward	ImageDisplay2		0.0		
52	521.031	1.6	control-reward	ChoiceDisplay	1	0.341	1	1
52	521.398	1.259	control-reward	ChosenDisplay		0.0		
52	522.631	0.25	control-reward	TurnDisplay				
52	522.881	0.75	control-reward	OutcomeDisplay				
53	523.631		win-reward	ImageDisplay1		0.0		
53	525.631	0.75	win-reward	StartDisplay				
53	526.381		win-reward	ImageDisplay2		0.0		
53	529.631	1.6	win-reward	ChoiceDisplay	1	0.304	1	1
53	529.947	1.296	win-reward	ChosenDisplay		0.0		
53	531.231	0.25	win-reward	TurnDisplay				
53	531.481	0.75	win-reward	OutcomeDisplay				
54	532.231		control-reward	ImageDisplay1		0.0		
54	534.481	0.75	control-reward	StartDisplay				
54	535.231		control-reward	ImageDisplay2		0.0		
54	538.231	1.6	control-reward	ChoiceDisplay	1	0.775	1	1
54	539.031	0.825	control-reward	ChosenDisplay		0.0		
54	539.83	0.25	control-reward	TurnDisplay				
54	540.08	0.75	control-reward	OutcomeDisplay				
55	540.83		win-reward	ImageDisplay1		0.0		
55	543.08	0.75	win-reward	StartDisplay				
55	543.83		win-reward	ImageDisplay2		0.0		
55	546.83	1.6	win-reward	ChoiceDisplay	1	0.667	1	1
55	547.514	0.933	win-reward	ChosenDisplay		0.0		
55	548.43	0.25	win-reward	TurnDisplay				
55	548.68	0.75	win-reward	OutcomeDisplay				
56	549.43		control-noreward	ImageDisplay1		0.0		
56	551.68	0.75	control-noreward	StartDisplay				
56	552.43		control-noreward	ImageDisplay2		0.0		
56	555.43	1.6	control-noreward	ChoiceDisplay	1	0.741	1	1
56	556.197	0.859	control-noreward	ChosenDisplay		0.0		
56	557.03	0.25	control-noreward	TurnDisplay				
56	557.28	0.75	control-noreward	OutcomeDisplay				
57	558.03		win-noreward	ImageDisplay1		0.0		
57	560.03	0.75	win-noreward	StartDisplay				
57	560.78		win-noreward	ImageDisplay2		0.0		
57	564.03	1.6	win-noreward	ChoiceDisplay	1	0.749	1	1
57	564.797	0.851	win-noreward	ChosenDisplay		0.0		
57	565.63	0.25	win-noreward	TurnDisplay				
57	565.88	0.75	win-noreward	OutcomeDisplay				
58	566.63		loss-reward	ImageDisplay1		0.0		
58	568.63	0.75	loss-reward	StartDisplay				
58	569.38		loss-reward	ImageDisplay2		0.0		
58	572.63	1.6	loss-reward	ChoiceDisplay	1	0.55	1	1
58	573.197	1.05	loss-reward	ChosenDisplay		0.0		
58	574.23	0.25	loss-reward	TurnDisplay				
58	574.48	0.75	loss-reward	OutcomeDisplay				
59	575.23		control-noreward	ImageDisplay1		0.0		
59	577.23	0.75	control-noreward	StartDisplay				
59	577.98		control-noreward	ImageDisplay2		0.0		
59	581.23	1.6	control-noreward	ChoiceDisplay	1	0.634	1	1
59	581.88	0.966	control-noreward	ChosenDisplay		0.0		
59	582.83	0.25	control-noreward	TurnDisplay				
59	583.08	0.75	control-noreward	OutcomeDisplay				
60	583.83		win-reward	ImageDisplay1		0.0		
60	585.83	0.75	win-reward	StartDisplay				
60	586.58		win-reward	ImageDisplay2		0.0		
60	589.83	1.6	win-reward	ChoiceDisplay	1	0.955	1	1
60	590.813	0.645	win-reward	ChosenDisplay		0.0		
60	591.429	0.25	win-reward	TurnDisplay				
60	591.679	0.75	win-reward	OutcomeDisplay				
61	592.429		control-noreward	ImageDisplay1		0.0		
61	594.429	0.75	control-noreward	StartDisplay				
61	595.179		control-noreward	ImageDisplay2		0.0		
61	598.429	1.6	control-noreward	ChoiceDisplay	1	1.027	1	1
61	599.479	0.573	control-noreward	ChosenDisplay		0.0		
61	600.029	0.25	control-noreward	TurnDisplay				
61	600.279	0.75	control-noreward	OutcomeDisplay				
62	601.029		win-reward	ImageDisplay1		0.0		
62	603.029	0.75	win-reward	StartDisplay				
62	603.779		win-reward	ImageDisplay2		0.0		
62	607.029	1.6	win-reward	ChoiceDisplay	1	0.866	1	1
62	607.913	0.734	win-reward	ChosenDisplay		0.0		
62	608.629	0.25	win-reward	TurnDisplay				
62	608.879	0.75	win-reward	OutcomeDisplay				
63	609.629		control-reward	ImageDisplay1		0.0		
63	611.879	0.75	control-reward	StartDisplay				
63	612.629		control-reward	ImageDisplay2		0.0		
63	615.629	1.6	control-reward	ChoiceDisplay	1	0.293	1	1
63	615.946	1.307	control-reward	ChosenDisplay		0.0		
63	617.229	0.25	control-reward	TurnDisplay				
63	617.479	0.75	control-reward	OutcomeDisplay				
64	618.229		loss-noreward	ImageDisplay1		0.0		
64	620.479	0.75	loss-noreward	StartDisplay				
64	621.229		loss-noreward	ImageDisplay2		0.0		
64	624.229	1.6	loss-noreward	ChoiceDisplay	1	0.84	1	1
64	625.096	0.76	loss-noreward	ChosenDisplay		0.0		
64	625.829	0.25	loss-noreward	TurnDisplay				
64	626.079	0.75	loss-noreward	OutcomeDisplay				
65	626.829		win-reward	ImageDisplay1		0.0		
65	629.079	0.75	win-reward	StartDisplay				
65	629.829		win-reward	ImageDisplay2		0.0		
65	632.829	1.6	win-reward	ChoiceDisplay	1	0.365	1	1
65	633.212	1.235	win-reward	ChosenDisplay		0.0		
65	634.429	0.25	win-reward	TurnDisplay				
65	634.679	0.75	win-reward	OutcomeDisplay				
66	635.429		control-reward	ImageDisplay1		0.0		
66	637.679	0.75	control-reward	StartDisplay				
66	638.429		control-reward	ImageDisplay2		0.0		
66	641.429	1.6	control-reward	ChoiceDisplay	1	0.23	1	1
66	641.679	1.37	control-reward	ChosenDisplay		0.0		
66	643.029	0.25	control-reward	TurnDisplay				
66	643.279	0.75	control-reward	OutcomeDisplay				
67	644.029		loss-reward	ImageDisplay1		0.0		
67	646.028	0.75	loss-reward	StartDisplay				
67	646.778		loss-reward	ImageDisplay2		0.0		
67	650.028	1.6	loss-reward	ChoiceDisplay	1	0.292	1	1
67	650.345	1.308	loss-reward	ChosenDisplay		0.0		
67	651.628	0.25	loss-reward	TurnDisplay				
67	651.878	0.75	loss-reward	OutcomeDisplay				
68	652.628		win-reward	ImageDisplay1		0.0		
68	654.628	0.75	win-reward	StartDisplay				
68	655.378		win-reward	ImageDisplay2		0.0		
68	658.628	1.6	win-reward	ChoiceDisplay	1	0.74	1	1
68	659.395	0.86	win-reward	ChosenDisplay		0.0		
68	660.228	0.25	win-reward	TurnDisplay				
68	660.478	0.75	win-reward	OutcomeDisplay				
69	661.228		control-noreward	ImageDisplay1		0.0		
69	663.478	0.75	control-noreward	StartDisplay				
69	664.228		control-noreward	ImageDisplay2		0.0		
69	667.228	1.6	control-noreward	ChoiceDisplay	1	0.412	1	1
69	667.661	1.188	control-noreward	ChosenDisplay		0.0		
69	668.828	0.25	control-noreward	TurnDisplay				
69	669.078	0.75	control-noreward	OutcomeDisplay				
70	669.828		loss-reward	ImageDisplay1		0.0		
70	672.078	0.75	loss-reward	StartDisplay				
70	672.828		loss-reward	ImageDisplay2		0.0		
70	675.828	1.6	loss-reward	ChoiceDisplay	1	0.595	1	1
70	676.445	1.005	loss-reward	ChosenDisplay		0.0		
70	677.428	0.25	loss-reward	TurnDisplay				
70	677.678	0.75	loss-reward	OutcomeDisplay				
71	678.428		control-reward	ImageDisplay1		0.0		
71	680.678	0.75	control-reward	StartDisplay				
71	681.428		control-reward	ImageDisplay2		0.0		
71	684.428	1.6	control-reward	ChoiceDisplay	1	0.515	1	1
71	684.961	1.085	control-reward	ChosenDisplay		0.0		
71	686.028	0.25	control-reward	TurnDisplay				
71	686.278	0.75	control-reward	OutcomeDisplay				
72	687.028		control-noreward	ImageDisplay1		0.0		
72	689.028	0.75	control-noreward	StartDisplay				
72	689.778		control-noreward	ImageDisplay2		0.0		
72	693.028	1.6	control-noreward	ChoiceDisplay	1	0.088	1	1
72	693.144	1.512	control-noreward	ChosenDisplay		0.0		
72	694.628	0.25	control-noreward	TurnDisplay				
72	694.878	0.75	control-noreward	OutcomeDisplay				
73	695.628		win-noreward	ImageDisplay1		0.0		
73	697.877	0.75	win-noreward	StartDisplay				
73	698.627		win-noreward	ImageDisplay2		0.0		
73	701.627	1.6	win-noreward	ChoiceDisplay	1	0.512	1	1
73	702.161	1.088	win-noreward	ChosenDisplay		0.0		
73	703.227	0.25	win-noreward	TurnDisplay				
73	703.477	0.75	win-noreward	OutcomeDisplay				
74	704.227		control-noreward	ImageDisplay1		0.0		
74	706.477	0.75	control-noreward	StartDisplay				
74	707.227		control-noreward	ImageDisplay2		0.0		
74	710.227	1.6	control-noreward	ChoiceDisplay	1	1.175	1	1
74	711.427	0.425	control-noreward	ChosenDisplay		0.0		
74	711.827	0.25	control-noreward	TurnDisplay				
74	712.077	0.75	control-noreward	OutcomeDisplay				
75	712.827		loss-noreward	ImageDisplay1		0.0		
75	714.827	0.75	loss-noreward	StartDisplay				
75	715.577		loss-noreward	ImageDisplay2		0.0		
75	718.827	1.6	loss-noreward	ChoiceDisplay		0.0		
75	720.427	0.0	loss-noreward	ChosenDisplay		0.0		
75	720.444	0.25	loss-noreward	TurnDisplay				
75	720.677	0.75	loss-noreward	OutcomeDisplay				
76	721.427		loss-reward	ImageDisplay1		0.0		
76	723.427	0.75	loss-reward	StartDisplay				
76	724.177		loss-reward	ImageDisplay2		0.0		
76	727.427	1.6	loss-reward	ChoiceDisplay	1	0.579	1	1
76	728.027	1.021	loss-reward	ChosenDisplay		0.0		
76	729.027	0.25	loss-reward	TurnDisplay				
76	729.277	0.75	loss-reward	OutcomeDisplay				
77	730.027		loss-reward	ImageDisplay1		0.0		
77	732.277	0.75	loss-reward	StartDisplay				
77	733.027		loss-reward	ImageDisplay2		0.0		
77	736.027	1.6	loss-reward	ChoiceDisplay		0.0		
77	737.627	0.0	loss-reward	ChosenDisplay		0.0		
77	737.643	0.25	loss-reward	TurnDisplay				
77	737.877	0.75	loss-reward	OutcomeDisplay				
78	738.627		win-noreward	ImageDisplay1		0.0		
78	740.627	0.75	win-noreward	StartDisplay				
78	741.377		win-noreward	ImageDisplay2		0.0		
78	744.627	1.6	win-noreward	ChoiceDisplay	1	0.304	1	1
78	744.943	1.296	win-noreward	ChosenDisplay		0.0		
78	746.227	0.25	win-noreward	TurnDisplay				
78	746.477	0.75	win-noreward	OutcomeDisplay				
79	747.227		win-reward	ImageDisplay1		0.0		
79	749.477	0.75	win-reward	StartDisplay				
79	750.226		win-reward	ImageDisplay2		0.0		
79	753.226	1.6	win-reward	ChoiceDisplay	1	0.283	1	1
79	753.526	1.317	win-reward	ChosenDisplay		0.0		
79	754.826	0.25	win-reward	TurnDisplay				
79	755.076	0.75	win-reward	OutcomeDisplay				
80	755.826		control-reward	ImageDisplay1		0.0		
80	757.826	0.75	control-reward	StartDisplay				
80	758.576		control-reward	ImageDisplay2		0.0		
80	761.826	1.6	control-reward	ChoiceDisplay	1	0.417	1	1
80	762.26	1.183	control-reward	ChosenDisplay		0.0		
80	763.426	0.25	control-reward	TurnDisplay				
80	763.676	0.75	control-reward	OutcomeDisplay				
81	764.426		control-reward	ImageDisplay1		0.0		
81	766.426	0.75	control-reward	StartDisplay				
81	767.176		control-reward	ImageDisplay2		0.0		
81	770.426	1.6	control-reward	ChoiceDisplay	1	0.196	1	1
81	770.643	1.404	control-reward	ChosenDisplay		0.0		
81	772.026	0.25	control-reward	TurnDisplay				
81	772.276	0.75	control-reward	OutcomeDisplay				
82	773.026		loss-noreward	ImageDisplay1		0.0		
82	775.276	0.75	loss-noreward	StartDisplay				
82	776.026		loss-noreward	ImageDisplay2		0.0		
82	779.026	1.6	loss-noreward	ChoiceDisplay	1	0.419	1	1
82	779.459	1.181	loss-noreward	ChosenDisplay		0.0		
82	780.626	0.25	loss-noreward	TurnDisplay				
82	780.876	0.75	loss-noreward	OutcomeDisplay				
83	781.626		win-noreward	ImageDisplay1		0.0		
83	783.626	0.75	win-noreward	StartDisplay				
83	784.376		win-noreward	ImageDisplay2		0.0		
83	787.626	1.6	win-noreward	ChoiceDisplay	1	0.365	1	1
83	788.009	1.235	win-noreward	ChosenDisplay		0.0		
83	789.226	0.25	win-noreward	TurnDisplay				
83	789.476	0.75	win-noreward	OutcomeDisplay				
84	790.226		loss-reward	ImageDisplay1		0.0		
84	792.476	0.75	loss-reward	StartDisplay				
84	793.226		loss-reward	ImageDisplay2		0.0		
84	796.226	1.6	loss-reward	ChoiceDisplay	1	0.765	1	1
84	797.009	0.835	loss-reward	ChosenDisplay		0.0		
84	797.826	0.25	loss-reward	TurnDisplay				
84	798.076	0.75	loss-reward	OutcomeDisplay				
85	798.826		win-reward	ImageDisplay1		0.0		
85	801.076	0.75	win-reward	StartDisplay				
85	801.826		win-reward	ImageDisplay2		0.0		
85	804.825	1.6	win-reward	ChoiceDisplay	1	0.329	1	1
85	805.175	1.271	win-reward	ChosenDisplay		0.0		
85	806.425	0.25	win-reward	TurnDisplay				
85	806.675	0.75	win-reward	OutcomeDisplay				
86	807.425		loss-reward	ImageDisplay1		0.0		
86	809.425	0.75	loss-reward	StartDisplay				
86	810.175		loss-reward	ImageDisplay2		0.0		
86	813.425	1.6	loss-reward	ChoiceDisplay	1	0.679	1	1
86	814.125	0.921	loss-reward	ChosenDisplay		0.0		
86	815.025	0.25	loss-reward	TurnDisplay				
86	815.275	0.75	loss-reward	OutcomeDisplay				
87	816.025		control-noreward	ImageDisplay1		0.0		
87	818.275	0.75	control-noreward	StartDisplay				
87	819.025		control-noreward	ImageDisplay2		0.0		
87	822.025	1.6	control-noreward	ChoiceDisplay	1	1.569	1	1
87	823.608	0.0	control-noreward	ChosenDisplay		0.0		
87	823.642	0.25	control-noreward	TurnDisplay				
87	823.842	0.75	control-noreward	OutcomeDisplay				
88	824.592		loss-reward	ImageDisplay1		0.0		
88	826.592	0.75	loss-reward	StartDisplay				
88	827.342		loss-reward	ImageDisplay2		0.0		
88	830.592	1.6	loss-reward	ChoiceDisplay	1	0.536	1	1
88	831.142	1.064	loss-reward	ChosenDisplay		0.0		
88	832.192	0.25	loss-reward	TurnDisplay				
88	832.442	0.75	loss-reward	OutcomeDisplay				
89	833.192		win-noreward	ImageDisplay1		0.0		
89	835.192	0.75	win-noreward	StartDisplay				
89	835.942		win-noreward	ImageDisplay2		0.0		
89	839.191	1.6	win-noreward	ChoiceDisplay	1	0.575	1	1
89	839.791	1.025	win-noreward	ChosenDisplay		0.0		
89	840.791	0.25	win-noreward	TurnDisplay				
89	841.041	0.75	win-noreward	OutcomeDisplay				
90	841.791		control-noreward	ImageDisplay1		0.0		
90	843.791	0.75	control-noreward	StartDisplay				
90	844.541		control-noreward	ImageDisplay2		0.0		
90	847.791	1.6	control-noreward	ChoiceDisplay	1	0.548	1	1
90	848.358	1.052	control-noreward	ChosenDisplay		0.0		
90	849.391	0.25	control-noreward	TurnDisplay				
90	849.641	0.75	control-noreward	OutcomeDisplay				
91	850.391		win-noreward	ImageDisplay1		0.0		
91	852.641	0.75	win-noreward	StartDisplay				
91	853.391		win-noreward	ImageDisplay2		0.0		
91	856.391	1.6	win-noreward	ChoiceDisplay	1	0.587	1	1
91	856.991	1.013	win-noreward	ChosenDisplay		0.0		
91	857.991	0.25	win-noreward	TurnDisplay				
91	858.241	0.75	win-noreward	OutcomeDisplay				
92	858.991		win-reward	ImageDisplay1		0.0		
92	861.241	0.75	win-reward	StartDisplay				
92	861.991		win-reward	ImageDisplay2		0.0		
92	864.991	1.6	win-reward	ChoiceDisplay	1	0.736	1	1
92	865.741	0.864	win-reward	ChosenDisplay		0.0		
92	866.591	0.25	win-reward	TurnDisplay				
92	866.841	0.75	win-reward	OutcomeDisplay				
93	867.591		loss-reward	ImageDisplay1		0.0		
93	869.591	0.75	loss-reward	StartDisplay				
93	870.341		loss-reward	ImageDisplay2		0.0		
93	873.591	1.6	loss-reward	ChoiceDisplay	1	0.774	1	1
93	874.391	0.826	loss-reward	ChosenDisplay		0.0		
93	875.191	0.25	loss-reward	TurnDisplay				
93	875.441	0.75	loss-reward	OutcomeDisplay				
94	876.191		loss-reward	ImageDisplay1		0.0		
94	878.441	0.75	loss-reward	StartDisplay				
94	879.191		loss-reward	ImageDisplay2		0.0		
94	882.191	1.6	loss-reward	ChoiceDisplay	1	0.753	1	1
94	882.957	0.847	loss-reward	ChosenDisplay		0.0		
94	883.791	0.25	loss-reward	TurnDisplay				
94	884.041	0.75	loss-reward	OutcomeDisplay				
95	884.791		win-reward	ImageDisplay1		0.0		
95	886.791	0.75	win-reward	StartDisplay				
95	887.541		win-reward	ImageDisplay2		0.0		
95	890.791	1.6	win-reward	ChoiceDisplay	1	0.625	1	1
95	891.441	0.975	win-reward	ChosenDisplay		0.0		
95	892.39	0.25	win-reward	TurnDisplay				
95	892.64	0.75	win-reward	OutcomeDisplay				
