onset	duration	trial_type	response_time	stim_file	accuracy
64.176	1.0	go	0.525	Go_O	1.0
66.767	1.0	go	0.29	Go_X	1.0
69.291	1.0	go	0.402	Go_X	0.0
71.815	1.0	go	0.479	Go_O	1.0
74.339	1.0	go	0.348	Go_X	1.0
76.864	1.0	go	0.378	Go_O	1.0
79.388	0.25	stop	0.373	Go_O	0.0
81.912	1.0	go	0.405	Go_X	1.0
84.436	0.2	stop	0.35	Go_X	0.0
86.96	1.0	go	0.537	Go_O	1.0
89.485	1.0	go	0.439	Go_O	1.0
92.009	1.0	go	0.402	Go_X	1.0
94.533	0.15	stop	0.0	Go_O	1.0
97.057	1.0	go	0.407	Go_O	1.0
99.582	1.0	go	0.374	Go_X	1.0
102.106	0.2	stop	0.0	Go_X	1.0
104.63	0.25	stop	0.357	Go_O	0.0
107.154	1.0	go	0.479	Go_X	1.0
109.678	1.0	go	0.38	Go_O	1.0
112.203	0.2	stop	0.0	Go_X	1.0
114.727	1.0	go	0.393	Go_O	1.0
117.251	1.0	go	0.379	Go_X	1.0
119.775	0.25	stop	0.0	Go_O	1.0
122.299	1.0	go	0.312	Go_O	1.0
124.824	1.0	go	0.442	Go_X	1.0
127.348	0.3	stop	0.0	Go_X	1.0
129.872	1.0	go	0.454	Go_O	1.0
132.396	1.0	go	0.298	Go_X	1.0
134.921	0.35	stop	0.369	Go_O	0.0
137.445	1.0	go	0.646	Go_X	1.0
139.969	1.0	go	0.53	Go_O	1.0
142.493	1.0	go	0.42	Go_O	1.0
145.017	1.0	go	0.337	Go_X	1.0
147.542	1.0	go	0.813	Go_X	1.0
150.066	0.3	stop	0.523	Go_X	0.0
152.59	1.0	go	0.329	Go_O	1.0
155.114	1.0	go	0.437	Go_X	1.0
157.638	1.0	go	0.326	Go_O	0.0
160.163	1.0	go	0.453	Go_O	1.0
162.687	1.0	go	0.315	Go_X	1.0
165.211	0.25	stop	0.366	Go_O	0.0
167.735	1.0	go	0.397	Go_O	1.0
170.26	1.0	go	0.435	Go_X	1.0
172.784	1.0	go	0.378	Go_O	1.0
175.308	1.0	go	0.516	Go_X	1.0
177.832	1.0	go	0.399	Go_O	1.0
180.356	1.0	go	0.495	Go_X	1.0
182.881	0.2	stop	0.0	Go_X	1.0
185.405	1.0	go	0.445	Go_X	1.0
187.929	1.0	go	0.34	Go_O	1.0
190.453	0.25	stop	0.0	Go_O	1.0
192.977	1.0	go	0.395	Go_O	1.0
195.502	0.3	stop	0.709	Go_X	0.0
198.026	0.25	stop	0.434	Go_O	0.0
200.55	1.0	go	0.532	Go_X	1.0
203.074	1.0	go	0.629	Go_X	1.0
205.599	1.0	go	0.397	Go_O	1.0
208.123	1.0	go	0.376	Go_X	1.0
210.647	0.2	stop	0.0	Go_X	1.0
213.171	1.0	go	0.395	Go_O	1.0
215.695	0.25	stop	0.0	Go_O	1.0
218.22	1.0	go	0.559	Go_O	0.0
220.744	1.0	go	0.665	Go_X	1.0
223.268	1.0	go	0.613	Go_O	1.0
225.792	1.0	go	0.778	Go_X	1.0
228.316	1.0	go	0.377	Go_X	1.0
230.841	1.0	go	0.378	Go_O	1.0
233.365	1.0	go	0.414	Go_O	1.0
235.889	1.0	go	0.646	Go_X	1.0
238.413	1.0	go	0.426	Go_O	1.0
240.938	0.3	stop	0.0	Go_X	1.0
243.462	1.0	go	0.495	Go_X	1.0
245.986	1.0	go	0.391	Go_O	1.0
248.51	1.0	go	0.494	Go_X	1.0
251.034	0.35	stop	0.491	Go_O	0.0
253.559	1.0	go	0.536	Go_O	1.0
256.083	1.0	go	0.368	Go_X	1.0
258.607	1.0	go	0.313	Go_O	1.0
261.131	1.0	go	0.504	Go_X	1.0
263.655	1.0	go	0.52	Go_X	1.0
266.18	1.0	go	0.505	Go_O	1.0
268.704	0.3	stop	0.0	Go_X	1.0
271.228	1.0	go	0.438	Go_O	1.0
273.752	1.0	go	0.505	Go_X	1.0
276.277	0.35	stop	0.398	Go_O	0.0
278.817	1.0	go	0.555	Go_O	1.0
281.342	1.0	go	0.428	Go_X	1.0
283.866	0.3	stop	0.461	Go_X	0.0
286.39	1.0	go	0.656	Go_X	1.0
288.914	0.25	stop	0.35	Go_O	0.0
291.439	1.0	go	0.708	Go_O	1.0
293.963	1.0	go	0.474	Go_O	1.0
296.487	1.0	go	0.304	Go_X	1.0
299.011	1.0	go	0.37	Go_O	1.0
301.535	1.0	go	0.542	Go_X	1.0
304.06	0.2	stop	0.0	Go_X	1.0
306.584	0.25	stop	0.0	Go_O	1.0
309.108	1.0	go	0.627	Go_O	1.0
311.632	1.0	go	0.322	Go_X	1.0
314.156	0.3	stop	0.536	Go_X	0.0
316.681	1.0	go	0.379	Go_O	1.0
319.205	1.0	go	0.447	Go_X	1.0
321.729	1.0	go	0.419	Go_O	1.0
324.253	1.0	go	0.652	Go_X	1.0
326.778	1.0	go	0.678	Go_X	1.0
329.302	1.0	go	0.721	Go_O	1.0
331.826	0.25	stop	0.0	Go_O	1.0
334.35	1.0	go	0.477	Go_O	1.0
336.874	1.0	go	0.418	Go_X	1.0
339.415	1.0	go	0.389	Go_O	1.0
341.94	1.0	go	0.446	Go_X	1.0
344.464	1.0	go	0.408	Go_O	1.0
346.988	0.3	stop	0.47	Go_X	0.0
349.512	1.0	go	0.609	Go_X	1.0
352.036	1.0	go	0.499	Go_O	1.0
354.561	1.0	go	0.498	Go_X	1.0
357.085	1.0	go	0.616	Go_X	1.0
359.609	0.25	stop	0.0	Go_O	1.0
362.133	1.0	go	0.479	Go_O	1.0
364.657	1.0	go	0.762	Go_O	0.0
367.182	0.3	stop	0.504	Go_X	0.0
369.706	1.0	go	0.43	Go_X	1.0
372.23	0.25	stop	0.389	Go_O	0.0
374.754	1.0	go	0.677	Go_X	1.0
377.279	1.0	go	0.454	Go_O	1.0
379.803	1.0	go	0.316	Go_X	1.0
382.327	1.0	go	0.443	Go_O	1.0
384.851	1.0	go	0.28	Go_O	0.0
387.375	1.0	go	0.487	Go_X	1.0
389.9	1.0	go	0.491	Go_X	1.0
392.424	0.2	stop	0.0	Go_X	1.0
394.948	1.0	go	0.422	Go_O	1.0
397.472	1.0	go	0.288	Go_O	1.0
399.996	1.0	go	0.695	Go_X	1.0
402.521	0.25	stop	0.0	Go_O	1.0
405.045	1.0	go	0.486	Go_O	1.0
407.569	1.0	go	0.389	Go_X	1.0
410.093	1.0	go	0.0	Go_X	0.0
412.618	1.0	go	0.428	Go_O	1.0
415.142	0.3	stop	0.428	Go_X	0.0
417.666	1.0	go	0.577	Go_X	1.0
420.19	1.0	go	0.607	Go_O	1.0
422.714	0.25	stop	0.448	Go_O	0.0
425.239	1.0	go	0.441	Go_O	1.0
427.763	1.0	go	0.437	Go_X	1.0
430.287	0.2	stop	0.0	Go_X	1.0
432.811	1.0	go	0.416	Go_O	1.0
435.335	1.0	go	0.424	Go_X	1.0
437.86	0.25	stop	0.456	Go_O	0.0
440.384	1.0	go	0.544	Go_X	1.0
442.908	1.0	go	0.418	Go_O	1.0
445.432	1.0	go	0.795	Go_O	0.0
447.957	1.0	go	0.799	Go_X	1.0
450.481	1.0	go	0.616	Go_O	1.0
453.005	1.0	go	0.408	Go_X	1.0
455.529	0.2	stop	0.0	Go_X	1.0
458.053	1.0	go	0.579	Go_O	1.0
460.578	0.25	stop	0.339	Go_O	0.0
463.102	1.0	go	0.391	Go_X	1.0
465.626	1.0	go	0.586	Go_X	1.0
468.15	1.0	go	0.424	Go_O	1.0
470.674	1.0	go	0.477	Go_X	1.0
473.199	1.0	go	0.649	Go_O	1.0
475.723	0.2	stop	0.466	Go_X	0.0
478.247	1.0	go	0.467	Go_X	1.0
480.771	1.0	go	0.373	Go_O	1.0
483.295	1.0	go	0.516	Go_O	1.0
485.82	0.15	stop	0.0	Go_O	1.0
488.344	0.2	stop	0.0	Go_X	1.0
490.868	0.25	stop	0.0	Go_O	1.0
493.392	1.0	go	0.514	Go_X	1.0
495.917	0.3	stop	0.48	Go_X	0.0
498.441	1.0	go	0.398	Go_O	1.0
500.965	1.0	go	0.466	Go_X	1.0
503.489	1.0	go	0.517	Go_O	1.0
506.013	1.0	go	0.615	Go_X	1.0
508.538	1.0	go	0.434	Go_O	1.0
511.062	1.0	go	0.405	Go_X	1.0
513.586	1.0	go	0.484	Go_X	1.0
516.11	1.0	go	0.457	Go_O	1.0
518.635	0.25	stop	0.0	Go_O	1.0
521.159	1.0	go	0.371	Go_X	1.0
523.683	1.0	go	0.596	Go_O	1.0
526.207	0.3	stop	0.301	Go_X	0.0
528.731	1.0	go	0.595	Go_X	1.0
531.256	1.0	go	0.442	Go_O	1.0
533.78	1.0	go	0.41	Go_O	1.0
536.304	1.0	go	0.371	Go_X	1.0
538.828	1.0	go	0.423	Go_X	1.0
541.352	0.25	stop	0.409	Go_O	0.0
543.877	1.0	go	0.654	Go_O	1.0
546.401	1.0	go	0.292	Go_O	0.0
548.925	1.0	go	0.345	Go_X	1.0
551.449	0.2	stop	0.0	Go_X	1.0
553.973	1.0	go	0.672	Go_X	1.0
556.498	0.25	stop	0.0	Go_O	1.0
559.022	1.0	go	0.357	Go_O	1.0
561.546	1.0	go	0.814	Go_O	1.0
564.07	1.0	go	0.49	Go_X	1.0
566.595	1.0	go	0.464	Go_X	1.0
569.119	1.0	go	0.419	Go_O	1.0
571.643	1.0	go	0.593	Go_X	1.0
574.167	1.0	go	0.459	Go_O	1.0
576.691	0.3	stop	0.525	Go_X	0.0
579.216	1.0	go	0.339	Go_O	1.0
581.74	1.0	go	0.818	Go_X	0.0
584.264	1.0	go	0.656	Go_O	1.0
586.788	1.0	go	0.558	Go_X	1.0
589.312	0.25	stop	0.0	Go_O	1.0
591.837	1.0	go	0.464	Go_O	1.0
594.361	0.3	stop	0.0	Go_X	1.0
596.885	1.0	go	0.512	Go_X	1.0
599.409	1.0	go	0.457	Go_X	1.0
601.934	0.35	stop	0.504	Go_O	0.0
604.458	1.0	go	0.447	Go_O	1.0
606.982	1.0	go	0.584	Go_O	1.0
609.506	1.0	go	0.369	Go_X	1.0
612.03	1.0	go	0.537	Go_X	1.0
614.555	1.0	go	0.767	Go_O	1.0
617.079	1.0	go	0.585	Go_X	1.0
619.603	1.0	go	0.446	Go_O	1.0
622.127	1.0	go	0.547	Go_X	1.0
624.651	1.0	go	0.639	Go_O	1.0
627.176	1.0	go	0.0	Go_O	0.0
629.7	0.3	stop	0.477	Go_X	0.0
632.224	1.0	go	0.715	Go_X	1.0
634.748	1.0	go	0.634	Go_X	1.0
637.273	0.25	stop	0.501	Go_O	0.0
639.797	1.0	go	0.56	Go_O	1.0
642.321	0.2	stop	0.0	Go_X	1.0
644.845	1.0	go	0.28	Go_X	1.0
647.369	1.0	go	0.51	Go_O	1.0
649.894	0.25	stop	0.597	Go_O	0.0
652.418	1.0	go	0.354	Go_X	1.0
654.942	0.2	stop	0.0	Go_X	1.0
657.466	1.0	go	0.544	Go_O	0.0
659.99	1.0	go	0.767	Go_O	1.0
662.515	1.0	go	0.408	Go_X	1.0
665.039	0.25	stop	0.381	Go_O	0.0
667.563	1.0	go	0.614	Go_X	1.0
670.087	1.0	go	0.458	Go_O	1.0
672.612	1.0	go	0.455	Go_O	1.0
675.136	1.0	go	0.641	Go_X	1.0
677.66	0.2	stop	0.0	Go_X	1.0
680.184	1.0	go	0.739	Go_X	1.0
682.708	1.0	go	0.277	Go_O	1.0
685.233	0.25	stop	0.411	Go_O	0.0
687.757	1.0	go	0.536	Go_X	1.0
690.281	1.0	go	0.462	Go_O	1.0
692.805	1.0	go	0.48	Go_O	1.0
695.329	1.0	go	0.465	Go_X	1.0
697.854	0.2	stop	0.436	Go_X	0.0
700.378	1.0	go	0.415	Go_O	1.0
702.902	0.15	stop	0.342	Go_O	0.0
705.426	1.0	go	0.579	Go_X	1.0
707.951	1.0	go	0.356	Go_O	1.0
710.475	0.1	stop	0.0	Go_X	1.0
712.999	1.0	go	0.329	Go_X	0.0
715.523	1.0	go	0.742	Go_O	1.0
718.047	1.0	go	0.737	Go_X	1.0
720.572	1.0	go	0.499	Go_X	1.0
723.096	0.15	stop	0.0	Go_O	1.0
725.62	1.0	go	0.496	Go_O	1.0
728.144	0.2	stop	0.428	Go_X	0.0
730.668	1.0	go	0.423	Go_O	1.0
733.193	1.0	go	0.718	Go_X	1.0
735.717	1.0	go	0.74	Go_X	1.0
738.241	1.0	go	0.504	Go_O	1.0
740.765	1.0	go	0.536	Go_X	1.0
743.29	1.0	go	0.372	Go_O	1.0
745.814	0.15	stop	0.0	Go_O	1.0
748.338	1.0	go	0.403	Go_O	1.0
750.862	1.0	go	0.557	Go_X	1.0
753.386	0.2	stop	0.0	Go_X	1.0
755.911	1.0	go	0.398	Go_O	1.0
758.435	1.0	go	0.342	Go_X	1.0
760.959	0.25	stop	0.0	Go_O	1.0
763.483	1.0	go	0.38	Go_O	1.0
766.007	1.0	go	0.405	Go_X	1.0
768.532	1.0	go	0.636	Go_X	1.0
771.056	1.0	go	0.421	Go_O	1.0
773.58	0.3	stop	0.0	Go_X	1.0
776.104	1.0	go	0.373	Go_O	1.0
778.629	0.35	stop	0.522	Go_O	0.0
781.153	1.0	go	0.584	Go_X	1.0
783.677	1.0	go	0.639	Go_X	1.0
786.201	1.0	go	0.492	Go_O	1.0
788.725	1.0	go	0.341	Go_O	0.0
791.25	1.0	go	0.68	Go_X	1.0
793.774	0.3	stop	0.274	Go_X	0.0
796.298	1.0	go	0.44	Go_X	1.0
798.822	1.0	go	0.268	Go_O	1.0
801.346	0.25	stop	0.0	Go_O	1.0
803.871	0.3	stop	0.0	Go_X	1.0
806.395	1.0	go	0.731	Go_X	1.0
808.919	1.0	go	0.331	Go_O	1.0
811.443	1.0	go	0.42	Go_X	1.0
813.968	1.0	go	0.362	Go_O	1.0
816.492	0.35	stop	0.418	Go_O	0.0
819.016	1.0	go	0.549	Go_O	1.0
