frame	onset	duration	trial_type	event_type	response_type	response_time	stim_file	accuracy
0	80.706		win-noreward	ImageDisplay1		0.0		
0	82.946	0.75	win-noreward	StartDisplay				
0	83.698		win-noreward	ImageDisplay2		0.0		
0	86.69	1.6	win-noreward	ChoiceDisplay	1	0.738	1	1
0	87.442	0.862	win-noreward	ChosenDisplay		0.0		
0	88.295	0.25	win-noreward	TurnDisplay				
0	88.546	0.75	win-noreward	OutcomeDisplay				
1	89.298		win-reward	ImageDisplay1		0.0		
1	91.287	0.75	win-reward	StartDisplay				
1	92.04		win-reward	ImageDisplay2		0.0		
1	95.299	1.6	win-reward	ChoiceDisplay	1	0.547	1	1
1	95.868	1.053	win-reward	ChosenDisplay		0.0		
1	96.904	0.25	win-reward	TurnDisplay				
1	97.155	0.75	win-reward	OutcomeDisplay				
2	97.907		control-noreward	ImageDisplay1		0.0		
2	100.147	0.75	control-noreward	StartDisplay				
2	100.899		control-noreward	ImageDisplay2		0.0		
2	103.908	1.6	control-noreward	ChoiceDisplay	1	0.461	1	1
2	104.393	1.139	control-noreward	ChosenDisplay		0.0		
2	105.513	0.25	control-noreward	TurnDisplay				
2	105.764	0.75	control-noreward	OutcomeDisplay				
3	106.516		control-reward	ImageDisplay1		0.0		
3	108.756	0.75	control-reward	StartDisplay				
3	109.508		control-reward	ImageDisplay2		0.0		
3	112.517	1.6	control-reward	ChoiceDisplay	1	0.64	1	1
3	113.169	0.96	control-reward	ChosenDisplay		0.0		
3	114.122	0.25	control-reward	TurnDisplay				
3	114.373	0.75	control-reward	OutcomeDisplay				
4	115.125		win-noreward	ImageDisplay1		0.0		
4	117.365	0.75	win-noreward	StartDisplay				
4	118.118		win-noreward	ImageDisplay2		0.0		
4	121.127	1.6	win-noreward	ChoiceDisplay	1	0.551	1	1
4	121.695	1.049	win-noreward	ChosenDisplay		0.0		
4	122.731	0.25	win-noreward	TurnDisplay				
4	122.982	0.75	win-noreward	OutcomeDisplay				
5	123.734		win-noreward	ImageDisplay1		0.0		
5	125.724	0.75	win-noreward	StartDisplay				
5	126.476		win-noreward	ImageDisplay2		0.0		
5	129.736	1.6	win-noreward	ChoiceDisplay	1	0.43	1	1
5	130.187	1.17	win-noreward	ChosenDisplay		0.0		
5	131.34	0.25	win-noreward	TurnDisplay				
5	131.591	0.75	win-noreward	OutcomeDisplay				
6	132.343		win-noreward	ImageDisplay1		0.0		
6	134.583	0.75	win-noreward	StartDisplay				
6	135.336		win-noreward	ImageDisplay2		0.0		
6	138.345	1.6	win-noreward	ChoiceDisplay	1	0.452	1	1
6	138.813	1.148	win-noreward	ChosenDisplay		0.0		
6	139.949	0.25	win-noreward	TurnDisplay				
6	140.2	0.75	win-noreward	OutcomeDisplay				
7	140.952		loss-reward	ImageDisplay1		0.0		
7	142.942	0.75	loss-reward	StartDisplay				
7	143.694		loss-reward	ImageDisplay2		0.0		
7	146.954	1.6	loss-reward	ChoiceDisplay	1	0.266	1	1
7	147.238	1.334	loss-reward	ChosenDisplay		0.0		
7	148.559	0.25	loss-reward	TurnDisplay				
7	148.809	0.75	loss-reward	OutcomeDisplay				
8	149.562		loss-noreward	ImageDisplay1		0.0		
8	151.802	0.75	loss-noreward	StartDisplay				
8	152.554		loss-noreward	ImageDisplay2		0.0		
8	155.563	1.6	loss-noreward	ChoiceDisplay	1	0.278	1	1
8	155.864	1.322	loss-noreward	ChosenDisplay		0.0		
8	157.168	0.25	loss-noreward	TurnDisplay				
8	157.418	0.75	loss-noreward	OutcomeDisplay				
9	158.171		loss-reward	ImageDisplay1		0.0		
9	160.16	0.75	loss-reward	StartDisplay				
9	160.912		loss-reward	ImageDisplay2		0.0		
9	164.172	1.6	loss-reward	ChoiceDisplay	1	0.317	1	1
9	164.506	1.283	loss-reward	ChosenDisplay		0.0		
9	165.777	0.25	loss-reward	TurnDisplay				
9	166.027	0.75	loss-reward	OutcomeDisplay				
10	166.78		loss-noreward	ImageDisplay1		0.0		
10	169.02	0.75	loss-noreward	StartDisplay				
10	169.772		loss-noreward	ImageDisplay2		0.0		
10	172.781	1.6	loss-noreward	ChoiceDisplay	1	0.796	1	1
10	173.6	0.804	loss-noreward	ChosenDisplay		0.0		
10	174.386	0.25	loss-noreward	TurnDisplay				
10	174.636	0.75	loss-noreward	OutcomeDisplay				
11	175.389		win-reward	ImageDisplay1		0.0		
11	177.378	0.75	win-reward	StartDisplay				
11	178.13		win-reward	ImageDisplay2		0.0		
11	181.39	1.6	win-reward	ChoiceDisplay	1	0.21	1	1
11	181.624	1.39	win-reward	ChosenDisplay		0.0		
11	182.995	0.25	win-reward	TurnDisplay				
11	183.246	0.75	win-reward	OutcomeDisplay				
12	183.998		control-reward	ImageDisplay1		0.0		
12	186.238	0.75	control-reward	StartDisplay				
12	186.99		control-reward	ImageDisplay2		0.0		
12	189.999	1.6	control-reward	ChoiceDisplay	1	0.516	1	1
12	190.534	1.084	control-reward	ChosenDisplay		0.0		
12	191.604	0.25	control-reward	TurnDisplay				
12	191.855	0.75	control-reward	OutcomeDisplay				
13	192.607		loss-noreward	ImageDisplay1		0.0		
13	194.596	0.75	loss-noreward	StartDisplay				
13	195.348		loss-noreward	ImageDisplay2		0.0		
13	198.608	1.6	loss-noreward	ChoiceDisplay	1	0.238	1	1
13	198.859	1.362	loss-noreward	ChosenDisplay		0.0		
13	200.213	0.25	loss-noreward	TurnDisplay				
13	200.464	0.75	loss-noreward	OutcomeDisplay				
14	201.216		win-reward	ImageDisplay1		0.0		
14	203.456	0.75	win-reward	StartDisplay				
14	204.208		win-reward	ImageDisplay2		0.0		
14	207.217	1.6	win-reward	ChoiceDisplay	1	0.231	1	1
14	207.468	1.369	win-reward	ChosenDisplay		0.0		
14	208.822	0.25	win-reward	TurnDisplay				
14	209.073	0.75	win-reward	OutcomeDisplay				
15	209.825		loss-reward	ImageDisplay1		0.0		
15	212.065	0.75	loss-reward	StartDisplay				
15	212.817		loss-reward	ImageDisplay2		0.0		
15	215.826	1.6	loss-reward	ChoiceDisplay	1	0.59	1	1
15	216.428	1.01	loss-reward	ChosenDisplay		0.0		
15	217.431	0.25	loss-reward	TurnDisplay				
15	217.682	0.75	loss-reward	OutcomeDisplay				
16	218.434		control-reward	ImageDisplay1		0.0		
16	220.423	0.75	control-reward	StartDisplay				
16	221.176		control-reward	ImageDisplay2		0.0		
16	224.435	1.6	control-reward	ChoiceDisplay	1	0.33	1	1
16	224.786	1.27	control-reward	ChosenDisplay		0.0		
16	226.04	0.25	control-reward	TurnDisplay				
16	226.291	0.75	control-reward	OutcomeDisplay				
17	227.043		control-reward	ImageDisplay1		0.0		
17	229.032	0.75	control-reward	StartDisplay				
17	229.785		control-reward	ImageDisplay2		0.0		
17	233.044	1.6	control-reward	ChoiceDisplay	1	0.511	1	1
17	233.579	1.089	control-reward	ChosenDisplay		0.0		
17	234.649	0.25	control-reward	TurnDisplay				
17	234.9	0.75	control-reward	OutcomeDisplay				
18	235.652		control-noreward	ImageDisplay1		0.0		
18	237.892	0.75	control-noreward	StartDisplay				
18	238.645		control-noreward	ImageDisplay2		0.0		
18	241.654	1.6	control-noreward	ChoiceDisplay	1	0.59	1	1
18	242.255	1.01	control-noreward	ChosenDisplay		0.0		
18	243.258	0.25	control-noreward	TurnDisplay				
18	243.509	0.75	control-noreward	OutcomeDisplay				
19	244.261		control-noreward	ImageDisplay1		0.0		
19	246.501	0.75	control-noreward	StartDisplay				
19	247.254		control-noreward	ImageDisplay2		0.0		
19	250.263	1.6	control-noreward	ChoiceDisplay	1	0.105	1	1
19	250.38	1.495	control-noreward	ChosenDisplay		0.0		
19	251.867	0.25	control-noreward	TurnDisplay				
19	252.118	0.75	control-noreward	OutcomeDisplay				
20	252.87		win-reward	ImageDisplay1		0.0		
20	255.11	0.75	win-reward	StartDisplay				
20	255.863		win-reward	ImageDisplay2		0.0		
20	258.872	1.6	win-reward	ChoiceDisplay	1	0.225	1	1
20	259.122	1.375	win-reward	ChosenDisplay		0.0		
20	260.476	0.25	win-reward	TurnDisplay				
20	260.727	0.75	win-reward	OutcomeDisplay				
21	261.479		win-noreward	ImageDisplay1		0.0		
21	263.469	0.75	win-noreward	StartDisplay				
21	264.221		win-noreward	ImageDisplay2		0.0		
21	267.481	1.6	win-noreward	ChoiceDisplay	1	0.241	1	1
21	267.748	1.359	win-noreward	ChosenDisplay		0.0		
21	269.086	0.25	win-noreward	TurnDisplay				
21	269.336	0.75	win-noreward	OutcomeDisplay				
22	270.089		win-reward	ImageDisplay1		0.0		
22	272.329	0.75	win-reward	StartDisplay				
22	273.081		win-reward	ImageDisplay2		0.0		
22	276.09	1.6	win-reward	ChoiceDisplay	1	0.233	1	1
22	276.341	1.367	win-reward	ChosenDisplay		0.0		
22	277.695	0.25	win-reward	TurnDisplay				
22	277.945	0.75	win-reward	OutcomeDisplay				
23	278.698		control-reward	ImageDisplay1		0.0		
23	280.687	0.75	control-reward	StartDisplay				
23	281.439		control-reward	ImageDisplay2		0.0		
23	284.699	1.6	control-reward	ChoiceDisplay	1	0.365	1	1
23	285.083	1.235	control-reward	ChosenDisplay		0.0		
23	286.304	0.25	control-reward	TurnDisplay				
23	286.554	0.75	control-reward	OutcomeDisplay				
24	287.307		control-reward	ImageDisplay1		0.0		
24	289.547	0.75	control-reward	StartDisplay				
24	290.299		control-reward	ImageDisplay2		0.0		
24	293.308	1.6	control-reward	ChoiceDisplay	1	0.64	1	1
24	293.96	0.96	control-reward	ChosenDisplay		0.0		
24	294.913	0.25	control-reward	TurnDisplay				
24	295.164	0.75	control-reward	OutcomeDisplay				
25	295.916		win-noreward	ImageDisplay1		0.0		
25	298.156	0.75	win-noreward	StartDisplay				
25	298.908		win-noreward	ImageDisplay2		0.0		
25	301.917	1.6	win-noreward	ChoiceDisplay	1	0.243	1	1
25	302.185	1.357	win-noreward	ChosenDisplay		0.0		
25	303.522	0.25	win-noreward	TurnDisplay				
25	303.773	0.75	win-noreward	OutcomeDisplay				
26	304.525		loss-reward	ImageDisplay1		0.0		
26	306.765	0.75	loss-reward	StartDisplay				
26	307.517		loss-reward	ImageDisplay2		0.0		
26	310.526	1.6	loss-reward	ChoiceDisplay	1	0.254	1	1
26	310.794	1.346	loss-reward	ChosenDisplay		0.0		
26	312.131	0.25	loss-reward	TurnDisplay				
26	312.382	0.75	loss-reward	OutcomeDisplay				
27	313.134		loss-noreward	ImageDisplay1		0.0		
27	315.123	0.75	loss-noreward	StartDisplay				
27	315.875		loss-noreward	ImageDisplay2		0.0		
27	319.135	1.6	loss-noreward	ChoiceDisplay	1	0.229	1	1
27	319.386	1.371	loss-noreward	ChosenDisplay		0.0		
27	320.74	0.25	loss-noreward	TurnDisplay				
27	320.991	0.75	loss-noreward	OutcomeDisplay				
28	321.743		loss-reward	ImageDisplay1		0.0		
28	323.732	0.75	loss-reward	StartDisplay				
28	324.485		loss-reward	ImageDisplay2		0.0		
28	327.744	1.6	loss-reward	ChoiceDisplay	1	0.241	1	1
28	328.012	1.359	loss-reward	ChosenDisplay		0.0		
28	329.349	0.25	loss-reward	TurnDisplay				
28	329.6	0.75	loss-reward	OutcomeDisplay				
29	330.352		loss-noreward	ImageDisplay1		0.0		
29	332.341	0.75	loss-noreward	StartDisplay				
29	333.094		loss-noreward	ImageDisplay2		0.0		
29	336.353	1.6	loss-noreward	ChoiceDisplay	1	0.245	1	1
29	336.621	1.355	loss-noreward	ChosenDisplay		0.0		
29	337.958	0.25	loss-noreward	TurnDisplay				
29	338.209	0.75	loss-noreward	OutcomeDisplay				
30	338.961		control-reward	ImageDisplay1		0.0		
30	341.201	0.75	control-reward	StartDisplay				
30	341.953		control-reward	ImageDisplay2		0.0		
30	344.962	1.6	control-reward	ChoiceDisplay	1	0.728	1	1
30	345.715	0.872	control-reward	ChosenDisplay		0.0		
30	346.567	0.25	control-reward	TurnDisplay				
30	346.818	0.75	control-reward	OutcomeDisplay				
31	347.57		win-reward	ImageDisplay1		0.0		
31	349.81	0.75	win-reward	StartDisplay				
31	350.562		win-reward	ImageDisplay2		0.0		
31	353.571	1.6	win-reward	ChoiceDisplay	1	0.261	1	1
31	353.856	1.339	win-reward	ChosenDisplay		0.0		
31	355.176	0.25	win-reward	TurnDisplay				
31	355.427	0.75	win-reward	OutcomeDisplay				
32	356.179		win-reward	ImageDisplay1		0.0		
32	358.419	0.75	win-reward	StartDisplay				
32	359.172		win-reward	ImageDisplay2		0.0		
32	362.181	1.6	win-reward	ChoiceDisplay	1	0.213	1	1
32	362.415	1.387	win-reward	ChosenDisplay		0.0		
32	363.785	0.25	win-reward	TurnDisplay				
32	364.036	0.75	win-reward	OutcomeDisplay				
33	364.788		win-reward	ImageDisplay1		0.0		
33	366.778	0.75	win-reward	StartDisplay				
33	367.53		win-reward	ImageDisplay2		0.0		
33	370.79	1.6	win-reward	ChoiceDisplay	1	0.286	1	1
33	371.091	1.314	win-reward	ChosenDisplay		0.0		
33	372.394	0.25	win-reward	TurnDisplay				
33	372.645	0.75	win-reward	OutcomeDisplay				
34	373.397		control-noreward	ImageDisplay1		0.0		
34	375.387	0.75	control-noreward	StartDisplay				
34	376.139		control-noreward	ImageDisplay2		0.0		
34	379.399	1.6	control-noreward	ChoiceDisplay	1	0.353	1	1
34	379.766	1.247	control-noreward	ChosenDisplay		0.0		
34	381.004	0.25	control-noreward	TurnDisplay				
34	381.254	0.75	control-noreward	OutcomeDisplay				
35	382.007		loss-reward	ImageDisplay1		0.0		
35	383.996	0.75	loss-reward	StartDisplay				
35	384.748		loss-reward	ImageDisplay2		0.0		
35	388.008	1.6	loss-reward	ChoiceDisplay	1	0.229	1	1
35	388.259	1.371	loss-reward	ChosenDisplay		0.0		
35	389.613	0.25	loss-reward	TurnDisplay				
35	389.863	0.75	loss-reward	OutcomeDisplay				
36	390.616		loss-reward	ImageDisplay1		0.0		
36	392.856	0.75	loss-reward	StartDisplay				
36	393.608		loss-reward	ImageDisplay2		0.0		
36	396.617	1.6	loss-reward	ChoiceDisplay	1	0.395	1	1
36	397.035	1.205	loss-reward	ChosenDisplay		0.0		
36	398.222	0.25	loss-reward	TurnDisplay				
36	398.472	0.75	loss-reward	OutcomeDisplay				
37	399.225		loss-noreward	ImageDisplay1		0.0		
37	401.214	0.75	loss-noreward	StartDisplay				
37	401.966		loss-noreward	ImageDisplay2		0.0		
37	405.226	1.6	loss-noreward	ChoiceDisplay	1	0.583	1	1
37	405.828	1.017	loss-noreward	ChosenDisplay		0.0		
37	406.831	0.25	loss-noreward	TurnDisplay				
37	407.081	0.75	loss-noreward	OutcomeDisplay				
38	407.834		control-noreward	ImageDisplay1		0.0		
38	409.823	0.75	control-noreward	StartDisplay				
38	410.575		control-noreward	ImageDisplay2		0.0		
38	413.835	1.6	control-noreward	ChoiceDisplay	1	0.526	1	1
38	414.387	1.074	control-noreward	ChosenDisplay		0.0		
38	415.44	0.25	control-noreward	TurnDisplay				
38	415.691	0.75	control-noreward	OutcomeDisplay				
39	416.443		control-noreward	ImageDisplay1		0.0		
39	418.432	0.75	control-noreward	StartDisplay				
39	419.184		control-noreward	ImageDisplay2		0.0		
39	422.444	1.6	control-noreward	ChoiceDisplay	1	0.38	1	1
39	422.845	1.22	control-noreward	ChosenDisplay		0.0		
39	424.049	0.25	control-noreward	TurnDisplay				
39	424.3	0.75	control-noreward	OutcomeDisplay				
40	425.052		loss-reward	ImageDisplay1		0.0		
40	427.292	0.75	loss-reward	StartDisplay				
40	428.044		loss-reward	ImageDisplay2		0.0		
40	431.053	1.6	loss-reward	ChoiceDisplay	1	0.297	1	1
40	431.371	1.303	loss-reward	ChosenDisplay		0.0		
40	432.658	0.25	loss-reward	TurnDisplay				
40	432.909	0.75	loss-reward	OutcomeDisplay				
41	433.661		win-noreward	ImageDisplay1		0.0		
41	435.901	0.75	win-noreward	StartDisplay				
41	436.653		win-noreward	ImageDisplay2		0.0		
41	439.662	1.6	win-noreward	ChoiceDisplay	1	0.253	1	1
41	439.93	1.347	win-noreward	ChosenDisplay		0.0		
41	441.267	0.25	win-noreward	TurnDisplay				
41	441.518	0.75	win-noreward	OutcomeDisplay				
42	442.27		control-reward	ImageDisplay1		0.0		
42	444.51	0.75	control-reward	StartDisplay				
42	445.262		control-reward	ImageDisplay2		0.0		
42	448.271	1.6	control-reward	ChoiceDisplay	1	0.474	1	1
42	448.773	1.126	control-reward	ChosenDisplay		0.0		
42	449.876	0.25	control-reward	TurnDisplay				
42	450.127	0.75	control-reward	OutcomeDisplay				
43	450.879		win-reward	ImageDisplay1		0.0		
43	453.119	0.75	win-reward	StartDisplay				
43	453.871		win-reward	ImageDisplay2		0.0		
43	456.88	1.6	win-reward	ChoiceDisplay	1	0.276	1	1
43	457.181	1.324	win-reward	ChosenDisplay		0.0		
43	458.485	0.25	win-reward	TurnDisplay				
43	458.736	0.75	win-reward	OutcomeDisplay				
44	459.488		loss-noreward	ImageDisplay1		0.0		
44	461.477	0.75	loss-noreward	StartDisplay				
44	462.23		loss-noreward	ImageDisplay2		0.0		
44	465.489	1.6	loss-noreward	ChoiceDisplay	1	0.358	1	1
44	465.874	1.242	loss-noreward	ChosenDisplay		0.0		
44	467.094	0.25	loss-noreward	TurnDisplay				
44	467.345	0.75	loss-noreward	OutcomeDisplay				
45	468.097		loss-noreward	ImageDisplay1		0.0		
45	470.337	0.75	loss-noreward	StartDisplay				
45	471.09		loss-noreward	ImageDisplay2		0.0		
45	474.099	1.6	loss-noreward	ChoiceDisplay	1	0.229	1	1
45	474.349	1.371	loss-noreward	ChosenDisplay		0.0		
45	475.703	0.25	loss-noreward	TurnDisplay				
45	475.954	0.75	loss-noreward	OutcomeDisplay				
46	476.706		loss-reward	ImageDisplay1		0.0		
46	478.696	0.75	loss-reward	StartDisplay				
46	479.448		loss-reward	ImageDisplay2		0.0		
46	482.708	1.6	loss-reward	ChoiceDisplay	1	0.321	1	1
46	483.042	1.279	loss-reward	ChosenDisplay		0.0		
46	484.312	0.25	loss-reward	TurnDisplay				
46	484.563	0.75	loss-reward	OutcomeDisplay				
47	485.315		control-noreward	ImageDisplay1		0.0		
47	487.555	0.75	control-noreward	StartDisplay				
47	488.308		control-noreward	ImageDisplay2		0.0		
47	491.317	1.6	control-noreward	ChoiceDisplay	1	0.714	1	1
47	492.052	0.886	control-noreward	ChosenDisplay		0.0		
47	492.921	0.25	control-noreward	TurnDisplay				
47	493.172	0.75	control-noreward	OutcomeDisplay				
48	493.924		loss-noreward	ImageDisplay1		0.0		
48	496.165	0.75	loss-noreward	StartDisplay				
48	496.917		loss-noreward	ImageDisplay2		0.0		
48	499.926	1.6	loss-noreward	ChoiceDisplay	1	0.261	1	1
48	500.21	1.339	loss-noreward	ChosenDisplay		0.0		
48	501.531	0.25	loss-noreward	TurnDisplay				
48	501.781	0.75	loss-noreward	OutcomeDisplay				
49	502.534		loss-reward	ImageDisplay1		0.0		
49	504.774	0.75	loss-reward	StartDisplay				
49	505.526		loss-reward	ImageDisplay2		0.0		
49	508.535	1.6	loss-reward	ChoiceDisplay	1	0.497	1	1
49	509.053	1.103	loss-reward	ChosenDisplay		0.0		
49	510.14	0.25	loss-reward	TurnDisplay				
49	510.39	0.75	loss-reward	OutcomeDisplay				
50	511.143		win-reward	ImageDisplay1		0.0		
50	513.132	0.75	win-reward	StartDisplay				
50	513.884		win-reward	ImageDisplay2		0.0		
50	517.144	1.6	win-reward	ChoiceDisplay	1	0.266	1	1
50	517.428	1.334	win-reward	ChosenDisplay		0.0		
50	518.749	0.25	win-reward	TurnDisplay				
50	518.999	0.75	win-reward	OutcomeDisplay				
51	519.752		win-noreward	ImageDisplay1		0.0		
51	521.741	0.75	win-noreward	StartDisplay				
51	522.493		win-noreward	ImageDisplay2		0.0		
51	525.753	1.6	win-noreward	ChoiceDisplay	1	0.275	1	1
51	526.054	1.325	win-noreward	ChosenDisplay		0.0		
51	527.358	0.25	win-noreward	TurnDisplay				
51	527.609	0.75	win-noreward	OutcomeDisplay				
52	528.361		control-noreward	ImageDisplay1		0.0		
52	530.601	0.75	control-noreward	StartDisplay				
52	531.353		control-noreward	ImageDisplay2		0.0		
52	534.362	1.6	control-noreward	ChoiceDisplay	1	0.971	1	1
52	535.348	0.629	control-noreward	ChosenDisplay		0.0		
52	535.967	0.25	control-noreward	TurnDisplay				
52	536.218	0.75	control-noreward	OutcomeDisplay				
53	536.97		loss-noreward	ImageDisplay1		0.0		
53	539.21	0.75	loss-noreward	StartDisplay				
53	539.962		loss-noreward	ImageDisplay2		0.0		
53	542.971	1.6	loss-noreward	ChoiceDisplay	1	0.231	1	1
53	543.222	1.369	loss-noreward	ChosenDisplay		0.0		
53	544.576	0.25	loss-noreward	TurnDisplay				
53	544.827	0.75	loss-noreward	OutcomeDisplay				
54	545.579		win-reward	ImageDisplay1		0.0		
54	547.819	0.75	win-reward	StartDisplay				
54	548.571		win-reward	ImageDisplay2		0.0		
54	551.58	1.6	win-reward	ChoiceDisplay	1	0.278	1	1
54	551.881	1.322	win-reward	ChosenDisplay		0.0		
54	553.185	0.25	win-reward	TurnDisplay				
54	553.436	0.75	win-reward	OutcomeDisplay				
55	554.188		win-reward	ImageDisplay1		0.0		
55	556.177	0.75	win-reward	StartDisplay				
55	556.93		win-reward	ImageDisplay2		0.0		
55	560.189	1.6	win-reward	ChoiceDisplay	1	0.313	1	1
55	560.524	1.287	win-reward	ChosenDisplay		0.0		
55	561.794	0.25	win-reward	TurnDisplay				
55	562.045	0.75	win-reward	OutcomeDisplay				
56	562.797		win-noreward	ImageDisplay1		0.0		
56	565.037	0.75	win-noreward	StartDisplay				
56	565.789		win-noreward	ImageDisplay2		0.0		
56	568.798	1.6	win-noreward	ChoiceDisplay	1	0.713	1	1
56	569.534	0.887	win-noreward	ChosenDisplay		0.0		
56	570.403	0.25	win-noreward	TurnDisplay				
56	570.654	0.75	win-noreward	OutcomeDisplay				
57	571.406		control-noreward	ImageDisplay1		0.0		
57	573.646	0.75	control-noreward	StartDisplay				
57	574.398		control-noreward	ImageDisplay2		0.0		
57	577.407	1.6	control-noreward	ChoiceDisplay	1	0.26	1	1
57	577.692	1.34	control-noreward	ChosenDisplay		0.0		
57	579.012	0.25	control-noreward	TurnDisplay				
57	579.263	0.75	control-noreward	OutcomeDisplay				
58	580.015		loss-reward	ImageDisplay1		0.0		
58	582.004	0.75	loss-reward	StartDisplay				
58	582.757		loss-reward	ImageDisplay2		0.0		
58	586.016	1.6	loss-reward	ChoiceDisplay	1	0.25	1	1
58	586.284	1.35	loss-reward	ChosenDisplay		0.0		
58	587.621	0.25	loss-reward	TurnDisplay				
58	587.872	0.75	loss-reward	OutcomeDisplay				
59	588.624		loss-reward	ImageDisplay1		0.0		
59	590.614	0.75	loss-reward	StartDisplay				
59	591.366		loss-reward	ImageDisplay2		0.0		
59	594.626	1.6	loss-reward	ChoiceDisplay	1	0.24	1	1
59	594.893	1.36	loss-reward	ChosenDisplay		0.0		
59	596.23	0.25	loss-reward	TurnDisplay				
59	596.481	0.75	loss-reward	OutcomeDisplay				
60	597.233		win-reward	ImageDisplay1		0.0		
60	599.223	0.75	win-reward	StartDisplay				
60	599.975		win-reward	ImageDisplay2		0.0		
60	603.235	1.6	win-reward	ChoiceDisplay	1	0.236	1	1
60	603.485	1.364	win-reward	ChosenDisplay		0.0		
60	604.839	0.25	win-reward	TurnDisplay				
60	605.09	0.75	win-reward	OutcomeDisplay				
61	605.842		control-noreward	ImageDisplay1		0.0		
61	607.832	0.75	control-noreward	StartDisplay				
61	608.584		control-noreward	ImageDisplay2		0.0		
61	611.844	1.6	control-noreward	ChoiceDisplay	1	0.338	1	1
61	612.195	1.262	control-noreward	ChosenDisplay		0.0		
61	613.448	0.25	control-noreward	TurnDisplay				
61	613.699	0.75	control-noreward	OutcomeDisplay				
62	614.452		control-noreward	ImageDisplay1		0.0		
62	616.441	0.75	control-noreward	StartDisplay				
62	617.193		control-noreward	ImageDisplay2		0.0		
62	620.453	1.6	control-noreward	ChoiceDisplay	1	0.595	1	1
62	621.071	1.005	control-noreward	ChosenDisplay		0.0		
62	622.058	0.25	control-noreward	TurnDisplay				
62	622.308	0.75	control-noreward	OutcomeDisplay				
63	623.061		control-noreward	ImageDisplay1		0.0		
63	625.05	0.75	control-noreward	StartDisplay				
63	625.802		control-noreward	ImageDisplay2		0.0		
63	629.062	1.6	control-noreward	ChoiceDisplay	1	0.458	1	1
63	629.547	1.142	control-noreward	ChosenDisplay		0.0		
63	630.667	0.25	control-noreward	TurnDisplay				
63	630.917	0.75	control-noreward	OutcomeDisplay				
64	631.67		win-reward	ImageDisplay1		0.0		
64	633.91	0.75	win-reward	StartDisplay				
64	634.662		win-reward	ImageDisplay2		0.0		
64	637.671	1.6	win-reward	ChoiceDisplay	1	0.264	1	1
64	637.955	1.336	win-reward	ChosenDisplay		0.0		
64	639.276	0.25	win-reward	TurnDisplay				
64	639.526	0.75	win-reward	OutcomeDisplay				
65	640.279		win-reward	ImageDisplay1		0.0		
65	642.519	0.75	win-reward	StartDisplay				
65	643.271		win-reward	ImageDisplay2		0.0		
65	646.28	1.6	win-reward	ChoiceDisplay	1	0.609	1	1
65	646.915	0.991	win-reward	ChosenDisplay		0.0		
65	647.885	0.25	win-reward	TurnDisplay				
65	648.136	0.75	win-reward	OutcomeDisplay				
66	648.888		control-reward	ImageDisplay1		0.0		
66	651.128	0.75	control-reward	StartDisplay				
66	651.88		control-reward	ImageDisplay2		0.0		
66	654.889	1.6	control-reward	ChoiceDisplay	1	0.407	1	1
66	655.307	1.193	control-reward	ChosenDisplay		0.0		
66	656.494	0.25	control-reward	TurnDisplay				
66	656.745	0.75	control-reward	OutcomeDisplay				
67	657.497		control-reward	ImageDisplay1		0.0		
67	659.486	0.75	control-reward	StartDisplay				
67	660.238		control-reward	ImageDisplay2		0.0		
67	663.498	1.6	control-reward	ChoiceDisplay	1	0.472	1	1
67	663.983	1.128	control-reward	ChosenDisplay		0.0		
67	665.103	0.25	control-reward	TurnDisplay				
67	665.354	0.75	control-reward	OutcomeDisplay				
68	666.106		loss-noreward	ImageDisplay1		0.0		
68	668.095	0.75	loss-noreward	StartDisplay				
68	668.847		loss-noreward	ImageDisplay2		0.0		
68	672.107	1.6	loss-noreward	ChoiceDisplay	1	0.257	1	1
68	672.391	1.343	loss-noreward	ChosenDisplay		0.0		
68	673.712	0.25	loss-noreward	TurnDisplay				
68	673.963	0.75	loss-noreward	OutcomeDisplay				
69	674.715		win-reward	ImageDisplay1		0.0		
69	676.704	0.75	win-reward	StartDisplay				
69	677.457		win-reward	ImageDisplay2		0.0		
69	680.716	1.6	win-reward	ChoiceDisplay	1	0.243	1	1
69	680.984	1.357	win-reward	ChosenDisplay		0.0		
69	682.321	0.25	win-reward	TurnDisplay				
69	682.572	0.75	win-reward	OutcomeDisplay				
70	683.324		win-noreward	ImageDisplay1		0.0		
70	685.313	0.75	win-noreward	StartDisplay				
70	686.066		win-noreward	ImageDisplay2		0.0		
70	689.325	1.6	win-noreward	ChoiceDisplay	1	0.375	1	1
70	689.727	1.225	win-noreward	ChosenDisplay		0.0		
70	690.93	0.25	win-noreward	TurnDisplay				
70	691.181	0.75	win-noreward	OutcomeDisplay				
71	691.933		loss-noreward	ImageDisplay1		0.0		
71	693.922	0.75	loss-noreward	StartDisplay				
71	694.675		loss-noreward	ImageDisplay2		0.0		
71	697.934	1.6	loss-noreward	ChoiceDisplay	1	0.336	1	1
71	698.285	1.264	loss-noreward	ChosenDisplay		0.0		
71	699.539	0.25	loss-noreward	TurnDisplay				
71	699.79	0.75	loss-noreward	OutcomeDisplay				
72	700.542		loss-reward	ImageDisplay1		0.0		
72	702.782	0.75	loss-reward	StartDisplay				
72	703.535		loss-reward	ImageDisplay2		0.0		
72	706.544	1.6	loss-reward	ChoiceDisplay	1	0.336	1	1
72	706.895	1.264	loss-reward	ChosenDisplay		0.0		
72	708.148	0.25	loss-reward	TurnDisplay				
72	708.399	0.75	loss-reward	OutcomeDisplay				
73	709.151		loss-noreward	ImageDisplay1		0.0		
73	711.391	0.75	loss-noreward	StartDisplay				
73	712.144		loss-noreward	ImageDisplay2		0.0		
73	715.153	1.6	loss-noreward	ChoiceDisplay	1	0.333	1	1
73	715.504	1.267	loss-noreward	ChosenDisplay		0.0		
73	716.757	0.25	loss-noreward	TurnDisplay				
73	717.008	0.75	loss-noreward	OutcomeDisplay				
74	717.76		win-noreward	ImageDisplay1		0.0		
74	719.75	0.75	win-noreward	StartDisplay				
74	720.502		win-noreward	ImageDisplay2		0.0		
74	723.762	1.6	win-noreward	ChoiceDisplay	1	0.244	1	1
74	724.029	1.356	win-noreward	ChosenDisplay		0.0		
74	725.366	0.25	win-noreward	TurnDisplay				
74	725.617	0.75	win-noreward	OutcomeDisplay				
75	726.369		loss-reward	ImageDisplay1		0.0		
75	728.359	0.75	loss-reward	StartDisplay				
75	729.111		loss-reward	ImageDisplay2		0.0		
75	732.371	1.6	loss-reward	ChoiceDisplay	1	0.285	1	1
75	732.672	1.315	loss-reward	ChosenDisplay		0.0		
75	733.976	0.25	loss-reward	TurnDisplay				
75	734.226	0.75	loss-reward	OutcomeDisplay				
76	734.979		loss-noreward	ImageDisplay1		0.0		
76	737.219	0.75	loss-noreward	StartDisplay				
76	737.971		loss-noreward	ImageDisplay2		0.0		
76	740.98	1.6	loss-noreward	ChoiceDisplay	1	0.608	1	1
76	741.615	0.992	loss-noreward	ChosenDisplay		0.0		
76	742.585	0.25	loss-noreward	TurnDisplay				
76	742.835	0.75	loss-noreward	OutcomeDisplay				
77	743.588		win-noreward	ImageDisplay1		0.0		
77	745.577	0.75	win-noreward	StartDisplay				
77	746.329		win-noreward	ImageDisplay2		0.0		
77	749.589	1.6	win-noreward	ChoiceDisplay	1	0.242	1	1
77	749.856	1.358	win-noreward	ChosenDisplay		0.0		
77	751.194	0.25	win-noreward	TurnDisplay				
77	751.444	0.75	win-noreward	OutcomeDisplay				
78	752.197		control-reward	ImageDisplay1		0.0		
78	754.437	0.75	control-reward	StartDisplay				
78	755.189		control-reward	ImageDisplay2		0.0		
78	758.198	1.6	control-reward	ChoiceDisplay	1	0.662	1	1
78	758.883	0.938	control-reward	ChosenDisplay		0.0		
78	759.803	0.25	control-reward	TurnDisplay				
78	760.054	0.75	control-reward	OutcomeDisplay				
79	760.806		loss-reward	ImageDisplay1		0.0		
79	763.046	0.75	loss-reward	StartDisplay				
79	763.798		loss-reward	ImageDisplay2		0.0		
79	766.807	1.6	loss-reward	ChoiceDisplay	1	0.458	1	1
79	767.292	1.142	loss-reward	ChosenDisplay		0.0		
79	768.412	0.25	loss-reward	TurnDisplay				
79	768.663	0.75	loss-reward	OutcomeDisplay				
80	769.415		control-noreward	ImageDisplay1		0.0		
80	771.655	0.75	control-noreward	StartDisplay				
80	772.407		control-noreward	ImageDisplay2		0.0		
80	775.416	1.6	control-noreward	ChoiceDisplay	1	0.809	1	1
80	776.252	0.791	control-noreward	ChosenDisplay		0.0		
80	777.021	0.25	control-noreward	TurnDisplay				
80	777.272	0.75	control-noreward	OutcomeDisplay				
81	778.024		win-noreward	ImageDisplay1		0.0		
81	780.264	0.75	win-noreward	StartDisplay				
81	781.016		win-noreward	ImageDisplay2		0.0		
81	784.025	1.6	win-noreward	ChoiceDisplay	1	0.273	1	1
81	784.309	1.327	win-noreward	ChosenDisplay		0.0		
81	785.63	0.25	win-noreward	TurnDisplay				
81	785.881	0.75	win-noreward	OutcomeDisplay				
82	786.633		loss-reward	ImageDisplay1		0.0		
82	788.873	0.75	loss-reward	StartDisplay				
82	789.625		loss-reward	ImageDisplay2		0.0		
82	792.634	1.6	loss-reward	ChoiceDisplay	1	0.252	1	1
82	792.902	1.348	loss-reward	ChosenDisplay		0.0		
82	794.239	0.25	loss-reward	TurnDisplay				
82	794.49	0.75	loss-reward	OutcomeDisplay				
83	795.242		loss-reward	ImageDisplay1		0.0		
83	797.482	0.75	loss-reward	StartDisplay				
83	798.234		loss-reward	ImageDisplay2		0.0		
83	801.243	1.6	loss-reward	ChoiceDisplay	1	0.61	1	1
83	801.879	0.99	loss-reward	ChosenDisplay		0.0		
83	802.848	0.25	loss-reward	TurnDisplay				
83	803.099	0.75	loss-reward	OutcomeDisplay				
84	803.851		control-reward	ImageDisplay1		0.0		
84	805.84	0.75	control-reward	StartDisplay				
84	806.593		control-reward	ImageDisplay2		0.0		
84	809.852	1.6	control-reward	ChoiceDisplay	1	0.201	1	1
84	810.07	1.399	control-reward	ChosenDisplay		0.0		
84	811.457	0.25	control-reward	TurnDisplay				
84	811.708	0.75	control-reward	OutcomeDisplay				
85	812.46		control-reward	ImageDisplay1		0.0		
85	814.7	0.75	control-reward	StartDisplay				
85	815.452		control-reward	ImageDisplay2		0.0		
85	818.461	1.6	control-reward	ChoiceDisplay	1	0.582	1	1
85	819.063	1.018	control-reward	ChosenDisplay		0.0		
85	820.066	0.25	control-reward	TurnDisplay				
85	820.317	0.75	control-reward	OutcomeDisplay				
86	821.069		control-noreward	ImageDisplay1		0.0		
86	823.309	0.75	control-noreward	StartDisplay				
86	824.062		control-noreward	ImageDisplay2		0.0		
86	827.071	1.6	control-noreward	ChoiceDisplay	1	0.231	1	1
86	827.321	1.369	control-noreward	ChosenDisplay		0.0		
86	828.675	0.25	control-noreward	TurnDisplay				
86	828.926	0.75	control-noreward	OutcomeDisplay				
87	829.678		loss-reward	ImageDisplay1		0.0		
87	831.668	0.75	loss-reward	StartDisplay				
87	832.42		loss-reward	ImageDisplay2		0.0		
87	835.68	1.6	loss-reward	ChoiceDisplay	1	0.2	1	1
87	835.897	1.4	loss-reward	ChosenDisplay		0.0		
87	837.284	0.25	loss-reward	TurnDisplay				
87	837.535	0.75	loss-reward	OutcomeDisplay				
88	838.287		win-reward	ImageDisplay1		0.0		
88	840.277	0.75	win-reward	StartDisplay				
88	841.029		win-reward	ImageDisplay2		0.0		
88	844.289	1.6	win-reward	ChoiceDisplay	1	0.226	1	1
88	844.539	1.374	win-reward	ChosenDisplay		0.0		
88	845.893	0.25	win-reward	TurnDisplay				
88	846.144	0.75	win-reward	OutcomeDisplay				
89	846.897		win-noreward	ImageDisplay1		0.0		
89	848.886	0.75	win-noreward	StartDisplay				
89	849.638		win-noreward	ImageDisplay2		0.0		
89	852.898	1.6	win-noreward	ChoiceDisplay	1	0.224	1	1
89	853.149	1.376	win-noreward	ChosenDisplay		0.0		
89	854.503	0.25	win-noreward	TurnDisplay				
89	854.753	0.75	win-noreward	OutcomeDisplay				
90	855.506		control-reward	ImageDisplay1		0.0		
90	857.495	0.75	control-reward	StartDisplay				
90	858.247		control-reward	ImageDisplay2		0.0		
90	861.507	1.6	control-reward	ChoiceDisplay	1	0.26	1	1
90	861.791	1.34	control-reward	ChosenDisplay		0.0		
90	863.112	0.25	control-reward	TurnDisplay				
90	863.362	0.75	control-reward	OutcomeDisplay				
91	864.115		control-reward	ImageDisplay1		0.0		
91	866.104	0.75	control-reward	StartDisplay				
91	866.856		control-reward	ImageDisplay2		0.0		
91	870.116	1.6	control-reward	ChoiceDisplay	1	0.706	1	1
91	870.835	0.894	control-reward	ChosenDisplay		0.0		
91	871.721	0.25	control-reward	TurnDisplay				
91	871.971	0.75	control-reward	OutcomeDisplay				
92	872.724		control-noreward	ImageDisplay1		0.0		
92	874.713	0.75	control-noreward	StartDisplay				
92	875.465		control-noreward	ImageDisplay2		0.0		
92	878.725	1.6	control-noreward	ChoiceDisplay	1	0.628	1	1
92	879.377	0.972	control-noreward	ChosenDisplay		0.0		
92	880.33	0.25	control-noreward	TurnDisplay				
92	880.581	0.75	control-noreward	OutcomeDisplay				
93	881.333		control-noreward	ImageDisplay1		0.0		
93	883.322	0.75	control-noreward	StartDisplay				
93	884.074		control-noreward	ImageDisplay2		0.0		
93	887.334	1.6	control-noreward	ChoiceDisplay	1	0.467	1	1
93	887.819	1.133	control-noreward	ChosenDisplay		0.0		
93	888.939	0.25	control-noreward	TurnDisplay				
93	889.19	0.75	control-noreward	OutcomeDisplay				
94	889.942		control-reward	ImageDisplay1		0.0		
94	891.931	0.75	control-reward	StartDisplay				
94	892.683		control-reward	ImageDisplay2		0.0		
94	895.943	1.6	control-reward	ChoiceDisplay	1	0.426	1	1
94	896.394	1.174	control-reward	ChosenDisplay		0.0		
94	897.548	0.25	control-reward	TurnDisplay				
94	897.799	0.75	control-reward	OutcomeDisplay				
95	898.551		win-reward	ImageDisplay1		0.0		
95	900.54	0.75	win-reward	StartDisplay				
95	901.292		win-reward	ImageDisplay2		0.0		
95	904.552	1.6	win-reward	ChoiceDisplay	1	0.266	1	1
95	904.836	1.334	win-reward	ChosenDisplay		0.0		
95	906.157	0.25	win-reward	TurnDisplay				
95	906.408	0.75	win-reward	OutcomeDisplay				
