onset	duration	trial_type	response_time	stim_file	accuracy
88.871	1.0	go	0.917	Go_X	1.0
91.454	1.0	go	0.444	Go_O	1.0
93.988	1.0	go	0.557	Go_X	1.0
96.521	1.0	go	0.518	Go_O	1.0
99.054	1.0	go	0.609	Go_X	1.0
101.587	1.0	go	0.413	Go_O	1.0
104.121	0.25	stop	0.0	Go_O	1.0
106.654	1.0	go	0.299	Go_X	1.0
109.187	0.3	stop	0.0	Go_X	1.0
111.72	1.0	go	0.327	Go_O	1.0
114.254	1.0	go	0.45	Go_O	1.0
116.787	1.0	go	0.568	Go_X	1.0
119.32	0.35	stop	0.333	Go_O	0.0
121.853	1.0	go	0.396	Go_X	1.0
124.387	1.0	go	0.518	Go_O	1.0
126.92	0.3	stop	0.428	Go_X	0.0
129.453	0.25	stop	0.397	Go_O	0.0
131.986	1.0	go	0.568	Go_O	1.0
134.52	1.0	go	0.437	Go_X	1.0
137.053	0.2	stop	0.0	Go_X	1.0
139.586	1.0	go	0.435	Go_O	1.0
142.119	1.0	go	0.653	Go_X	1.0
144.653	0.25	stop	0.0	Go_O	1.0
147.186	1.0	go	0.442	Go_O	1.0
149.719	1.0	go	0.562	Go_X	1.0
152.252	0.3	stop	0.0	Go_X	1.0
154.786	1.0	go	0.38	Go_X	1.0
157.319	1.0	go	0.476	Go_O	1.0
159.852	0.35	stop	0.0	Go_O	1.0
162.385	1.0	go	0.557	Go_O	1.0
164.919	1.0	go	0.45	Go_X	1.0
167.452	1.0	go	0.616	Go_O	1.0
169.985	1.0	go	0.655	Go_X	1.0
172.518	1.0	go	0.669	Go_X	1.0
175.052	0.4	stop	0.0	Go_X	1.0
177.585	1.0	go	0.539	Go_O	1.0
180.118	1.0	go	0.57	Go_X	1.0
182.651	1.0	go	0.83	Go_O	1.0
185.185	1.0	go	0.813	Go_O	1.0
187.718	1.0	go	0.618	Go_X	1.0
190.251	0.45	stop	0.0	Go_O	1.0
192.784	1.0	go	0.442	Go_O	1.0
195.318	1.0	go	0.557	Go_X	1.0
197.851	1.0	go	0.619	Go_X	1.0
200.384	1.0	go	0.627	Go_O	1.0
202.917	1.0	go	0.759	Go_X	1.0
205.451	1.0	go	0.611	Go_O	1.0
207.984	0.5	stop	0.0	Go_X	1.0
210.517	1.0	go	0.505	Go_X	1.0
213.05	1.0	go	0.45	Go_O	1.0
215.584	0.55	stop	0.469	Go_O	0.0
218.117	1.0	go	0.428	Go_X	1.0
220.65	0.5	stop	0.535	Go_X	0.0
223.183	0.45	stop	0.489	Go_O	0.0
225.717	1.0	go	0.592	Go_O	1.0
228.25	1.0	go	0.498	Go_O	1.0
230.783	1.0	go	0.314	Go_X	1.0
233.316	1.0	go	0.701	Go_X	1.0
235.85	0.4	stop	0.0	Go_X	1.0
238.383	1.0	go	0.516	Go_O	1.0
240.916	0.45	stop	0.575	Go_O	0.0
243.449	1.0	go	0.828	Go_O	1.0
245.983	1.0	go	0.745	Go_X	1.0
248.516	1.0	go	0.662	Go_O	1.0
251.049	1.0	go	0.716	Go_X	1.0
253.583	1.0	go	0.635	Go_X	1.0
256.132	1.0	go	0.708	Go_O	1.0
258.666	1.0	go	0.681	Go_X	1.0
261.199	1.0	go	0.693	Go_O	1.0
263.732	1.0	go	0.731	Go_O	1.0
266.265	0.4	stop	0.0	Go_X	1.0
268.799	1.0	go	0.57	Go_X	1.0
271.332	1.0	go	0.561	Go_X	1.0
273.865	1.0	go	0.836	Go_O	1.0
276.398	0.45	stop	0.0	Go_O	1.0
278.932	1.0	go	0.543	Go_O	1.0
281.465	1.0	go	0.643	Go_X	1.0
283.998	1.0	go	0.648	Go_O	1.0
286.531	1.0	go	0.615	Go_X	1.0
289.065	1.0	go	0.876	Go_X	1.0
291.598	1.0	go	0.659	Go_O	1.0
294.131	0.5	stop	0.564	Go_X	0.0
296.664	1.0	go	0.914	Go_O	1.0
299.198	1.0	go	0.689	Go_X	1.0
301.731	0.45	stop	0.0	Go_O	1.0
304.264	1.0	go	0.548	Go_O	1.0
306.797	1.0	go	0.641	Go_X	1.0
309.331	0.5	stop	0.669	Go_X	0.0
311.864	1.0	go	0.0	Go_O	0.0
314.397	0.45	stop	0.0	Go_O	1.0
316.93	1.0	go	0.742	Go_X	1.0
319.464	1.0	go	0.947	Go_O	1.0
321.997	1.0	go	0.551	Go_X	1.0
324.53	1.0	go	0.412	Go_X	1.0
327.064	1.0	go	0.494	Go_O	1.0
329.613	0.5	stop	0.587	Go_X	0.0
332.147	0.45	stop	0.43	Go_O	0.0
334.68	1.0	go	0.581	Go_O	1.0
337.213	1.0	go	0.561	Go_X	1.0
339.746	0.4	stop	0.427	Go_X	0.0
342.28	1.0	go	0.308	Go_O	1.0
344.813	1.0	go	0.245	Go_X	1.0
347.346	1.0	go	0.436	Go_X	1.0
349.879	1.0	go	0.388	Go_O	1.0
352.413	1.0	go	0.44	Go_O	1.0
354.946	1.0	go	0.26	Go_X	1.0
357.479	0.35	stop	0.193	Go_O	0.0
360.012	1.0	go	0.412	Go_O	1.0
362.546	1.0	go	0.706	Go_X	1.0
365.079	1.0	go	0.405	Go_O	1.0
367.612	1.0	go	0.458	Go_X	1.0
370.145	1.0	go	0.603	Go_O	1.0
372.679	0.3	stop	0.0	Go_X	1.0
375.212	1.0	go	0.493	Go_X	1.0
377.745	1.0	go	0.526	Go_O	0.0
380.278	1.0	go	0.631	Go_X	1.0
382.812	1.0	go	0.531	Go_O	1.0
385.345	0.35	stop	0.0	Go_O	1.0
387.878	1.0	go	0.602	Go_X	1.0
390.411	1.0	go	0.617	Go_O	1.0
392.945	0.4	stop	0.0	Go_X	1.0
395.478	1.0	go	0.0	Go_X	0.0
398.011	0.45	stop	0.0	Go_O	1.0
400.545	1.0	go	0.678	Go_X	1.0
403.094	1.0	go	0.684	Go_O	1.0
405.628	1.0	go	0.815	Go_O	1.0
408.161	1.0	go	0.617	Go_X	1.0
410.694	1.0	go	0.829	Go_X	1.0
413.227	1.0	go	0.607	Go_O	1.0
415.761	1.0	go	0.541	Go_O	1.0
418.294	0.5	stop	0.581	Go_X	0.0
420.827	1.0	go	0.408	Go_X	1.0
423.36	1.0	go	0.259	Go_O	1.0
425.894	1.0	go	0.371	Go_X	1.0
428.427	0.45	stop	0.0	Go_O	1.0
430.96	1.0	go	0.479	Go_X	1.0
433.493	1.0	go	0.386	Go_O	1.0
436.027	1.0	go	0.531	Go_O	1.0
438.56	1.0	go	0.727	Go_X	1.0
441.093	0.5	stop	0.471	Go_X	0.0
443.626	1.0	go	0.473	Go_X	1.0
446.16	1.0	go	0.41	Go_O	1.0
448.693	0.45	stop	0.0	Go_O	1.0
451.226	1.0	go	0.538	Go_O	1.0
453.759	1.0	go	0.485	Go_X	1.0
456.293	0.5	stop	0.437	Go_X	0.0
458.826	1.0	go	0.44	Go_O	1.0
461.359	1.0	go	0.436	Go_X	1.0
463.892	0.45	stop	0.0	Go_O	1.0
466.426	1.0	go	0.397	Go_O	1.0
468.959	1.0	go	0.512	Go_X	1.0
471.492	1.0	go	0.782	Go_X	1.0
474.025	1.0	go	0.705	Go_O	1.0
476.559	1.0	go	0.929	Go_X	1.0
479.092	1.0	go	0.61	Go_O	1.0
481.625	0.5	stop	0.381	Go_X	0.0
484.159	1.0	go	0.504	Go_X	1.0
486.708	0.45	stop	0.368	Go_O	0.0
489.242	1.0	go	0.669	Go_O	1.0
491.775	1.0	go	0.662	Go_O	1.0
494.308	1.0	go	0.65	Go_X	1.0
496.841	1.0	go	0.723	Go_O	1.0
499.375	1.0	go	0.89	Go_X	1.0
501.908	0.4	stop	0.0	Go_X	1.0
504.441	1.0	go	0.366	Go_O	1.0
506.974	1.0	go	0.44	Go_X	1.0
509.508	1.0	go	0.46	Go_X	1.0
512.041	0.45	stop	0.507	Go_O	0.0
514.574	0.4	stop	0.0	Go_X	1.0
517.107	0.45	stop	0.319	Go_O	0.0
519.641	1.0	go	0.465	Go_O	1.0
522.174	0.4	stop	0.0	Go_X	1.0
524.707	1.0	go	0.612	Go_X	1.0
527.24	1.0	go	0.601	Go_O	1.0
529.774	1.0	go	0.843	Go_O	1.0
532.307	1.0	go	0.625	Go_X	1.0
534.84	1.0	go	0.523	Go_O	1.0
537.373	1.0	go	0.764	Go_X	1.0
539.907	1.0	go	0.781	Go_X	1.0
542.44	1.0	go	0.583	Go_O	1.0
544.973	0.45	stop	0.0	Go_O	1.0
547.506	1.0	go	0.438	Go_X	1.0
550.04	1.0	go	0.986	Go_O	0.0
552.573	0.5	stop	0.537	Go_X	0.0
555.106	1.0	go	0.595	Go_X	1.0
557.64	1.0	go	0.694	Go_O	1.0
560.189	1.0	go	0.567	Go_O	1.0
562.723	1.0	go	0.658	Go_X	1.0
565.256	1.0	go	0.54	Go_X	1.0
567.789	0.45	stop	0.0	Go_O	1.0
570.322	1.0	go	0.446	Go_O	1.0
572.856	1.0	go	0.504	Go_X	1.0
575.389	1.0	go	0.565	Go_O	1.0
577.922	0.5	stop	0.0	Go_X	1.0
580.455	1.0	go	0.441	Go_X	1.0
582.989	0.55	stop	0.389	Go_O	0.0
585.522	1.0	go	0.589	Go_O	1.0
588.055	1.0	go	0.565	Go_X	1.0
590.588	1.0	go	0.532	Go_O	1.0
593.122	1.0	go	0.557	Go_X	1.0
595.655	1.0	go	0.49	Go_O	1.0
598.188	1.0	go	0.0	Go_X	0.0
600.721	1.0	go	0.719	Go_O	1.0
603.255	0.5	stop	0.468	Go_X	0.0
605.788	1.0	go	0.575	Go_X	1.0
608.321	1.0	go	0.901	Go_O	1.0
610.854	1.0	go	0.744	Go_O	1.0
613.388	1.0	go	0.773	Go_X	1.0
615.921	0.45	stop	0.0	Go_O	1.0
618.454	1.0	go	0.49	Go_O	1.0
620.987	0.5	stop	0.596	Go_X	0.0
623.521	1.0	go	0.659	Go_X	1.0
626.054	1.0	go	0.709	Go_O	1.0
628.587	0.45	stop	0.0	Go_O	1.0
631.12	1.0	go	0.459	Go_X	1.0
633.654	1.0	go	0.892	Go_X	1.0
636.187	1.0	go	0.861	Go_O	1.0
638.72	1.0	go	0.689	Go_X	1.0
641.254	1.0	go	0.685	Go_O	1.0
643.803	1.0	go	0.75	Go_O	1.0
646.337	1.0	go	0.469	Go_X	1.0
648.87	1.0	go	0.699	Go_X	1.0
651.403	1.0	go	0.551	Go_O	1.0
653.936	1.0	go	0.755	Go_O	1.0
656.47	0.5	stop	0.0	Go_X	1.0
659.003	1.0	go	0.569	Go_X	1.0
661.536	1.0	go	0.624	Go_O	1.0
664.069	0.55	stop	0.674	Go_O	0.0
666.603	1.0	go	0.829	Go_X	1.0
669.136	0.5	stop	0.0	Go_X	1.0
671.669	1.0	go	0.983	Go_X	1.0
674.202	1.0	go	0.638	Go_O	1.0
676.736	0.55	stop	0.0	Go_O	1.0
679.269	1.0	go	0.927	Go_X	1.0
681.802	0.6	stop	0.0	Go_X	1.0
684.335	1.0	go	0.661	Go_O	1.0
686.869	1.0	go	0.0	Go_O	0.0
689.402	1.0	go	0.0	Go_X	0.0
691.935	0.65	stop	0.404	Go_O	0.0
694.468	1.0	go	0.71	Go_X	0.0
697.002	1.0	go	0.506	Go_O	1.0
699.535	1.0	go	0.801	Go_X	1.0
702.068	1.0	go	0.916	Go_O	1.0
704.601	0.6	stop	0.73	Go_X	0.0
707.135	1.0	go	0.607	Go_O	1.0
709.668	1.0	go	0.803	Go_X	1.0
712.201	0.55	stop	0.0	Go_O	1.0
714.735	1.0	go	0.435	Go_O	1.0
717.284	1.0	go	0.36	Go_X	1.0
719.818	1.0	go	0.498	Go_O	1.0
722.351	1.0	go	0.742	Go_X	1.0
724.884	0.6	stop	0.0	Go_X	1.0
727.417	1.0	go	0.647	Go_O	1.0
729.951	0.65	stop	0.667	Go_O	0.0
732.484	1.0	go	0.671	Go_X	1.0
735.017	1.0	go	0.603	Go_X	1.0
737.55	0.6	stop	0.729	Go_X	0.0
740.084	1.0	go	0.676	Go_O	1.0
742.617	1.0	go	0.994	Go_X	1.0
745.15	1.0	go	0.776	Go_O	1.0
747.683	1.0	go	0.751	Go_O	1.0
750.217	0.55	stop	0.0	Go_O	1.0
752.75	1.0	go	0.0	Go_X	0.0
755.283	0.6	stop	0.0	Go_X	1.0
757.816	1.0	go	0.419	Go_O	1.0
760.35	1.0	go	0.564	Go_X	1.0
762.883	1.0	go	0.786	Go_O	1.0
765.416	1.0	go	0.0	Go_X	0.0
767.949	1.0	go	0.695	Go_O	1.0
770.483	1.0	go	0.637	Go_X	1.0
773.016	0.65	stop	0.531	Go_O	0.0
775.549	1.0	go	0.51	Go_O	1.0
778.082	1.0	go	0.485	Go_X	1.0
780.616	0.6	stop	0.0	Go_X	1.0
783.149	1.0	go	0.534	Go_X	1.0
785.682	1.0	go	0.528	Go_O	1.0
788.215	0.65	stop	0.689	Go_O	0.0
790.749	1.0	go	0.718	Go_X	1.0
793.282	1.0	go	0.623	Go_O	1.0
795.815	1.0	go	0.637	Go_X	1.0
798.349	1.0	go	0.839	Go_O	1.0
800.898	0.6	stop	0.587	Go_X	0.0
803.432	1.0	go	0.477	Go_O	1.0
805.965	0.55	stop	0.0	Go_O	1.0
808.498	1.0	go	0.488	Go_X	1.0
811.031	1.0	go	0.72	Go_X	1.0
813.565	1.0	go	0.857	Go_O	1.0
816.098	1.0	go	0.661	Go_X	1.0
818.631	1.0	go	0.681	Go_O	1.0
821.164	0.6	stop	0.0	Go_X	1.0
823.698	1.0	go	0.0	Go_O	0.0
826.231	1.0	go	0.787	Go_X	1.0
828.764	0.65	stop	0.37	Go_O	0.0
831.297	0.6	stop	0.0	Go_X	1.0
833.831	1.0	go	0.763	Go_X	1.0
836.364	1.0	go	0.623	Go_O	1.0
838.897	1.0	go	0.772	Go_O	1.0
841.43	1.0	go	0.751	Go_X	1.0
843.964	0.65	stop	0.673	Go_O	0.0
846.497	1.0	go	0.0	Go_O	0.0
