onset	duration	trial_type	response_time	stim_file	accuracy
0.5349999999999966	1.0	go	0.77	Go_O	1.0
3.0600000000000023	1.0	go	0.398	Go_X	1.0
5.583999999999989	1.0	go	0.355	Go_O	1.0
8.10799999999999	1.0	go	0.729	Go_X	1.0
10.63199999999999	1.0	go	0.499	Go_X	1.0
13.155999999999992	1.0	go	0.285	Go_O	1.0
15.679999999999993	0.25	stopsuccess	0.0	Go_O	1.0
18.205	1.0	go	0.416	Go_X	1.0
20.729	0.3	stopsuccess	0.0	Go_X	1.0
23.253	1.0	go	0.377	Go_O	1.0
25.777	1.0	go	0.361	Go_X	1.0
28.301000000000002	1.0	go	0.519	Go_O	1.0
30.82499999999999	0.35	stopfail	0.495	Go_O	0.0
33.349999999999994	1.0	go	0.394	Go_X	1.0
35.873999999999995	1.0	go	0.341	Go_O	1.0
38.397999999999996	0.3	stopsuccess	0.0	Go_X	1.0
40.922	0.35	stopfail	0.33	Go_O	0.0
43.446	1.0	go	0.511	Go_O	1.0
45.97	1.0	go	0.34	Go_X	1.0
48.49499999999999	0.3	stopsuccess	0.0	Go_X	1.0
51.01899999999999	1.0	go	0.337	Go_O	1.0
53.54299999999999	1.0	go	0.442	Go_X	1.0
56.06699999999999	0.35	stopfail	0.39	Go_O	0.0
58.590999999999994	1.0	go	0.547	Go_O	1.0
61.116	1.0	go	0.301	Go_X	1.0
63.64	0.3	stopsuccess	0.0	Go_X	1.0
66.164	1.0	go	0.545	Go_X	1.0
68.688	1.0	go	0.352	Go_O	1.0
71.212	0.35	stopfail	0.443	Go_O	0.0
73.736	1.0	go	0.467	Go_X	1.0
76.26099999999998	1.0	go	0.395	Go_O	1.0
78.78499999999998	1.0	go	0.499	Go_O	1.0
81.30899999999998	1.0	go	0.374	Go_X	1.0
83.83299999999998	1.0	go	0.725	Go_X	1.0
86.35699999999999	0.3	stopfail	0.459	Go_X	0.0
88.88099999999999	1.0	go	0.803	Go_O	1.0
91.40599999999999	1.0	go	0.408	Go_X	1.0
93.92999999999999	1.0	go	0.511	Go_O	1.0
96.454	1.0	go	0.598	Go_O	1.0
98.978	1.0	go	0.458	Go_X	1.0
101.502	0.25	stopsuccess	0.0	Go_O	1.0
104.026	1.0	go	0.607	Go_X	1.0
106.551	1.0	go	0.398	Go_O	1.0
109.075	1.0	go	0.57	Go_X	1.0
111.599	1.0	go	0.398	Go_O	1.0
114.123	1.0	go	0.797	Go_X	1.0
116.647	1.0	go	0.327	Go_O	1.0
119.171	0.3	stopfail	0.386	Go_X	0.0
121.69599999999998	1.0	go	0.464	Go_O	1.0
124.21999999999998	1.0	go	0.463	Go_X	1.0
126.74399999999999	0.25	stopfail	0.364	Go_O	0.0
129.26799999999997	1.0	go	0.496	Go_O	1.0
131.79199999999997	0.2	stopsuccess	0.0	Go_X	1.0
134.317	0.25	stopsuccess	0.0	Go_O	1.0
136.841	1.0	go	0.492	Go_X	1.0
139.365	1.0	go	0.627	Go_X	1.0
141.889	1.0	go	0.444	Go_O	1.0
144.413	1.0	go	0.855	Go_X	1.0
146.937	0.3	stopfail	0.48	Go_X	0.0
149.462	1.0	go	0.454	Go_O	1.0
151.986	0.25	stopsuccess	0.0	Go_O	1.0
154.527	1.0	go	0.465	Go_O	1.0
157.051	1.0	go	0.568	Go_X	1.0
159.575	1.0	go	0.661	Go_X	1.0
162.099	1.0	go	0.335	Go_O	1.0
164.623	1.0	go	0.493	Go_X	1.0
167.147	1.0	go	0.727	Go_O	1.0
169.67199999999997	1.0	go	0.577	Go_X	1.0
172.19599999999997	1.0	go	0.463	Go_O	1.0
174.71999999999997	1.0	go	0.479	Go_O	1.0
177.24399999999997	0.3	stopfail	0.326	Go_X	0.0
179.76799999999997	1.0	go	0.529	Go_X	1.0
182.29199999999997	1.0	go	0.507	Go_X	1.0
184.817	1.0	go	0.402	Go_O	1.0
187.341	0.25	stopsuccess	0.0	Go_O	1.0
189.865	1.0	go	0.455	Go_O	1.0
192.38899999999995	1.0	go	0.667	Go_X	1.0
194.91299999999995	1.0	go	0.447	Go_X	1.0
197.438	1.0	go	0.475	Go_O	1.0
199.962	1.0	go	0.417	Go_X	1.0
202.486	1.0	go	0.488	Go_O	1.0
205.01	0.3	stopsuccess	0.0	Go_X	1.0
207.534	1.0	go	0.446	Go_X	1.0
210.058	1.0	go	0.289	Go_O	1.0
212.58299999999997	0.35	stopfail	0.404	Go_O	0.0
215.10699999999997	1.0	go	0.942	Go_X	1.0
217.63099999999997	1.0	go	0.329	Go_O	1.0
220.15499999999997	0.3	stopfail	0.341	Go_X	0.0
222.67899999999997	1.0	go	0.319	Go_O	1.0
225.20299999999997	0.25	stopsuccess	0.0	Go_O	1.0
227.728	1.0	go	0.49	Go_X	1.0
230.252	1.0	go	0.377	Go_O	1.0
232.77599999999995	1.0	go	0.375	Go_X	1.0
235.29999999999995	1.0	go	0.421	Go_O	1.0
237.82399999999996	1.0	go	0.566	Go_X	1.0
240.34799999999996	0.3	stopfail	0.341	Go_X	0.0
242.873	0.25	stopsuccess	0.0	Go_O	1.0
245.41299999999995	1.0	go	0.475	Go_X	0.0
247.938	1.0	go	0.605	Go_O	0.0
250.462	0.3	stopsuccess	0.0	Go_X	1.0
252.986	1.0	go	0.678	Go_O	0.0
255.51	1.0	go	0.951	Go_X	1.0
258.034	1.0	go	0.443	Go_O	1.0
260.55899999999997	1.0	go	0.338	Go_X	1.0
263.08299999999997	1.0	go	0.596	Go_X	1.0
265.60699999999997	1.0	go	0.658	Go_O	1.0
268.131	0.35	stopfail	0.427	Go_O	0.0
270.655	1.0	go	0.764	Go_O	1.0
273.179	1.0	go	0.735	Go_X	1.0
275.704	1.0	go	0.504	Go_X	1.0
278.228	1.0	go	0.656	Go_O	1.0
280.752	1.0	go	0.462	Go_X	1.0
283.27599999999995	0.3	stopfail	0.6	Go_X	0.0
285.79999999999995	1.0	go	0.0	Go_O	0.0
288.32399999999996	1.0	go	0.42	Go_O	1.0
290.849	1.0	go	0.458	Go_X	1.0
293.373	1.0	go	0.399	Go_O	1.0
295.897	0.25	stopsuccess	0.0	Go_O	1.0
298.421	1.0	go	0.467	Go_X	1.0
300.945	1.0	go	0.628	Go_O	1.0
303.469	0.3	stopfail	0.253	Go_X	0.0
305.99399999999997	1.0	go	0.516	Go_X	1.0
308.518	0.25	stopfail	0.371	Go_O	0.0
311.042	1.0	go	0.826	Go_X	1.0
313.566	1.0	go	0.377	Go_O	1.0
316.09	1.0	go	0.634	Go_X	1.0
318.614	1.0	go	0.955	Go_O	1.0
321.13899999999995	1.0	go	0.567	Go_X	1.0
323.66299999999995	1.0	go	0.46	Go_O	1.0
326.18699999999995	1.0	go	0.327	Go_O	0.0
328.71099999999996	0.2	stopsuccess	0.0	Go_X	1.0
331.23499999999996	1.0	go	0.676	Go_X	1.0
333.76	1.0	go	0.377	Go_X	0.0
336.284	1.0	go	0.632	Go_O	1.0
338.808	0.25	stopsuccess	0.0	Go_O	1.0
341.332	1.0	go	0.693	Go_X	1.0
343.856	1.0	go	0.517	Go_O	1.0
346.38	1.0	go	0.489	Go_X	1.0
348.905	1.0	go	0.263	Go_O	1.0
351.429	0.3	stopsuccess	0.0	Go_X	1.0
353.953	1.0	go	0.551	Go_X	0.0
356.477	1.0	go	0.591	Go_O	1.0
359.001	0.35	stopsuccess	0.0	Go_O	1.0
361.525	1.0	go	0.606	Go_X	1.0
364.04999999999995	1.0	go	0.661	Go_O	1.0
366.57399999999996	0.4	stopfail	0.531	Go_X	0.0
369.09799999999996	1.0	go	0.753	Go_X	1.0
371.62199999999996	1.0	go	0.498	Go_O	1.0
374.14599999999996	0.35	stopsuccess	0.0	Go_O	1.0
376.66999999999996	1.0	go	0.944	Go_X	1.0
379.195	1.0	go	0.733	Go_O	1.0
381.719	1.0	go	0.474	Go_O	1.0
384.243	1.0	go	0.466	Go_X	1.0
386.767	1.0	go	0.558	Go_X	1.0
389.291	1.0	go	0.682	Go_O	1.0
391.815	0.4	stopfail	0.513	Go_X	0.0
394.34	1.0	go	0.537	Go_O	1.0
396.864	0.35	stopfail	0.595	Go_O	0.0
399.388	1.0	go	0.537	Go_X	1.0
401.912	1.0	go	0.475	Go_O	1.0
404.436	1.0	go	0.401	Go_X	1.0
406.96	1.0	go	0.565	Go_X	1.0
409.48499999999996	1.0	go	0.611	Go_O	1.0
412.00899999999996	0.3	stopsuccess	0.0	Go_X	1.0
414.53299999999996	1.0	go	0.954	Go_X	1.0
417.05699999999996	1.0	go	0.481	Go_O	1.0
419.58099999999996	1.0	go	0.57	Go_O	1.0
422.106	0.35	stopfail	0.118	Go_O	0.0
424.63	0.3	stopsuccess	0.0	Go_X	1.0
427.154	0.35	stopfail	0.487	Go_O	0.0
429.678	1.0	go	0.0	Go_X	0.0
432.202	0.3	stopsuccess	0.0	Go_X	1.0
434.726	1.0	go	0.42	Go_X	1.0
437.251	1.0	go	0.546	Go_O	1.0
439.775	1.0	go	0.648	Go_O	1.0
442.299	1.0	go	0.298	Go_X	1.0
444.823	1.0	go	0.482	Go_O	1.0
447.34700000000004	1.0	go	0.481	Go_X	1.0
449.87100000000004	1.0	go	0.543	Go_X	1.0
452.396	1.0	go	0.559	Go_O	1.0
454.92	0.35	stopsuccess	0.0	Go_O	1.0
457.444	1.0	go	0.966	Go_O	1.0
459.968	1.0	go	0.0	Go_X	0.0
462.492	0.4	stopsuccess	0.0	Go_X	1.0
465.016	1.0	go	0.0	Go_O	0.0
467.541	1.0	go	0.707	Go_X	1.0
470.065	1.0	go	0.537	Go_O	1.0
472.589	1.0	go	0.591	Go_X	1.0
475.113	1.0	go	0.476	Go_O	1.0
477.637	0.45	stopfail	0.505	Go_O	0.0
480.161	1.0	go	0.678	Go_X	1.0
482.686	1.0	go	0.481	Go_O	1.0
485.21	1.0	go	0.58	Go_X	1.0
487.734	0.4	stopsuccess	0.0	Go_X	1.0
490.258	1.0	go	0.0	Go_X	0.0
492.782	0.45	stopfail	0.479	Go_O	0.0
495.306	1.0	go	0.6	Go_O	1.0
497.83099999999996	1.0	go	0.559	Go_X	1.0
500.35499999999996	1.0	go	0.0	Go_O	0.0
502.87899999999996	1.0	go	0.383	Go_O	1.0
505.40299999999996	1.0	go	0.707	Go_X	0.0
507.92699999999996	1.0	go	0.571	Go_X	1.0
510.45199999999994	1.0	go	0.724	Go_O	1.0
512.976	0.4	stopfail	0.854	Go_X	0.0
515.5	1.0	go	0.76	Go_X	1.0
518.024	1.0	go	0.397	Go_O	1.0
520.548	1.0	go	0.405	Go_O	1.0
523.072	1.0	go	0.454	Go_X	1.0
525.5970000000001	0.35	stopfail	0.414	Go_O	0.0
528.1210000000001	1.0	go	0.414	Go_X	1.0
530.645	0.3	stopfail	0.579	Go_X	0.0
533.186	1.0	go	0.0	Go_O	0.0
535.71	1.0	go	0.487	Go_X	1.0
538.234	0.25	stopsuccess	0.0	Go_O	1.0
540.758	1.0	go	0.573	Go_O	1.0
543.282	1.0	go	0.994	Go_O	1.0
545.807	1.0	go	0.0	Go_X	0.0
548.331	1.0	go	0.423	Go_O	1.0
550.855	1.0	go	0.341	Go_X	1.0
553.379	1.0	go	0.534	Go_X	0.0
555.903	1.0	go	0.47	Go_O	1.0
558.428	1.0	go	0.697	Go_X	1.0
560.952	1.0	go	0.478	Go_O	1.0
563.476	1.0	go	0.551	Go_O	1.0
566.0	0.3	stopsuccess	0.0	Go_X	1.0
568.524	1.0	go	0.0	Go_X	0.0
571.048	1.0	go	0.0	Go_O	0.0
573.5730000000001	0.35	stopsuccess	0.0	Go_O	1.0
576.113	1.0	go	0.506	Go_X	1.0
578.638	0.4	stopfail	0.479	Go_X	0.0
581.162	1.0	go	0.32	Go_O	1.0
583.686	1.0	go	0.493	Go_X	1.0
586.21	0.35	stopsuccess	0.0	Go_O	1.0
588.734	1.0	go	0.864	Go_X	1.0
591.258	0.4	stopsuccess	0.0	Go_X	1.0
593.783	1.0	go	0.0	Go_O	0.0
596.307	1.0	go	0.0	Go_X	0.0
598.831	1.0	go	0.0	Go_O	0.0
601.355	0.45	stopsuccess	0.0	Go_O	1.0
603.879	1.0	go	0.0	Go_O	0.0
606.403	1.0	go	0.501	Go_X	1.0
608.928	1.0	go	0.495	Go_X	1.0
611.452	1.0	go	0.445	Go_O	1.0
613.976	0.5	stopfail	0.572	Go_X	0.0
616.5	1.0	go	0.462	Go_O	1.0
619.024	1.0	go	0.446	Go_X	1.0
621.5490000000001	0.45	stopfail	0.337	Go_O	0.0
624.0730000000001	1.0	go	0.648	Go_O	1.0
626.5970000000001	1.0	go	0.617	Go_X	1.0
629.1210000000001	1.0	go	0.372	Go_X	0.0
631.645	1.0	go	0.293	Go_O	0.0
634.169	0.4	stopsuccess	0.0	Go_X	1.0
636.6940000000001	1.0	go	0.85	Go_O	1.0
639.2180000000001	0.45	stopsuccess	0.0	Go_O	1.0
641.7420000000001	1.0	go	0.0	Go_X	0.0
644.2660000000001	1.0	go	0.0	Go_O	0.0
646.7900000000001	0.5	stopsuccess	0.0	Go_X	1.0
649.3140000000001	1.0	go	0.643	Go_X	1.0
651.839	1.0	go	0.528	Go_X	1.0
654.363	1.0	go	0.574	Go_O	1.0
656.8870000000001	1.0	go	0.575	Go_O	1.0
659.4110000000001	0.55	stopsuccess	0.0	Go_O	1.0
661.9350000000001	1.0	go	0.0	Go_X	0.0
664.4590000000001	0.6	stopfail	0.579	Go_X	0.0
666.984	1.0	go	0.792	Go_X	0.0
669.508	1.0	go	0.676	Go_O	1.0
672.032	1.0	go	0.547	Go_X	1.0
674.556	1.0	go	0.0	Go_O	0.0
677.08	1.0	go	0.745	Go_X	1.0
679.604	1.0	go	0.572	Go_O	1.0
682.129	0.55	stopfail	0.472	Go_O	0.0
684.6700000000001	1.0	go	0.729	Go_O	1.0
687.1940000000001	1.0	go	0.0	Go_X	0.0
689.7180000000001	0.5	stopsuccess	0.0	Go_X	1.0
692.2420000000001	1.0	go	0.0	Go_X	0.0
694.7660000000001	1.0	go	0.0	Go_O	0.0
697.2900000000001	0.55	stopsuccess	0.0	Go_O	1.0
699.815	1.0	go	0.0	Go_X	0.0
702.339	1.0	go	0.0	Go_O	0.0
704.863	1.0	go	0.416	Go_X	1.0
707.3870000000001	1.0	go	0.268	Go_O	1.0
709.9110000000001	0.6	stopfail	0.247	Go_X	0.0
712.4350000000001	1.0	go	0.317	Go_O	1.0
714.96	0.55	stopfail	0.41	Go_O	0.0
717.484	1.0	go	0.417	Go_X	1.0
720.008	1.0	go	0.657	Go_O	1.0
722.532	1.0	go	0.645	Go_X	1.0
725.056	1.0	go	0.0	Go_X	0.0
727.58	1.0	go	0.517	Go_O	1.0
730.105	0.5	stopsuccess	0.0	Go_X	1.0
732.629	1.0	go	0.0	Go_O	0.0
735.153	1.0	go	0.45	Go_X	1.0
737.677	0.55	stopfail	0.543	Go_O	0.0
740.201	0.5	stopfail	0.691	Go_X	0.0
742.725	1.0	go	0.66	Go_X	1.0
745.25	1.0	go	0.0	Go_O	0.0
747.774	1.0	go	0.0	Go_X	0.0
750.298	1.0	go	0.0	Go_O	0.0
752.822	0.45	stopfail	0.544	Go_O	0.0
755.346	1.0	go	0.767	Go_X	1.0
