onset	duration	trial_type	response_time	stim_file	accuracy
65.777	1.0	go	0.77	Go_O	1.0
68.302	1.0	go	0.398	Go_X	1.0
70.826	1.0	go	0.355	Go_O	1.0
73.35	1.0	go	0.729	Go_X	1.0
75.874	1.0	go	0.499	Go_X	1.0
78.398	1.0	go	0.285	Go_O	1.0
80.922	0.25	stopsuccess	0.0	Go_O	1.0
83.447	1.0	go	0.416	Go_X	1.0
85.971	0.3	stopsuccess	0.0	Go_X	1.0
88.495	1.0	go	0.377	Go_O	1.0
91.019	1.0	go	0.361	Go_X	1.0
93.543	1.0	go	0.519	Go_O	1.0
96.067	0.35	stopfail	0.495	Go_O	0.0
98.592	1.0	go	0.394	Go_X	1.0
101.116	1.0	go	0.341	Go_O	1.0
103.64	0.3	stopsuccess	0.0	Go_X	1.0
106.164	0.35	stopfail	0.33	Go_O	0.0
108.688	1.0	go	0.511	Go_O	1.0
111.212	1.0	go	0.34	Go_X	1.0
113.737	0.3	stopsuccess	0.0	Go_X	1.0
116.261	1.0	go	0.337	Go_O	1.0
118.785	1.0	go	0.442	Go_X	1.0
121.309	0.35	stopfail	0.39	Go_O	0.0
123.833	1.0	go	0.547	Go_O	1.0
126.358	1.0	go	0.301	Go_X	1.0
128.882	0.3	stopsuccess	0.0	Go_X	1.0
131.406	1.0	go	0.545	Go_X	1.0
133.93	1.0	go	0.352	Go_O	1.0
136.454	0.35	stopfail	0.443	Go_O	0.0
138.978	1.0	go	0.467	Go_X	1.0
141.503	1.0	go	0.395	Go_O	1.0
144.027	1.0	go	0.499	Go_O	1.0
146.551	1.0	go	0.374	Go_X	1.0
149.075	1.0	go	0.725	Go_X	1.0
151.599	0.3	stopfail	0.459	Go_X	0.0
154.123	1.0	go	0.803	Go_O	1.0
156.648	1.0	go	0.408	Go_X	1.0
159.172	1.0	go	0.511	Go_O	1.0
161.696	1.0	go	0.598	Go_O	1.0
164.22	1.0	go	0.458	Go_X	1.0
166.744	0.25	stopsuccess	0.0	Go_O	1.0
169.268	1.0	go	0.607	Go_X	1.0
171.793	1.0	go	0.398	Go_O	1.0
174.317	1.0	go	0.57	Go_X	1.0
176.841	1.0	go	0.398	Go_O	1.0
179.365	1.0	go	0.797	Go_X	1.0
181.889	1.0	go	0.327	Go_O	1.0
184.413	0.3	stopfail	0.386	Go_X	0.0
186.938	1.0	go	0.464	Go_O	1.0
189.462	1.0	go	0.463	Go_X	1.0
191.986	0.25	stopfail	0.364	Go_O	0.0
194.51	1.0	go	0.496	Go_O	1.0
197.034	0.2	stopsuccess	0.0	Go_X	1.0
199.559	0.25	stopsuccess	0.0	Go_O	1.0
202.083	1.0	go	0.492	Go_X	1.0
204.607	1.0	go	0.627	Go_X	1.0
207.131	1.0	go	0.444	Go_O	1.0
209.655	1.0	go	0.855	Go_X	1.0
212.179	0.3	stopfail	0.48	Go_X	0.0
214.704	1.0	go	0.454	Go_O	1.0
217.228	0.25	stopsuccess	0.0	Go_O	1.0
219.769	1.0	go	0.465	Go_O	1.0
222.293	1.0	go	0.568	Go_X	1.0
224.817	1.0	go	0.661	Go_X	1.0
227.341	1.0	go	0.335	Go_O	1.0
229.865	1.0	go	0.493	Go_X	1.0
232.389	1.0	go	0.727	Go_O	1.0
234.914	1.0	go	0.577	Go_X	1.0
237.438	1.0	go	0.463	Go_O	1.0
239.962	1.0	go	0.479	Go_O	1.0
242.486	0.3	stopfail	0.326	Go_X	0.0
245.01	1.0	go	0.529	Go_X	1.0
247.534	1.0	go	0.507	Go_X	1.0
250.059	1.0	go	0.402	Go_O	1.0
252.583	0.25	stopsuccess	0.0	Go_O	1.0
255.107	1.0	go	0.455	Go_O	1.0
257.631	1.0	go	0.667	Go_X	1.0
260.155	1.0	go	0.447	Go_X	1.0
262.68	1.0	go	0.475	Go_O	1.0
265.204	1.0	go	0.417	Go_X	1.0
267.728	1.0	go	0.488	Go_O	1.0
270.252	0.3	stopsuccess	0.0	Go_X	1.0
272.776	1.0	go	0.446	Go_X	1.0
275.3	1.0	go	0.289	Go_O	1.0
277.825	0.35	stopfail	0.404	Go_O	0.0
280.349	1.0	go	0.942	Go_X	1.0
282.873	1.0	go	0.329	Go_O	1.0
285.397	0.3	stopfail	0.341	Go_X	0.0
287.921	1.0	go	0.319	Go_O	1.0
290.445	0.25	stopsuccess	0.0	Go_O	1.0
292.97	1.0	go	0.49	Go_X	1.0
295.494	1.0	go	0.377	Go_O	1.0
298.018	1.0	go	0.375	Go_X	1.0
300.542	1.0	go	0.421	Go_O	1.0
303.066	1.0	go	0.566	Go_X	1.0
305.59	0.3	stopfail	0.341	Go_X	0.0
308.115	0.25	stopsuccess	0.0	Go_O	1.0
310.655	1.0	go	0.475	Go_X	0.0
313.18	1.0	go	0.605	Go_O	0.0
315.704	0.3	stopsuccess	0.0	Go_X	1.0
318.228	1.0	go	0.678	Go_O	0.0
320.752	1.0	go	0.951	Go_X	1.0
323.276	1.0	go	0.443	Go_O	1.0
325.801	1.0	go	0.338	Go_X	1.0
328.325	1.0	go	0.596	Go_X	1.0
330.849	1.0	go	0.658	Go_O	1.0
333.373	0.35	stopfail	0.427	Go_O	0.0
335.897	1.0	go	0.764	Go_O	1.0
338.421	1.0	go	0.735	Go_X	1.0
340.946	1.0	go	0.504	Go_X	1.0
343.47	1.0	go	0.656	Go_O	1.0
345.994	1.0	go	0.462	Go_X	1.0
348.518	0.3	stopfail	0.6	Go_X	0.0
351.042	1.0	go	0.0	Go_O	0.0
353.566	1.0	go	0.42	Go_O	1.0
356.091	1.0	go	0.458	Go_X	1.0
358.615	1.0	go	0.399	Go_O	1.0
361.139	0.25	stopsuccess	0.0	Go_O	1.0
363.663	1.0	go	0.467	Go_X	1.0
366.187	1.0	go	0.628	Go_O	1.0
368.711	0.3	stopfail	0.253	Go_X	0.0
371.236	1.0	go	0.516	Go_X	1.0
373.76	0.25	stopfail	0.371	Go_O	0.0
376.284	1.0	go	0.826	Go_X	1.0
378.808	1.0	go	0.377	Go_O	1.0
381.332	1.0	go	0.634	Go_X	1.0
383.856	1.0	go	0.955	Go_O	1.0
386.381	1.0	go	0.567	Go_X	1.0
388.905	1.0	go	0.46	Go_O	1.0
391.429	1.0	go	0.327	Go_O	0.0
393.953	0.2	stopsuccess	0.0	Go_X	1.0
396.477	1.0	go	0.676	Go_X	1.0
399.002	1.0	go	0.377	Go_X	0.0
401.526	1.0	go	0.632	Go_O	1.0
404.05	0.25	stopsuccess	0.0	Go_O	1.0
406.574	1.0	go	0.693	Go_X	1.0
409.098	1.0	go	0.517	Go_O	1.0
411.622	1.0	go	0.489	Go_X	1.0
414.147	1.0	go	0.263	Go_O	1.0
416.671	0.3	stopsuccess	0.0	Go_X	1.0
419.195	1.0	go	0.551	Go_X	0.0
421.719	1.0	go	0.591	Go_O	1.0
424.243	0.35	stopsuccess	0.0	Go_O	1.0
426.767	1.0	go	0.606	Go_X	1.0
429.292	1.0	go	0.661	Go_O	1.0
431.816	0.4	stopfail	0.531	Go_X	0.0
434.34	1.0	go	0.753	Go_X	1.0
436.864	1.0	go	0.498	Go_O	1.0
439.388	0.35	stopsuccess	0.0	Go_O	1.0
441.912	1.0	go	0.944	Go_X	1.0
444.437	1.0	go	0.733	Go_O	1.0
446.961	1.0	go	0.474	Go_O	1.0
449.485	1.0	go	0.466	Go_X	1.0
452.009	1.0	go	0.558	Go_X	1.0
454.533	1.0	go	0.682	Go_O	1.0
457.057	0.4	stopfail	0.513	Go_X	0.0
459.582	1.0	go	0.537	Go_O	1.0
462.106	0.35	stopfail	0.595	Go_O	0.0
464.63	1.0	go	0.537	Go_X	1.0
467.154	1.0	go	0.475	Go_O	1.0
469.678	1.0	go	0.401	Go_X	1.0
472.202	1.0	go	0.565	Go_X	1.0
474.727	1.0	go	0.611	Go_O	1.0
477.251	0.3	stopsuccess	0.0	Go_X	1.0
479.775	1.0	go	0.954	Go_X	1.0
482.299	1.0	go	0.481	Go_O	1.0
484.823	1.0	go	0.57	Go_O	1.0
487.348	0.35	stopfail	0.118	Go_O	0.0
489.872	0.3	stopsuccess	0.0	Go_X	1.0
492.396	0.35	stopfail	0.487	Go_O	0.0
494.92	1.0	go	0.0	Go_X	0.0
497.444	0.3	stopsuccess	0.0	Go_X	1.0
499.968	1.0	go	0.42	Go_X	1.0
502.493	1.0	go	0.546	Go_O	1.0
505.017	1.0	go	0.648	Go_O	1.0
507.541	1.0	go	0.298	Go_X	1.0
510.065	1.0	go	0.482	Go_O	1.0
512.589	1.0	go	0.481	Go_X	1.0
515.113	1.0	go	0.543	Go_X	1.0
517.638	1.0	go	0.559	Go_O	1.0
520.162	0.35	stopsuccess	0.0	Go_O	1.0
522.686	1.0	go	0.966	Go_O	1.0
525.21	1.0	go	0.0	Go_X	0.0
527.734	0.4	stopsuccess	0.0	Go_X	1.0
530.258	1.0	go	0.0	Go_O	0.0
532.783	1.0	go	0.707	Go_X	1.0
535.307	1.0	go	0.537	Go_O	1.0
537.831	1.0	go	0.591	Go_X	1.0
540.355	1.0	go	0.476	Go_O	1.0
542.879	0.45	stopfail	0.505	Go_O	0.0
545.403	1.0	go	0.678	Go_X	1.0
547.928	1.0	go	0.481	Go_O	1.0
550.452	1.0	go	0.58	Go_X	1.0
552.976	0.4	stopsuccess	0.0	Go_X	1.0
555.5	1.0	go	0.0	Go_X	0.0
558.024	0.45	stopfail	0.479	Go_O	0.0
560.548	1.0	go	0.6	Go_O	1.0
563.073	1.0	go	0.559	Go_X	1.0
565.597	1.0	go	0.0	Go_O	0.0
568.121	1.0	go	0.383	Go_O	1.0
570.645	1.0	go	0.707	Go_X	0.0
573.169	1.0	go	0.571	Go_X	1.0
575.694	1.0	go	0.724	Go_O	1.0
578.218	0.4	stopfail	0.854	Go_X	0.0
580.742	1.0	go	0.76	Go_X	1.0
583.266	1.0	go	0.397	Go_O	1.0
585.79	1.0	go	0.405	Go_O	1.0
588.314	1.0	go	0.454	Go_X	1.0
590.839	0.35	stopfail	0.414	Go_O	0.0
593.363	1.0	go	0.414	Go_X	1.0
595.887	0.3	stopfail	0.579	Go_X	0.0
598.428	1.0	go	0.0	Go_O	0.0
600.952	1.0	go	0.487	Go_X	1.0
603.476	0.25	stopsuccess	0.0	Go_O	1.0
606.0	1.0	go	0.573	Go_O	1.0
608.524	1.0	go	0.994	Go_O	1.0
611.049	1.0	go	0.0	Go_X	0.0
613.573	1.0	go	0.423	Go_O	1.0
616.097	1.0	go	0.341	Go_X	1.0
618.621	1.0	go	0.534	Go_X	0.0
621.145	1.0	go	0.47	Go_O	1.0
623.67	1.0	go	0.697	Go_X	1.0
626.194	1.0	go	0.478	Go_O	1.0
628.718	1.0	go	0.551	Go_O	1.0
631.242	0.3	stopsuccess	0.0	Go_X	1.0
633.766	1.0	go	0.0	Go_X	0.0
636.29	1.0	go	0.0	Go_O	0.0
638.815	0.35	stopsuccess	0.0	Go_O	1.0
641.355	1.0	go	0.506	Go_X	1.0
643.88	0.4	stopfail	0.479	Go_X	0.0
646.404	1.0	go	0.32	Go_O	1.0
648.928	1.0	go	0.493	Go_X	1.0
651.452	0.35	stopsuccess	0.0	Go_O	1.0
653.976	1.0	go	0.864	Go_X	1.0
656.5	0.4	stopsuccess	0.0	Go_X	1.0
659.025	1.0	go	0.0	Go_O	0.0
661.549	1.0	go	0.0	Go_X	0.0
664.073	1.0	go	0.0	Go_O	0.0
666.597	0.45	stopsuccess	0.0	Go_O	1.0
669.121	1.0	go	0.0	Go_O	0.0
671.645	1.0	go	0.501	Go_X	1.0
674.17	1.0	go	0.495	Go_X	1.0
676.694	1.0	go	0.445	Go_O	1.0
679.218	0.5	stopfail	0.572	Go_X	0.0
681.742	1.0	go	0.462	Go_O	1.0
684.266	1.0	go	0.446	Go_X	1.0
686.791	0.45	stopfail	0.337	Go_O	0.0
689.315	1.0	go	0.648	Go_O	1.0
691.839	1.0	go	0.617	Go_X	1.0
694.363	1.0	go	0.372	Go_X	0.0
696.887	1.0	go	0.293	Go_O	0.0
699.411	0.4	stopsuccess	0.0	Go_X	1.0
701.936	1.0	go	0.85	Go_O	1.0
704.46	0.45	stopsuccess	0.0	Go_O	1.0
706.984	1.0	go	0.0	Go_X	0.0
709.508	1.0	go	0.0	Go_O	0.0
712.032	0.5	stopsuccess	0.0	Go_X	1.0
714.556	1.0	go	0.643	Go_X	1.0
717.081	1.0	go	0.528	Go_X	1.0
719.605	1.0	go	0.574	Go_O	1.0
722.129	1.0	go	0.575	Go_O	1.0
724.653	0.55	stopsuccess	0.0	Go_O	1.0
727.177	1.0	go	0.0	Go_X	0.0
729.701	0.6	stopfail	0.579	Go_X	0.0
732.226	1.0	go	0.792	Go_X	0.0
734.75	1.0	go	0.676	Go_O	1.0
737.274	1.0	go	0.547	Go_X	1.0
739.798	1.0	go	0.0	Go_O	0.0
742.322	1.0	go	0.745	Go_X	1.0
744.846	1.0	go	0.572	Go_O	1.0
747.371	0.55	stopfail	0.472	Go_O	0.0
749.912	1.0	go	0.729	Go_O	1.0
752.436	1.0	go	0.0	Go_X	0.0
754.96	0.5	stopsuccess	0.0	Go_X	1.0
757.484	1.0	go	0.0	Go_X	0.0
760.008	1.0	go	0.0	Go_O	0.0
762.532	0.55	stopsuccess	0.0	Go_O	1.0
765.057	1.0	go	0.0	Go_X	0.0
767.581	1.0	go	0.0	Go_O	0.0
770.105	1.0	go	0.416	Go_X	1.0
772.629	1.0	go	0.268	Go_O	1.0
775.153	0.6	stopfail	0.247	Go_X	0.0
777.677	1.0	go	0.317	Go_O	1.0
780.202	0.55	stopfail	0.41	Go_O	0.0
782.726	1.0	go	0.417	Go_X	1.0
785.25	1.0	go	0.657	Go_O	1.0
787.774	1.0	go	0.645	Go_X	1.0
790.298	1.0	go	0.0	Go_X	0.0
792.822	1.0	go	0.517	Go_O	1.0
795.347	0.5	stopsuccess	0.0	Go_X	1.0
797.871	1.0	go	0.0	Go_O	0.0
800.395	1.0	go	0.45	Go_X	1.0
802.919	0.55	stopfail	0.543	Go_O	0.0
805.443	0.5	stopfail	0.691	Go_X	0.0
807.967	1.0	go	0.66	Go_X	1.0
810.492	1.0	go	0.0	Go_O	0.0
813.016	1.0	go	0.0	Go_X	0.0
815.54	1.0	go	0.0	Go_O	0.0
818.064	0.45	stopfail	0.544	Go_O	0.0
820.588	1.0	go	0.767	Go_X	1.0
