onset	duration	trial_type	response_time	stim_file	accuracy
342.603	1.0	go	0.64	Go_O	1.0
345.16	1.0	go	0.342	Go_X	1.0
347.684	1.0	go	0.249	Go_O	1.0
350.208	1.0	go	0.291	Go_X	1.0
352.732	1.0	go	0.215	Go_O	1.0
355.257	1.0	go	0.264	Go_X	1.0
357.781	0.25	stop	0.242	Go_O	0.0
360.305	1.0	go	0.248	Go_X	1.0
362.829	0.2	stop	0.29	Go_X	0.0
365.353	1.0	go	0.227	Go_O	1.0
367.877	1.0	go	0.232	Go_O	1.0
370.402	1.0	go	0.266	Go_X	0.0
372.926	0.15	stop	0.224	Go_O	0.0
375.45	1.0	go	0.256	Go_X	1.0
377.974	1.0	go	0.353	Go_O	1.0
380.498	0.1	stop	0.232	Go_X	0.0
383.022	0.05	stop	0.0	Go_O	1.0
385.547	1.0	go	0.352	Go_O	1.0
388.071	1.0	go	0.481	Go_X	1.0
390.595	0.1	stop	0.0	Go_X	1.0
393.119	1.0	go	0.261	Go_O	1.0
395.643	1.0	go	0.332	Go_X	1.0
398.168	0.15	stop	0.0	Go_O	1.0
400.692	1.0	go	0.289	Go_O	1.0
403.216	1.0	go	0.545	Go_X	1.0
405.74	0.2	stop	0.33	Go_X	0.0
408.264	1.0	go	0.326	Go_O	1.0
410.788	1.0	go	0.433	Go_X	1.0
413.313	0.15	stop	0.0	Go_O	1.0
415.837	1.0	go	0.321	Go_O	1.0
418.361	1.0	go	0.321	Go_X	1.0
420.885	1.0	go	0.433	Go_O	1.0
423.409	1.0	go	0.394	Go_X	1.0
425.933	1.0	go	0.354	Go_X	1.0
428.458	0.2	stop	0.0	Go_X	1.0
430.982	1.0	go	0.267	Go_O	1.0
433.506	1.0	go	0.504	Go_X	1.0
436.03	1.0	go	0.315	Go_O	1.0
438.554	1.0	go	0.37	Go_X	1.0
441.078	1.0	go	0.345	Go_O	0.0
443.603	0.25	stop	0.386	Go_O	0.0
446.127	1.0	go	0.311	Go_O	1.0
448.651	1.0	go	0.344	Go_X	1.0
451.175	1.0	go	0.432	Go_O	1.0
453.699	1.0	go	0.337	Go_X	1.0
456.223	1.0	go	0.409	Go_X	1.0
458.748	1.0	go	0.386	Go_O	1.0
461.272	0.2	stop	0.0	Go_X	1.0
463.796	1.0	go	0.429	Go_X	1.0
466.32	1.0	go	0.28	Go_O	1.0
468.844	0.25	stop	0.373	Go_O	0.0
471.368	1.0	go	0.281	Go_O	1.0
473.893	0.2	stop	0.269	Go_X	0.0
476.417	0.15	stop	0.257	Go_O	0.0
478.941	1.0	go	0.296	Go_X	0.0
481.465	1.0	go	0.343	Go_O	1.0
483.989	1.0	go	0.345	Go_X	1.0
486.514	1.0	go	0.346	Go_X	1.0
489.038	0.1	stop	0.0	Go_X	1.0
491.562	1.0	go	0.279	Go_O	1.0
494.086	0.15	stop	0.297	Go_O	0.0
496.61	1.0	go	0.455	Go_X	1.0
499.134	1.0	go	0.609	Go_O	1.0
501.659	1.0	go	0.454	Go_O	1.0
504.183	1.0	go	0.328	Go_X	1.0
506.707	1.0	go	0.327	Go_O	1.0
509.231	1.0	go	0.259	Go_X	1.0
511.755	1.0	go	0.303	Go_O	1.0
514.279	1.0	go	0.403	Go_X	1.0
516.804	1.0	go	0.353	Go_O	1.0
519.328	0.1	stop	0.0	Go_X	1.0
521.852	1.0	go	0.536	Go_X	1.0
524.376	1.0	go	0.215	Go_O	1.0
526.9	1.0	go	0.29	Go_X	1.0
529.424	0.15	stop	0.0	Go_O	1.0
531.949	1.0	go	0.324	Go_X	1.0
534.473	1.0	go	0.285	Go_O	1.0
536.997	1.0	go	0.369	Go_O	1.0
539.521	1.0	go	0.302	Go_X	1.0
542.045	1.0	go	0.355	Go_X	1.0
544.569	1.0	go	0.333	Go_O	1.0
547.094	0.2	stop	0.27	Go_X	0.0
549.618	1.0	go	0.259	Go_O	1.0
552.142	1.0	go	0.418	Go_X	1.0
554.666	0.15	stop	0.0	Go_O	1.0
557.192	1.0	go	0.401	Go_X	1.0
559.715	1.0	go	0.245	Go_O	1.0
562.239	0.2	stop	0.259	Go_X	0.0
564.763	1.0	go	0.314	Go_O	1.0
567.287	0.15	stop	0.272	Go_O	0.0
569.811	1.0	go	0.507	Go_X	1.0
572.335	1.0	go	0.377	Go_O	1.0
574.86	1.0	go	0.361	Go_X	1.0
577.384	1.0	go	0.453	Go_X	1.0
579.908	1.0	go	0.363	Go_O	1.0
582.432	0.1	stop	0.0	Go_X	1.0
584.956	0.15	stop	0.349	Go_O	0.0
587.48	1.0	go	0.341	Go_X	1.0
590.005	1.0	go	0.248	Go_O	1.0
592.529	0.1	stop	0.0	Go_X	1.0
595.053	1.0	go	0.362	Go_X	1.0
597.577	1.0	go	0.326	Go_O	1.0
600.101	1.0	go	0.338	Go_O	1.0
602.625	1.0	go	0.423	Go_X	1.0
605.15	1.0	go	0.399	Go_X	1.0
607.674	1.0	go	0.41	Go_O	1.0
610.198	0.15	stop	0.0	Go_O	1.0
612.739	1.0	go	0.432	Go_X	1.0
615.263	1.0	go	0.372	Go_O	1.0
617.787	1.0	go	0.332	Go_O	1.0
620.311	1.0	go	0.301	Go_X	1.0
622.836	1.0	go	0.344	Go_O	1.0
625.36	0.2	stop	0.281	Go_X	0.0
627.884	1.0	go	0.419	Go_X	1.0
630.408	1.0	go	0.278	Go_O	1.0
632.932	1.0	go	0.681	Go_X	1.0
635.456	1.0	go	0.435	Go_O	1.0
637.981	0.15	stop	0.0	Go_O	1.0
640.505	1.0	go	0.408	Go_X	1.0
643.029	1.0	go	0.369	Go_X	1.0
645.553	0.2	stop	0.373	Go_X	0.0
648.077	1.0	go	0.381	Go_O	1.0
650.601	0.15	stop	0.0	Go_O	1.0
653.126	1.0	go	0.347	Go_X	1.0
655.65	1.0	go	0.343	Go_O	1.0
658.174	1.0	go	0.385	Go_X	1.0
660.698	1.0	go	0.535	Go_O	1.0
663.222	1.0	go	0.471	Go_X	1.0
665.746	1.0	go	0.292	Go_O	1.0
668.271	1.0	go	0.424	Go_O	1.0
670.795	0.2	stop	0.43	Go_X	0.0
673.336	1.0	go	0.385	Go_X	1.0
675.86	1.0	go	0.326	Go_O	1.0
678.384	1.0	go	0.36	Go_X	1.0
680.908	0.15	stop	0.305	Go_O	0.0
683.432	1.0	go	0.482	Go_X	1.0
685.957	1.0	go	0.355	Go_O	1.0
688.481	1.0	go	0.462	Go_X	1.0
691.005	1.0	go	0.396	Go_O	1.0
693.529	0.1	stop	0.0	Go_X	1.0
696.053	1.0	go	0.413	Go_O	1.0
698.577	1.0	go	0.345	Go_X	1.0
701.102	0.15	stop	0.0	Go_O	1.0
703.626	1.0	go	0.297	Go_X	1.0
706.15	1.0	go	0.433	Go_O	1.0
708.674	0.2	stop	0.419	Go_X	0.0
711.198	1.0	go	0.431	Go_O	1.0
713.722	1.0	go	0.501	Go_X	1.0
716.247	0.15	stop	0.0	Go_O	1.0
718.771	1.0	go	0.357	Go_X	1.0
721.295	1.0	go	0.304	Go_O	1.0
723.819	1.0	go	0.322	Go_X	1.0
726.343	1.0	go	0.416	Go_O	1.0
728.867	1.0	go	0.346	Go_O	1.0
731.392	1.0	go	0.391	Go_X	1.0
733.916	0.2	stop	0.311	Go_X	0.0
736.44	1.0	go	0.279	Go_O	1.0
738.964	0.15	stop	0.0	Go_O	1.0
741.488	1.0	go	0.277	Go_X	1.0
744.012	1.0	go	0.462	Go_O	1.0
746.537	1.0	go	0.297	Go_X	1.0
749.061	1.0	go	0.294	Go_X	1.0
751.585	1.0	go	0.326	Go_O	1.0
754.109	0.2	stop	0.364	Go_X	0.0
756.633	1.0	go	0.255	Go_O	1.0
759.158	1.0	go	0.323	Go_X	1.0
761.682	1.0	go	0.292	Go_X	0.0
764.206	0.15	stop	0.258	Go_O	0.0
766.73	0.1	stop	0.0	Go_X	1.0
769.254	0.15	stop	0.0	Go_O	1.0
771.778	1.0	go	0.425	Go_O	1.0
774.303	0.2	stop	0.0	Go_X	1.0
776.827	1.0	go	0.397	Go_O	1.0
779.351	1.0	go	0.701	Go_X	1.0
781.875	1.0	go	0.406	Go_X	1.0
784.399	1.0	go	0.332	Go_O	1.0
786.923	1.0	go	0.314	Go_X	1.0
789.448	1.0	go	0.235	Go_O	1.0
791.972	1.0	go	0.327	Go_O	1.0
794.496	1.0	go	0.388	Go_X	1.0
797.02	0.25	stop	0.0	Go_O	1.0
799.544	1.0	go	0.375	Go_X	1.0
802.068	1.0	go	0.513	Go_O	1.0
804.593	0.3	stop	0.319	Go_X	0.0
807.117	1.0	go	0.562	Go_X	1.0
809.641	1.0	go	0.406	Go_O	1.0
812.165	1.0	go	0.318	Go_X	1.0
814.689	1.0	go	0.388	Go_O	1.0
817.213	1.0	go	0.336	Go_O	0.0
819.738	0.25	stop	0.359	Go_O	0.0
822.262	1.0	go	0.457	Go_X	1.0
824.786	1.0	go	0.355	Go_X	1.0
827.31	1.0	go	0.4	Go_O	1.0
829.834	0.2	stop	0.348	Go_X	0.0
832.358	1.0	go	0.442	Go_O	1.0
834.883	0.15	stop	0.318	Go_O	0.0
837.407	1.0	go	0.433	Go_X	1.0
839.931	1.0	go	0.469	Go_X	0.0
842.455	1.0	go	0.27	Go_O	1.0
844.979	1.0	go	0.321	Go_O	1.0
847.504	1.0	go	0.357	Go_X	1.0
850.028	1.0	go	0.415	Go_X	1.0
852.552	1.0	go	0.331	Go_O	1.0
855.076	0.1	stop	0.0	Go_X	1.0
857.6	1.0	go	0.369	Go_O	1.0
860.124	1.0	go	0.475	Go_X	1.0
862.649	1.0	go	0.369	Go_X	1.0
865.173	1.0	go	0.522	Go_O	1.0
867.697	0.15	stop	0.0	Go_O	1.0
870.221	1.0	go	0.353	Go_O	1.0
872.745	0.2	stop	0.0	Go_X	1.0
875.269	1.0	go	0.552	Go_X	1.0
877.794	1.0	go	0.345	Go_O	1.0
880.318	0.25	stop	0.28	Go_O	0.0
882.842	1.0	go	0.387	Go_X	1.0
885.366	1.0	go	0.368	Go_X	1.0
887.89	1.0	go	0.319	Go_O	1.0
890.414	1.0	go	0.409	Go_X	1.0
892.939	1.0	go	0.363	Go_O	1.0
895.463	1.0	go	0.366	Go_O	1.0
897.987	1.0	go	0.447	Go_X	0.0
900.511	1.0	go	0.339	Go_X	1.0
903.035	1.0	go	0.451	Go_O	1.0
905.559	1.0	go	0.475	Go_O	1.0
908.084	0.2	stop	0.0	Go_X	1.0
910.608	1.0	go	0.379	Go_X	1.0
913.132	1.0	go	0.381	Go_X	1.0
915.656	0.25	stop	0.517	Go_O	0.0
918.18	1.0	go	0.342	Go_O	1.0
920.705	0.2	stop	0.395	Go_X	0.0
923.229	1.0	go	0.441	Go_O	1.0
925.753	1.0	go	0.445	Go_X	1.0
928.277	0.15	stop	0.0	Go_O	1.0
930.801	1.0	go	0.458	Go_X	1.0
933.325	0.2	stop	0.437	Go_X	0.0
935.85	1.0	go	0.395	Go_O	1.0
938.374	1.0	go	0.357	Go_O	1.0
940.898	1.0	go	0.438	Go_X	1.0
943.422	0.15	stop	0.0	Go_O	1.0
945.946	1.0	go	0.368	Go_O	1.0
948.47	1.0	go	0.678	Go_X	1.0
950.995	1.0	go	0.322	Go_X	1.0
953.519	1.0	go	0.411	Go_O	1.0
956.043	0.2	stop	0.0	Go_X	1.0
958.567	1.0	go	0.635	Go_O	0.0
961.091	1.0	go	0.383	Go_X	1.0
963.615	0.25	stop	0.317	Go_O	0.0
966.14	1.0	go	0.378	Go_X	1.0
968.664	1.0	go	0.309	Go_O	1.0
971.188	1.0	go	0.406	Go_X	1.0
973.712	1.0	go	0.311	Go_O	1.0
976.236	0.2	stop	0.434	Go_X	0.0
978.76	1.0	go	0.55	Go_O	1.0
981.285	0.15	stop	0.0	Go_O	1.0
983.809	1.0	go	0.365	Go_X	1.0
986.333	1.0	go	0.432	Go_X	1.0
988.857	0.2	stop	0.0	Go_X	1.0
991.381	1.0	go	0.375	Go_O	1.0
993.905	1.0	go	0.511	Go_X	0.0
996.43	1.0	go	0.37	Go_O	1.0
998.954	1.0	go	0.318	Go_X	1.0
1001.478	0.25	stop	0.381	Go_O	0.0
1004.002	1.0	go	0.325	Go_O	1.0
1006.526	0.2	stop	0.0	Go_X	1.0
1009.051	1.0	go	0.406	Go_O	1.0
1011.575	1.0	go	0.44	Go_X	1.0
1014.099	1.0	go	0.433	Go_O	1.0
1016.623	1.0	go	0.366	Go_X	1.0
1019.147	1.0	go	0.384	Go_X	1.0
1021.671	1.0	go	0.364	Go_O	1.0
1024.196	0.25	stop	0.275	Go_O	0.0
1026.72	1.0	go	0.426	Go_O	1.0
1029.244	1.0	go	0.493	Go_X	1.0
1031.768	0.2	stop	0.409	Go_X	0.0
1034.292	1.0	go	0.0	Go_X	0.0
1036.816	1.0	go	0.326	Go_O	1.0
1039.341	0.15	stop	0.375	Go_O	0.0
1041.865	1.0	go	0.327	Go_X	1.0
1044.389	1.0	go	0.387	Go_O	1.0
1046.913	1.0	go	0.416	Go_X	1.0
1049.437	1.0	go	0.488	Go_O	1.0
1051.961	0.1	stop	0.0	Go_X	1.0
1054.486	1.0	go	0.585	Go_X	1.0
1057.01	0.15	stop	0.314	Go_O	0.0
1059.534	1.0	go	0.324	Go_O	1.0
1062.058	1.0	go	0.288	Go_O	1.0
1064.582	1.0	go	0.322	Go_X	1.0
1067.106	1.0	go	0.319	Go_X	1.0
1069.631	1.0	go	0.343	Go_O	1.0
1072.155	0.1	stop	0.0	Go_X	1.0
1074.679	1.0	go	0.412	Go_O	1.0
1077.203	1.0	go	0.49	Go_X	0.0
1079.727	0.15	stop	0.0	Go_O	1.0
1082.251	0.2	stop	0.313	Go_X	0.0
1084.776	1.0	go	0.355	Go_X	1.0
1087.3	1.0	go	0.349	Go_O	1.0
1089.824	1.0	go	0.551	Go_X	1.0
1092.348	1.0	go	0.455	Go_O	1.0
1094.872	0.15	stop	0.0	Go_O	1.0
1097.397	1.0	go	0.365	Go_X	1.0
