onset	duration	trial_type	response_time	stim_file	accuracy
38.463	1.0	go	0.728	Go_X	1.0
41.004	1.0	go	0.42	Go_O	1.0
43.528	1.0	go	0.596	Go_X	0.0
46.052	1.0	go	0.297	Go_O	1.0
48.593	1.0	go	0.253	Go_X	1.0
51.117	1.0	go	0.367	Go_O	1.0
53.641	0.25	stopsuccess	0.0	Go_O	1.0
56.166	1.0	go	0.437	Go_O	1.0
58.69	0.3	stopfail	0.296	Go_X	0.0
61.214	1.0	go	0.596	Go_X	1.0
63.738	1.0	go	0.444	Go_X	1.0
66.262	1.0	go	0.223	Go_O	1.0
68.787	0.25	stopsuccess	0.0	Go_O	1.0
71.327	1.0	go	0.404	Go_O	1.0
73.852	1.0	go	0.237	Go_X	1.0
76.376	0.3	stopfail	0.208	Go_X	0.0
78.917	0.25	stopfail	0.387	Go_O	0.0
81.458	1.0	go	0.358	Go_O	1.0
83.982	1.0	go	0.274	Go_X	1.0
86.506	0.2	stopfail	0.354	Go_X	0.0
89.03	1.0	go	0.373	Go_X	1.0
91.555	1.0	go	0.462	Go_O	1.0
94.095	0.15	stopsuccess	0.0	Go_O	1.0
96.62	1.0	go	0.289	Go_X	1.0
99.161	1.0	go	0.47	Go_O	1.0
101.685	0.2	stopfail	0.266	Go_X	0.0
104.209	1.0	go	0.662	Go_O	1.0
106.733	1.0	go	0.286	Go_X	1.0
109.257	0.15	stopsuccess	0.0	Go_O	1.0
111.782	1.0	go	0.47	Go_X	1.0
114.306	1.0	go	0.309	Go_O	1.0
116.83	1.0	go	0.566	Go_O	1.0
119.354	1.0	go	0.546	Go_X	0.0
121.878	1.0	go	0.519	Go_O	1.0
124.403	0.2	stopsuccess	0.0	Go_X	1.0
126.927	1.0	go	0.286	Go_X	1.0
129.451	1.0	go	0.413	Go_O	1.0
131.975	1.0	go	0.229	Go_X	1.0
134.499	1.0	go	0.402	Go_O	1.0
137.024	1.0	go	0.295	Go_X	1.0
139.548	0.25	stopsuccess	0.0	Go_O	1.0
142.072	1.0	go	0.391	Go_X	1.0
144.596	1.0	go	0.312	Go_O	1.0
147.12	1.0	go	0.355	Go_X	1.0
149.645	1.0	go	0.289	Go_O	1.0
152.169	1.0	go	0.325	Go_X	1.0
154.693	1.0	go	0.292	Go_O	1.0
157.234	0.3	stopfail	0.308	Go_X	0.0
159.758	1.0	go	0.288	Go_O	1.0
162.282	1.0	go	0.556	Go_X	1.0
164.807	0.25	stopfail	0.384	Go_O	0.0
167.331	1.0	go	0.49	Go_O	1.0
169.855	0.2	stopfail	0.306	Go_X	0.0
172.396	0.15	stopsuccess	0.0	Go_O	1.0
174.92	1.0	go	0.439	Go_X	1.0
177.444	1.0	go	0.46	Go_X	1.0
179.969	1.0	go	0.322	Go_O	1.0
182.509	1.0	go	0.478	Go_O	1.0
185.034	0.2	stopsuccess	0.0	Go_X	1.0
187.575	1.0	go	0.307	Go_X	1.0
190.099	0.25	stopsuccess	0.0	Go_O	1.0
192.623	1.0	go	0.497	Go_X	1.0
195.147	1.0	go	0.675	Go_O	1.0
197.671	1.0	go	0.43	Go_X	1.0
200.196	1.0	go	0.583	Go_O	1.0
202.72	1.0	go	0.4	Go_X	1.0
205.244	1.0	go	0.542	Go_O	1.0
207.768	1.0	go	0.441	Go_O	1.0
210.292	1.0	go	0.435	Go_X	1.0
212.817	1.0	go	0.478	Go_O	1.0
215.341	0.3	stopsuccess	0.0	Go_X	1.0
217.865	1.0	go	0.524	Go_X	1.0
220.389	1.0	go	0.303	Go_X	1.0
222.913	1.0	go	0.426	Go_O	1.0
225.438	0.35	stopfail	0.595	Go_O	0.0
227.962	1.0	go	0.54	Go_O	1.0
230.486	1.0	go	0.324	Go_X	1.0
233.01	1.0	go	0.471	Go_X	1.0
235.534	1.0	go	0.399	Go_O	1.0
238.059	1.0	go	0.627	Go_O	1.0
240.583	1.0	go	0.302	Go_X	1.0
243.107	0.3	stopsuccess	0.0	Go_X	1.0
245.631	1.0	go	0.659	Go_X	1.0
248.155	1.0	go	0.528	Go_O	1.0
250.68	0.35	stopsuccess	0.0	Go_O	1.0
253.221	1.0	go	0.609	Go_X	1.0
255.745	1.0	go	0.643	Go_O	1.0
258.269	0.4	stopsuccess	0.0	Go_X	1.0
260.793	1.0	go	0.449	Go_X	1.0
263.317	0.45	stopfail	0.424	Go_O	0.0
265.858	1.0	go	0.448	Go_O	1.0
268.383	1.0	go	0.458	Go_X	1.0
270.907	1.0	go	0.75	Go_O	1.0
273.431	1.0	go	0.472	Go_O	1.0
275.955	1.0	go	0.696	Go_X	1.0
278.479	0.4	stopsuccess	0.0	Go_X	1.0
281.004	0.45	stopfail	0.589	Go_O	0.0
283.544	1.0	go	0.668	Go_X	1.0
286.069	1.0	go	0.468	Go_O	1.0
288.593	0.4	stopfail	0.462	Go_X	0.0
291.117	1.0	go	0.511	Go_O	1.0
293.641	1.0	go	0.487	Go_X	1.0
296.165	1.0	go	0.536	Go_X	1.0
298.69	1.0	go	0.489	Go_O	1.0
301.214	1.0	go	0.494	Go_O	1.0
303.738	1.0	go	0.532	Go_X	1.0
306.262	0.35	stopfail	0.332	Go_O	0.0
308.786	1.0	go	0.467	Go_X	1.0
311.311	1.0	go	0.5	Go_O	1.0
313.835	1.0	go	0.633	Go_X	1.0
316.359	1.0	go	0.422	Go_O	1.0
318.885	1.0	go	0.643	Go_O	1.0
321.407	0.3	stopfail	0.494	Go_X	0.0
323.932	1.0	go	0.384	Go_X	1.0
326.456	1.0	go	0.739	Go_O	1.0
328.98	1.0	go	0.47	Go_X	1.0
331.504	1.0	go	0.879	Go_O	1.0
334.029	0.25	stopfail	0.454	Go_O	0.0
336.569	1.0	go	0.404	Go_X	1.0
339.094	1.0	go	0.586	Go_X	1.0
341.618	0.2	stopfail	0.423	Go_X	0.0
344.142	1.0	go	0.41	Go_O	1.0
346.666	0.15	stopsuccess	0.0	Go_O	1.0
349.19	1.0	go	0.416	Go_O	1.0
351.715	1.0	go	0.287	Go_X	1.0
354.239	1.0	go	0.338	Go_O	1.0
356.763	1.0	go	0.35	Go_X	1.0
359.304	1.0	go	0.715	Go_X	1.0
361.828	1.0	go	0.541	Go_O	1.0
364.352	1.0	go	0.718	Go_O	1.0
366.877	0.2	stopsuccess	0.0	Go_X	1.0
369.401	1.0	go	0.0	Go_X	0.0
371.925	1.0	go	0.437	Go_X	1.0
374.449	1.0	go	0.451	Go_O	1.0
376.973	0.25	stopsuccess	0.0	Go_O	1.0
379.498	1.0	go	0.743	Go_O	1.0
382.022	1.0	go	0.666	Go_X	1.0
384.546	1.0	go	0.0	Go_X	0.0
387.087	1.0	go	0.467	Go_O	1.0
389.611	0.3	stopsuccess	0.0	Go_X	1.0
392.152	1.0	go	0.553	Go_X	1.0
394.676	1.0	go	0.0	Go_O	0.0
397.217	0.35	stopsuccess	0.0	Go_O	1.0
399.741	1.0	go	0.0	Go_X	0.0
402.266	1.0	go	0.253	Go_O	1.0
404.79	0.4	stopfail	0.571	Go_X	0.0
407.314	1.0	go	0.778	Go_X	1.0
409.838	1.0	go	0.379	Go_O	1.0
412.362	0.35	stopsuccess	0.0	Go_O	1.0
414.903	1.0	go	0.527	Go_X	1.0
417.428	1.0	go	0.868	Go_O	1.0
419.968	1.0	go	0.683	Go_X	1.0
422.493	1.0	go	0.403	Go_O	1.0
425.017	1.0	go	0.5	Go_X	1.0
427.541	1.0	go	0.766	Go_O	1.0
430.065	0.4	stopfail	0.716	Go_X	0.0
432.589	1.0	go	0.707	Go_O	1.0
435.114	0.35	stopsuccess	0.0	Go_O	1.0
437.655	1.0	go	0.0	Go_X	0.0
440.179	1.0	go	0.467	Go_X	1.0
442.703	1.0	go	0.622	Go_O	1.0
445.227	1.0	go	0.0	Go_X	0.0
447.751	1.0	go	0.449	Go_O	1.0
450.276	0.4	stopfail	0.467	Go_X	0.0
452.817	1.0	go	0.563	Go_O	1.0
455.341	1.0	go	0.404	Go_X	1.0
457.882	1.0	go	0.547	Go_X	1.0
460.423	0.35	stopfail	0.66	Go_O	0.0
462.947	0.3	stopfail	0.56	Go_X	0.0
465.471	0.25	stopfail	0.383	Go_O	0.0
468.012	1.0	go	0.474	Go_O	1.0
470.536	0.2	stopsuccess	0.0	Go_X	1.0
473.06	1.0	go	0.0	Go_X	0.0
475.585	1.0	go	0.901	Go_O	1.0
478.109	1.0	go	0.797	Go_X	1.0
480.65	1.0	go	0.545	Go_O	1.0
483.174	1.0	go	0.902	Go_O	0.0
485.698	1.0	go	0.592	Go_X	1.0
488.222	1.0	go	0.472	Go_X	1.0
490.746	1.0	go	0.473	Go_O	1.0
493.271	0.25	stopsuccess	0.0	Go_O	1.0
495.812	1.0	go	0.544	Go_O	1.0
498.336	1.0	go	0.615	Go_X	1.0
500.86	0.3	stopfail	0.569	Go_X	0.0
503.401	1.0	go	0.609	Go_X	1.0
505.925	1.0	go	0.4	Go_O	1.0
508.449	1.0	go	0.544	Go_X	1.0
510.973	1.0	go	0.822	Go_O	1.0
513.498	1.0	go	0.665	Go_X	1.0
516.022	0.25	stopsuccess	0.0	Go_O	1.0
518.546	1.0	go	0.897	Go_O	1.0
521.07	1.0	go	0.716	Go_O	1.0
523.594	1.0	go	0.554	Go_X	1.0
526.135	0.3	stopsuccess	0.0	Go_X	1.0
528.66	1.0	go	0.0	Go_O	0.0
531.184	0.35	stopsuccess	0.0	Go_O	1.0
533.725	1.0	go	0.38	Go_X	1.0
536.249	1.0	go	0.527	Go_X	1.0
538.773	1.0	go	0.623	Go_O	1.0
541.297	1.0	go	0.6	Go_O	1.0
543.822	1.0	go	0.0	Go_X	0.0
546.346	1.0	go	0.475	Go_O	1.0
548.87	1.0	go	0.516	Go_X	1.0
551.394	0.4	stopfail	0.516	Go_X	0.0
553.918	1.0	go	0.814	Go_O	1.0
556.443	1.0	go	0.693	Go_X	1.0
558.967	1.0	go	0.0	Go_O	0.0
561.491	1.0	go	0.437	Go_X	1.0
564.015	0.35	stopfail	0.412	Go_O	0.0
566.539	1.0	go	0.0	Go_O	0.0
569.064	0.3	stopfail	0.432	Go_X	0.0
571.588	1.0	go	0.729	Go_X	1.0
574.112	1.0	go	0.54	Go_X	1.0
576.636	0.25	stopfail	0.376	Go_O	0.0
579.16	1.0	go	0.624	Go_O	1.0
581.685	1.0	go	0.0	Go_X	0.0
584.209	1.0	go	0.0	Go_O	0.0
586.733	1.0	go	0.405	Go_X	1.0
589.257	1.0	go	0.488	Go_O	1.0
591.781	1.0	go	0.544	Go_O	1.0
594.306	1.0	go	0.846	Go_X	1.0
596.83	1.0	go	0.775	Go_O	1.0
599.354	1.0	go	0.465	Go_X	1.0
601.878	1.0	go	0.461	Go_X	0.0
604.402	0.2	stopsuccess	0.0	Go_X	1.0
606.927	1.0	go	0.54	Go_O	1.0
609.468	1.0	go	0.493	Go_O	1.0
611.992	0.25	stopfail	0.508	Go_O	0.0
614.516	1.0	go	0.689	Go_X	1.0
617.04	0.2	stopsuccess	0.0	Go_X	1.0
619.564	1.0	go	0.521	Go_O	1.0
622.089	1.0	go	0.0	Go_X	0.0
624.613	0.25	stopsuccess	0.0	Go_O	1.0
627.137	1.0	go	0.452	Go_X	1.0
629.661	0.3	stopfail	0.449	Go_X	0.0
632.185	1.0	go	0.676	Go_O	1.0
634.71	1.0	go	0.0	Go_X	0.0
637.234	1.0	go	0.772	Go_O	1.0
639.758	0.25	stopsuccess	0.0	Go_O	1.0
642.282	1.0	go	0.0	Go_O	0.0
644.806	1.0	go	0.483	Go_X	1.0
647.331	1.0	go	0.528	Go_X	1.0
649.855	1.0	go	0.862	Go_O	1.0
652.379	0.3	stopsuccess	0.0	Go_X	1.0
654.903	1.0	go	0.798	Go_O	1.0
657.427	1.0	go	0.46	Go_X	1.0
659.952	0.35	stopfail	0.528	Go_O	0.0
662.493	1.0	go	0.262	Go_X	1.0
665.017	1.0	go	0.495	Go_O	1.0
667.558	1.0	go	0.601	Go_O	1.0
670.099	1.0	go	0.0	Go_X	0.0
672.623	0.3	stopfail	0.492	Go_X	0.0
675.147	1.0	go	0.63	Go_X	1.0
677.671	0.25	stopsuccess	0.0	Go_O	1.0
680.212	1.0	go	0.713	Go_O	1.0
682.736	1.0	go	0.58	Go_O	1.0
685.261	0.3	stopfail	0.584	Go_X	0.0
687.785	1.0	go	0.0	Go_X	0.0
690.309	1.0	go	0.0	Go_O	0.0
692.833	1.0	go	0.627	Go_X	1.0
695.357	1.0	go	0.586	Go_O	1.0
697.898	0.25	stopsuccess	0.0	Go_O	1.0
700.423	1.0	go	0.629	Go_X	1.0
702.947	0.3	stopsuccess	0.0	Go_X	1.0
705.471	1.0	go	0.398	Go_O	1.0
707.995	1.0	go	0.618	Go_X	1.0
710.519	1.0	go	0.359	Go_X	0.0
713.043	1.0	go	0.53	Go_O	1.0
715.571	1.0	go	0.489	Go_X	1.0
718.092	1.0	go	0.484	Go_O	1.0
720.616	0.35	stopfail	0.644	Go_O	0.0
723.14	1.0	go	0.833	Go_O	1.0
725.664	1.0	go	0.356	Go_X	1.0
728.189	0.3	stopsuccess	0.0	Go_X	1.0
730.713	1.0	go	0.719	Go_X	1.0
733.237	1.0	go	0.871	Go_O	1.0
735.761	0.35	stopsuccess	0.0	Go_O	1.0
738.285	1.0	go	0.565	Go_O	1.0
740.81	1.0	go	0.723	Go_X	1.0
743.334	1.0	go	0.0	Go_O	0.0
745.858	1.0	go	0.481	Go_X	1.0
748.382	0.4	stopfail	0.521	Go_X	0.0
750.907	1.0	go	0.638	Go_O	1.0
753.447	0.35	stopsuccess	0.0	Go_O	1.0
755.972	1.0	go	0.743	Go_X	1.0
758.496	1.0	go	0.592	Go_O	1.0
761.02	1.0	go	0.604	Go_X	1.0
763.544	1.0	go	0.634	Go_X	1.0
766.068	1.0	go	0.337	Go_O	1.0
768.593	0.4	stopfail	0.613	Go_X	0.0
771.117	1.0	go	0.497	Go_O	1.0
773.643	1.0	go	0.68	Go_X	1.0
776.165	0.35	stopfail	0.409	Go_O	0.0
778.689	0.3	stopsuccess	0.0	Go_X	1.0
781.214	1.0	go	0.569	Go_X	1.0
783.738	1.0	go	0.0	Go_O	0.0
786.262	1.0	go	0.585	Go_X	1.0
788.786	1.0	go	0.0	Go_O	0.0
791.31	0.35	stopfail	0.533	Go_O	0.0
793.851	1.0	go	0.61	Go_O	1.0
