onset	duration	trial_type	response_time	stim_file	accuracy
0.534000000000006	1.0	go	0.673	Go_X	0.0
3.0670000000000073	1.0	go	0.434	Go_O	1.0
5.600999999999999	1.0	go	0.461	Go_O	1.0
8.134	1.0	go	0.284	Go_X	1.0
10.667000000000002	1.0	go	0.467	Go_O	1.0
13.201000000000008	1.0	go	0.317	Go_X	1.0
15.734000000000009	0.25	stopfail	0.389	Go_O	0.0
18.266999999999996	1.0	go	0.478	Go_O	1.0
20.799999999999997	0.2	stopfail	0.446	Go_X	0.0
23.334000000000003	1.0	go	0.412	Go_X	0.0
25.867000000000004	1.0	go	0.609	Go_X	1.0
28.400000000000006	1.0	go	0.336	Go_O	1.0
30.933999999999997	0.15	stopsuccess	0.0	Go_O	1.0
33.467	1.0	go	0.341	Go_X	1.0
36.0	1.0	go	0.283	Go_O	1.0
38.533	0.2	stopsuccess	0.0	Go_X	1.0
41.06700000000001	0.25	stopfail	0.242	Go_O	0.0
43.60000000000001	1.0	go	0.338	Go_X	1.0
46.13300000000001	1.0	go	0.291	Go_O	1.0
48.667	0.2	stopsuccess	0.0	Go_X	1.0
51.2	1.0	go	0.33	Go_O	1.0
53.733000000000004	1.0	go	0.613	Go_X	0.0
56.266000000000005	0.25	stopfail	0.401	Go_O	0.0
58.8	1.0	go	0.565	Go_X	1.0
61.333	1.0	go	0.412	Go_O	1.0
63.866000000000014	0.2	stopsuccess	0.0	Go_X	1.0
66.4	1.0	go	0.322	Go_O	1.0
68.93299999999999	1.0	go	0.393	Go_X	1.0
71.46600000000001	0.25	stopfail	0.254	Go_O	0.0
73.999	1.0	go	0.325	Go_O	0.0
76.53300000000002	1.0	go	0.312	Go_X	1.0
79.066	1.0	go	0.639	Go_O	1.0
81.59899999999999	1.0	go	0.356	Go_X	1.0
84.13300000000001	1.0	go	0.329	Go_X	0.0
86.666	0.2	stopfail	0.371	Go_X	0.0
89.19900000000001	1.0	go	0.38	Go_O	1.0
91.732	1.0	go	0.461	Go_O	1.0
94.26599999999999	1.0	go	0.52	Go_X	1.0
96.799	1.0	go	0.711	Go_X	0.0
99.332	1.0	go	0.352	Go_O	1.0
101.86600000000001	0.15	stopsuccess	0.0	Go_O	1.0
104.399	1.0	go	0.527	Go_O	1.0
106.93200000000002	1.0	go	0.549	Go_X	0.0
109.465	1.0	go	0.528	Go_X	1.0
111.999	1.0	go	0.835	Go_O	1.0
114.53200000000001	1.0	go	0.309	Go_X	1.0
117.065	1.0	go	0.533	Go_O	1.0
119.59899999999999	0.2	stopsuccess	0.0	Go_X	1.0
122.132	1.0	go	0.395	Go_O	1.0
124.66499999999999	1.0	go	0.393	Go_X	1.0
127.19800000000001	0.25	stopfail	0.402	Go_O	0.0
129.732	1.0	go	0.374	Go_X	1.0
132.26500000000001	0.2	stopsuccess	0.0	Go_X	1.0
134.798	0.25	stopfail	0.284	Go_O	0.0
137.332	1.0	go	0.575	Go_O	1.0
139.865	1.0	go	0.504	Go_O	1.0
142.398	1.0	go	0.516	Go_X	1.0
144.931	1.0	go	0.51	Go_X	1.0
147.465	0.2	stopsuccess	0.0	Go_X	1.0
149.998	1.0	go	0.32	Go_O	1.0
152.531	0.25	stopfail	0.406	Go_O	0.0
155.065	1.0	go	0.482	Go_O	1.0
157.598	1.0	go	0.325	Go_X	1.0
160.131	1.0	go	0.507	Go_O	1.0
162.66400000000002	1.0	go	0.367	Go_X	1.0
165.198	1.0	go	0.459	Go_O	1.0
167.731	1.0	go	0.257	Go_X	1.0
170.264	1.0	go	0.447	Go_O	1.0
172.798	1.0	go	0.373	Go_X	1.0
175.331	1.0	go	0.607	Go_O	1.0
177.864	0.2	stopfail	0.275	Go_X	0.0
180.397	1.0	go	0.313	Go_X	0.0
182.931	1.0	go	0.409	Go_X	1.0
185.464	1.0	go	0.581	Go_O	1.0
187.997	0.15	stopsuccess	0.0	Go_O	1.0
190.53099999999998	1.0	go	0.313	Go_X	1.0
193.064	1.0	go	0.385	Go_O	1.0
195.597	1.0	go	0.381	Go_X	1.0
198.13000000000002	1.0	go	0.318	Go_O	1.0
200.66400000000002	1.0	go	0.492	Go_O	1.0
203.19700000000003	1.0	go	0.468	Go_X	1.0
205.73	0.2	stopfail	0.322	Go_X	0.0
208.26399999999998	1.0	go	0.414	Go_X	1.0
210.797	1.0	go	0.439	Go_O	1.0
213.33	0.15	stopsuccess	0.0	Go_O	1.0
215.86300000000003	1.0	go	0.522	Go_O	1.0
218.39700000000002	1.0	go	0.407	Go_X	0.0
220.92999999999998	0.2	stopsuccess	0.0	Go_X	1.0
223.463	1.0	go	0.437	Go_X	1.0
225.99699999999999	0.25	stopfail	0.5	Go_O	0.0
228.53	1.0	go	0.56	Go_O	1.0
231.06300000000002	1.0	go	0.378	Go_X	1.0
233.59599999999998	1.0	go	0.44	Go_O	1.0
236.13000000000002	1.0	go	0.589	Go_O	1.0
238.66299999999998	1.0	go	0.341	Go_X	1.0
241.196	0.2	stopsuccess	0.0	Go_X	1.0
243.73	0.25	stopfail	0.31	Go_O	0.0
246.263	1.0	go	0.574	Go_X	1.0
248.79600000000002	1.0	go	0.319	Go_O	1.0
251.32899999999998	0.2	stopsuccess	0.0	Go_X	1.0
253.86300000000003	1.0	go	0.531	Go_X	1.0
256.39599999999996	1.0	go	0.508	Go_O	1.0
258.929	1.0	go	0.326	Go_X	1.0
261.46299999999997	1.0	go	0.293	Go_O	1.0
263.996	1.0	go	0.425	Go_O	0.0
266.529	1.0	go	0.31	Go_X	1.0
269.062	0.25	stopfail	0.335	Go_O	0.0
271.596	1.0	go	0.465	Go_O	1.0
274.129	1.0	go	0.353	Go_X	1.0
276.66200000000003	1.0	go	0.313	Go_X	0.0
279.196	1.0	go	0.568	Go_O	1.0
281.72900000000004	1.0	go	0.318	Go_X	1.0
284.26200000000006	0.2	stopsuccess	0.0	Go_X	1.0
286.79499999999996	1.0	go	0.384	Go_O	1.0
289.32899999999995	1.0	go	0.544	Go_O	1.0
291.86199999999997	1.0	go	0.574	Go_X	0.0
294.395	1.0	go	0.415	Go_O	1.0
296.929	0.25	stopsuccess	0.0	Go_O	1.0
299.462	1.0	go	0.317	Go_X	1.0
301.995	1.0	go	0.452	Go_X	1.0
304.528	0.3	stopfail	0.451	Go_X	0.0
307.062	1.0	go	0.478	Go_O	1.0
309.595	0.25	stopsuccess	0.0	Go_O	1.0
312.12800000000004	1.0	go	0.572	Go_O	1.0
314.66200000000003	1.0	go	0.896	Go_X	1.0
317.19500000000005	1.0	go	0.364	Go_O	1.0
319.72799999999995	1.0	go	0.464	Go_X	1.0
322.26099999999997	1.0	go	0.358	Go_O	1.0
324.79499999999996	1.0	go	0.465	Go_X	0.0
327.328	1.0	go	0.711	Go_O	1.0
329.861	0.3	stopfail	0.377	Go_X	0.0
332.395	1.0	go	0.457	Go_X	1.0
334.928	1.0	go	0.369	Go_O	1.0
337.461	1.0	go	0.251	Go_X	1.0
339.994	0.25	stopfail	0.372	Go_O	0.0
342.528	1.0	go	0.505	Go_X	1.0
345.06100000000004	1.0	go	0.407	Go_O	1.0
347.59400000000005	1.0	go	0.616	Go_O	1.0
350.12800000000004	1.0	go	0.369	Go_X	1.0
352.66100000000006	0.2	stopsuccess	0.0	Go_X	1.0
355.19399999999996	1.0	go	0.395	Go_X	1.0
357.727	1.0	go	0.355	Go_O	1.0
360.26099999999997	0.25	stopfail	0.378	Go_O	0.0
362.794	1.0	go	0.529	Go_X	1.0
365.327	1.0	go	0.467	Go_O	1.0
367.861	0.2	stopsuccess	0.0	Go_X	1.0
370.394	1.0	go	0.516	Go_O	1.0
372.927	1.0	go	0.338	Go_X	1.0
375.46000000000004	0.25	stopfail	0.391	Go_O	0.0
377.994	1.0	go	0.423	Go_X	1.0
380.52700000000004	1.0	go	0.4	Go_O	1.0
383.06000000000006	1.0	go	0.575	Go_X	1.0
385.59400000000005	1.0	go	0.564	Go_O	1.0
388.12699999999995	1.0	go	0.496	Go_X	1.0
390.65999999999997	1.0	go	0.54	Go_O	1.0
393.193	0.2	stopsuccess	0.0	Go_X	1.0
395.727	1.0	go	0.356	Go_O	1.0
398.26	0.25	stopsuccess	0.0	Go_O	1.0
400.793	1.0	go	0.745	Go_X	0.0
403.327	1.0	go	0.521	Go_X	1.0
405.86	1.0	go	0.483	Go_O	1.0
408.39300000000003	1.0	go	0.536	Go_X	0.0
410.92600000000004	1.0	go	0.431	Go_O	1.0
413.46000000000004	0.3	stopfail	0.303	Go_X	0.0
415.99300000000005	1.0	go	0.536	Go_O	1.0
418.52599999999995	1.0	go	0.356	Go_X	1.0
421.06000000000006	1.0	go	0.411	Go_O	1.0
423.60900000000004	0.25	stopsuccess	0.0	Go_O	1.0
426.14300000000003	0.3	stopsuccess	0.0	Go_X	1.0
428.67600000000004	0.35	stopfail	0.329	Go_O	0.0
431.20899999999995	1.0	go	0.543	Go_X	1.0
433.74300000000005	0.3	stopsuccess	0.0	Go_X	1.0
436.27599999999995	1.0	go	0.654	Go_X	1.0
438.80899999999997	1.0	go	0.353	Go_O	1.0
441.342	1.0	go	0.378	Go_O	0.0
443.876	1.0	go	0.549	Go_X	1.0
446.409	1.0	go	0.52	Go_X	1.0
448.942	1.0	go	0.392	Go_O	1.0
451.476	1.0	go	0.513	Go_X	0.0
454.009	1.0	go	0.382	Go_O	1.0
456.54200000000003	0.35	stopsuccess	0.0	Go_O	1.0
459.07499999999993	1.0	go	0.548	Go_O	1.0
461.6089999999999	1.0	go	0.4	Go_X	1.0
464.14199999999994	0.4	stopsuccess	0.0	Go_X	1.0
466.67499999999995	1.0	go	0.458	Go_X	1.0
469.20899999999995	1.0	go	0.475	Go_O	1.0
471.74199999999996	1.0	go	0.436	Go_X	1.0
474.275	1.0	go	0.607	Go_O	1.0
476.808	1.0	go	0.614	Go_X	1.0
479.342	0.45	stopfail	0.485	Go_O	0.0
481.875	1.0	go	0.402	Go_O	0.0
484.408	1.0	go	0.339	Go_X	1.0
486.942	1.0	go	0.573	Go_O	1.0
489.475	0.4	stopfail	0.486	Go_X	0.0
492.0079999999999	1.0	go	0.891	Go_O	1.0
494.54099999999994	0.35	stopfail	0.482	Go_O	0.0
497.07499999999993	1.0	go	0.529	Go_X	1.0
499.60799999999995	1.0	go	0.628	Go_X	1.0
502.14099999999996	1.0	go	0.438	Go_O	1.0
504.67499999999995	1.0	go	0.642	Go_X	1.0
507.20799999999997	1.0	go	0.478	Go_O	1.0
509.741	1.0	go	0.584	Go_O	1.0
512.274	1.0	go	0.56	Go_X	1.0
514.808	0.3	stopfail	0.453	Go_X	0.0
517.341	1.0	go	0.421	Go_O	1.0
519.874	1.0	go	0.611	Go_X	1.0
522.408	1.0	go	0.32	Go_O	1.0
524.941	1.0	go	0.509	Go_X	1.0
527.4739999999999	0.25	stopsuccess	0.0	Go_O	1.0
530.007	1.0	go	0.552	Go_O	1.0
532.5409999999999	0.3	stopfail	0.362	Go_X	0.0
535.074	1.0	go	0.394	Go_X	0.0
537.607	1.0	go	0.325	Go_O	1.0
540.141	0.25	stopsuccess	0.0	Go_O	1.0
542.674	1.0	go	0.413	Go_X	1.0
545.207	1.0	go	0.622	Go_O	1.0
547.74	1.0	go	0.546	Go_X	1.0
550.274	1.0	go	0.666	Go_O	1.0
552.807	1.0	go	0.355	Go_X	1.0
555.3399999999999	1.0	go	0.502	Go_X	1.0
557.874	1.0	go	0.332	Go_O	1.0
560.4069999999999	1.0	go	0.595	Go_O	1.0
562.9399999999999	1.0	go	0.371	Go_X	1.0
565.473	1.0	go	0.49	Go_X	1.0
568.007	0.3	stopfail	0.422	Go_X	0.0
570.54	1.0	go	0.5	Go_O	1.0
573.073	1.0	go	0.546	Go_X	1.0
575.607	0.25	stopfail	0.39	Go_O	0.0
578.14	1.0	go	0.51	Go_O	1.0
580.674	0.2	stopsuccess	0.0	Go_X	1.0
583.223	1.0	go	0.561	Go_X	1.0
585.756	1.0	go	0.377	Go_O	1.0
588.29	0.25	stopsuccess	0.0	Go_O	1.0
590.823	1.0	go	0.547	Go_O	1.0
593.356	0.3	stopsuccess	0.0	Go_X	1.0
595.89	1.0	go	0.748	Go_X	0.0
598.423	1.0	go	0.515	Go_O	1.0
600.956	1.0	go	0.445	Go_X	1.0
603.4889999999999	0.35	stopfail	0.47	Go_O	0.0
606.023	1.0	go	0.421	Go_X	1.0
608.5559999999999	1.0	go	0.468	Go_O	1.0
611.0889999999999	1.0	go	0.483	Go_O	1.0
613.6229999999999	1.0	go	0.463	Go_X	1.0
616.156	0.3	stopsuccess	0.0	Go_X	1.0
618.689	1.0	go	0.472	Go_X	1.0
621.222	1.0	go	0.462	Go_O	1.0
623.756	0.35	stopfail	0.485	Go_O	0.0
626.289	1.0	go	0.421	Go_X	1.0
628.822	1.0	go	0.345	Go_O	1.0
631.356	1.0	go	0.407	Go_X	1.0
633.889	1.0	go	0.579	Go_O	1.0
636.422	0.3	stopfail	0.42	Go_X	0.0
638.9549999999999	1.0	go	0.623	Go_O	1.0
641.4889999999999	0.25	stopsuccess	0.0	Go_O	1.0
644.0219999999999	1.0	go	0.458	Go_X	1.0
646.555	1.0	go	0.611	Go_O	1.0
649.0889999999999	0.3	stopfail	0.39	Go_X	0.0
651.622	1.0	go	0.722	Go_X	1.0
654.155	1.0	go	0.499	Go_O	1.0
656.688	1.0	go	0.437	Go_X	1.0
659.222	1.0	go	0.341	Go_O	1.0
661.755	0.25	stopsuccess	0.0	Go_O	1.0
664.288	1.0	go	0.378	Go_X	1.0
666.822	0.3	stopsuccess	0.0	Go_X	1.0
669.371	1.0	go	0.916	Go_X	1.0
671.905	1.0	go	0.443	Go_O	1.0
674.438	1.0	go	0.597	Go_O	1.0
676.971	1.0	go	0.976	Go_X	1.0
679.505	1.0	go	0.422	Go_X	1.0
682.038	1.0	go	0.268	Go_O	1.0
684.571	0.35	stopfail	0.425	Go_O	0.0
687.1039999999999	1.0	go	0.278	Go_O	0.0
689.6379999999999	1.0	go	0.352	Go_X	1.0
692.1709999999999	0.3	stopfail	0.443	Go_X	0.0
694.704	1.0	go	0.758	Go_O	1.0
697.2379999999999	1.0	go	0.578	Go_X	1.0
699.771	0.25	stopfail	0.512	Go_O	0.0
702.304	1.0	go	0.72	Go_O	1.0
704.837	1.0	go	0.285	Go_X	1.0
707.371	1.0	go	0.62	Go_O	1.0
709.904	1.0	go	0.39	Go_X	1.0
712.437	0.2	stopsuccess	0.0	Go_X	1.0
714.971	1.0	go	0.575	Go_X	1.0
717.504	0.25	stopfail	0.356	Go_O	0.0
720.0369999999999	1.0	go	0.619	Go_O	1.0
722.5699999999999	1.0	go	0.465	Go_X	1.0
725.1039999999999	1.0	go	0.472	Go_O	1.0
727.637	1.0	go	0.549	Go_X	1.0
730.17	1.0	go	0.474	Go_O	1.0
732.704	0.2	stopsuccess	0.0	Go_X	1.0
735.237	1.0	go	0.541	Go_O	1.0
737.77	1.0	go	0.546	Go_X	1.0
740.303	0.25	stopfail	0.313	Go_O	0.0
742.837	0.2	stopfail	0.313	Go_X	0.0
745.37	1.0	go	0.617	Go_X	1.0
747.903	1.0	go	0.326	Go_O	1.0
750.437	1.0	go	0.405	Go_X	1.0
752.97	1.0	go	0.453	Go_O	1.0
755.5029999999999	0.15	stopsuccess	0.0	Go_O	1.0
758.036	1.0	go	0.738	Go_X	0.0
