frame	onset	duration	trial_type	event_type	response_type	response_time	stim_file	accuracy
0	110.76		loss-noreward	ImageDisplay1		0.0		
0	112.749	0.75	loss-noreward	StartDisplay				
0	113.501		loss-noreward	ImageDisplay2		0.0		
0	116.744	1.6	loss-noreward	ChoiceDisplay	1	0.746	1	1
0	117.513	0.854	loss-noreward	ChosenDisplay		0.0		
0	118.349	0.25	loss-noreward	TurnDisplay				
0	118.6	0.75	loss-noreward	OutcomeDisplay				
1	119.352		win-noreward	ImageDisplay1		0.0		
1	121.592	0.75	win-noreward	StartDisplay				
1	122.344		win-noreward	ImageDisplay2		0.0		
1	125.353	1.6	win-noreward	ChoiceDisplay	1	0.563	1	1
1	125.938	1.037	win-noreward	ChosenDisplay		0.0		
1	126.958	0.25	win-noreward	TurnDisplay				
1	127.209	0.75	win-noreward	OutcomeDisplay				
2	127.961		control-noreward	ImageDisplay1		0.0		
2	129.95	0.75	control-noreward	StartDisplay				
2	130.702		control-noreward	ImageDisplay2		0.0		
2	133.962	1.6	control-noreward	ChoiceDisplay	1	1.027	1	1
2	135.015	0.573	control-noreward	ChosenDisplay		0.0		
2	135.567	0.25	control-noreward	TurnDisplay				
2	135.818	0.75	control-noreward	OutcomeDisplay				
3	136.57		loss-noreward	ImageDisplay1		0.0		
3	138.81	0.75	loss-noreward	StartDisplay				
3	139.562		loss-noreward	ImageDisplay2		0.0		
3	142.571	1.6	loss-noreward	ChoiceDisplay		0.0		
3	144.159	0.0	loss-noreward	ChosenDisplay		0.0		
3	144.176	0.25	loss-noreward	TurnDisplay				
3	144.41	0.75	loss-noreward	OutcomeDisplay				
4	145.162		win-reward	ImageDisplay1		0.0		
4	147.419	0.75	win-reward	StartDisplay				
4	148.171		win-reward	ImageDisplay2		0.0		
4	151.164	1.6	win-reward	ChoiceDisplay	1	0.706	1	1
4	151.882	0.894	win-reward	ChosenDisplay		0.0		
4	152.768	0.25	win-reward	TurnDisplay				
4	153.019	0.75	win-reward	OutcomeDisplay				
5	153.771		win-noreward	ImageDisplay1		0.0		
5	156.011	0.75	win-noreward	StartDisplay				
5	156.764		win-noreward	ImageDisplay2		0.0		
5	159.773	1.6	win-noreward	ChoiceDisplay	1	0.925	1	1
5	160.725	0.675	win-noreward	ChosenDisplay		0.0		
5	161.377	0.25	win-noreward	TurnDisplay				
5	161.628	0.75	win-noreward	OutcomeDisplay				
6	162.38		loss-reward	ImageDisplay1		0.0		
6	164.37	0.75	loss-reward	StartDisplay				
6	165.122		loss-reward	ImageDisplay2		0.0		
6	168.382	1.6	loss-reward	ChoiceDisplay	1	1.076	1	1
6	169.485	0.524	loss-reward	ChosenDisplay		0.0		
6	169.986	0.25	loss-reward	TurnDisplay				
6	170.237	0.75	loss-reward	OutcomeDisplay				
7	170.989		control-noreward	ImageDisplay1		0.0		
7	173.229	0.75	control-noreward	StartDisplay				
7	173.982		control-noreward	ImageDisplay2		0.0		
7	176.991	1.6	control-noreward	ChoiceDisplay	1	0.803	1	1
7	177.81	0.797	control-noreward	ChosenDisplay		0.0		
7	178.595	0.25	control-noreward	TurnDisplay				
7	178.846	0.75	control-noreward	OutcomeDisplay				
8	179.598		control-noreward	ImageDisplay1		0.0		
8	181.838	0.75	control-noreward	StartDisplay				
8	182.591		control-noreward	ImageDisplay2		0.0		
8	185.6	1.6	control-noreward	ChoiceDisplay	1	0.795	1	1
8	186.419	0.805	control-noreward	ChosenDisplay		0.0		
8	187.204	0.25	control-noreward	TurnDisplay				
8	187.455	0.75	control-noreward	OutcomeDisplay				
9	188.207		loss-noreward	ImageDisplay1		0.0		
9	190.448	0.75	loss-noreward	StartDisplay				
9	191.2		loss-noreward	ImageDisplay2		0.0		
9	194.209	1.6	loss-noreward	ChoiceDisplay	1	0.876	1	1
9	195.111	0.724	loss-noreward	ChosenDisplay		0.0		
9	195.814	0.25	loss-noreward	TurnDisplay				
9	196.064	0.75	loss-noreward	OutcomeDisplay				
10	196.817		control-reward	ImageDisplay1		0.0		
10	199.057	0.75	control-reward	StartDisplay				
10	199.809		control-reward	ImageDisplay2		0.0		
10	202.818	1.6	control-reward	ChoiceDisplay	1	1.459	1	1
10	204.289	0.141	control-reward	ChosenDisplay		0.0		
10	204.423	0.25	control-reward	TurnDisplay				
10	204.673	0.75	control-reward	OutcomeDisplay				
11	205.426		loss-noreward	ImageDisplay1		0.0		
11	207.666	0.75	loss-noreward	StartDisplay				
11	208.418		loss-noreward	ImageDisplay2		0.0		
11	211.427	1.6	loss-noreward	ChoiceDisplay	1	0.993	1	1
11	212.447	0.607	loss-noreward	ChosenDisplay		0.0		
11	213.032	0.25	loss-noreward	TurnDisplay				
11	213.282	0.75	loss-noreward	OutcomeDisplay				
12	214.035		control-noreward	ImageDisplay1		0.0		
12	216.275	0.75	control-noreward	StartDisplay				
12	217.027		control-noreward	ImageDisplay2		0.0		
12	220.036	1.6	control-noreward	ChoiceDisplay	1	1.212	1	1
12	221.273	0.388	control-noreward	ChosenDisplay		0.0		
12	221.641	0.25	control-noreward	TurnDisplay				
12	221.891	0.75	control-noreward	OutcomeDisplay				
13	222.644		loss-reward	ImageDisplay1		0.0		
13	224.633	0.75	loss-reward	StartDisplay				
13	225.385		loss-reward	ImageDisplay2		0.0		
13	228.645	1.6	loss-reward	ChoiceDisplay		0.0		
13	230.233	0.0	loss-reward	ChosenDisplay		0.0		
13	230.25	0.25	loss-reward	TurnDisplay				
13	230.484	0.75	loss-reward	OutcomeDisplay				
14	231.236		control-reward	ImageDisplay1		0.0		
14	233.493	0.75	control-reward	StartDisplay				
14	234.245		control-reward	ImageDisplay2		0.0		
14	237.237	1.6	control-reward	ChoiceDisplay	1	0.885	1	1
14	238.14	0.715	control-reward	ChosenDisplay		0.0		
14	238.842	0.25	control-reward	TurnDisplay				
14	239.093	0.75	control-reward	OutcomeDisplay				
15	239.845		control-reward	ImageDisplay1		0.0		
15	241.834	0.75	control-reward	StartDisplay				
15	242.587		control-reward	ImageDisplay2		0.0		
15	245.846	1.6	control-reward	ChoiceDisplay	1	0.695	1	1
15	246.565	0.905	control-reward	ChosenDisplay		0.0		
15	247.451	0.25	control-reward	TurnDisplay				
15	247.702	0.75	control-reward	OutcomeDisplay				
16	248.454		control-noreward	ImageDisplay1		0.0		
16	250.443	0.75	control-noreward	StartDisplay				
16	251.196		control-noreward	ImageDisplay2		0.0		
16	254.455	1.6	control-noreward	ChoiceDisplay	1	1.381	1	1
16	255.859	0.219	control-noreward	ChosenDisplay		0.0		
16	256.06	0.25	control-noreward	TurnDisplay				
16	256.311	0.75	control-noreward	OutcomeDisplay				
17	257.063		control-reward	ImageDisplay1		0.0		
17	259.303	0.75	control-reward	StartDisplay				
17	260.055		control-reward	ImageDisplay2		0.0		
17	263.064	1.6	control-reward	ChoiceDisplay	1	1.151	1	1
17	264.234	0.449	control-reward	ChosenDisplay		0.0		
17	264.669	0.25	control-reward	TurnDisplay				
17	264.92	0.75	control-reward	OutcomeDisplay				
18	265.672		loss-reward	ImageDisplay1		0.0		
18	267.912	0.75	loss-reward	StartDisplay				
18	268.664		loss-reward	ImageDisplay2		0.0		
18	271.673	1.6	loss-reward	ChoiceDisplay	1	0.877	1	1
18	272.576	0.723	loss-reward	ChosenDisplay		0.0		
18	273.278	0.25	loss-reward	TurnDisplay				
18	273.529	0.75	loss-reward	OutcomeDisplay				
19	274.281		control-reward	ImageDisplay1		0.0		
19	276.521	0.75	control-reward	StartDisplay				
19	277.273		control-reward	ImageDisplay2		0.0		
19	280.282	1.6	control-reward	ChoiceDisplay	1	0.984	1	1
19	281.285	0.616	control-reward	ChosenDisplay		0.0		
19	281.887	0.25	control-reward	TurnDisplay				
19	282.138	0.75	control-reward	OutcomeDisplay				
20	282.89		loss-reward	ImageDisplay1		0.0		
20	284.879	0.75	loss-reward	StartDisplay				
20	285.632		loss-reward	ImageDisplay2		0.0		
20	288.891	1.6	loss-reward	ChoiceDisplay		0.0		
20	290.48	0.0	loss-reward	ChosenDisplay		0.0		
20	290.496	0.25	loss-reward	TurnDisplay				
20	290.73	0.75	loss-reward	OutcomeDisplay				
21	291.482		win-noreward	ImageDisplay1		0.0		
21	293.488	0.75	win-noreward	StartDisplay				
21	294.241		win-noreward	ImageDisplay2		0.0		
21	297.484	1.6	win-noreward	ChoiceDisplay	1	1.016	1	1
21	298.52	0.584	win-noreward	ChosenDisplay		0.0		
21	299.089	0.25	win-noreward	TurnDisplay				
21	299.339	0.75	win-noreward	OutcomeDisplay				
22	300.092		control-reward	ImageDisplay1		0.0		
22	302.332	0.75	control-reward	StartDisplay				
22	303.084		control-reward	ImageDisplay2		0.0		
22	306.093	1.6	control-reward	ChoiceDisplay	1	0.45	1	1
22	306.561	1.15	control-reward	ChosenDisplay		0.0		
22	307.698	0.25	control-reward	TurnDisplay				
22	307.948	0.75	control-reward	OutcomeDisplay				
23	308.701		control-reward	ImageDisplay1		0.0		
23	310.69	0.75	control-reward	StartDisplay				
23	311.442		control-reward	ImageDisplay2		0.0		
23	314.702	1.6	control-reward	ChoiceDisplay	1	0.783	1	1
23	315.504	0.817	control-reward	ChosenDisplay		0.0		
23	316.307	0.25	control-reward	TurnDisplay				
23	316.557	0.75	control-reward	OutcomeDisplay				
24	317.31		win-reward	ImageDisplay1		0.0		
24	319.55	0.75	win-reward	StartDisplay				
24	320.302		win-reward	ImageDisplay2		0.0		
24	323.311	1.6	win-reward	ChoiceDisplay	1	1.006	1	1
24	324.331	0.594	win-reward	ChosenDisplay		0.0		
24	324.916	0.25	win-reward	TurnDisplay				
24	325.166	0.75	win-reward	OutcomeDisplay				
25	325.919		loss-reward	ImageDisplay1		0.0		
25	327.908	0.75	loss-reward	StartDisplay				
25	328.66		loss-reward	ImageDisplay2		0.0		
25	331.92	1.6	loss-reward	ChoiceDisplay		0.0		
25	333.508	0.0	loss-reward	ChosenDisplay		0.0		
25	333.525	0.25	loss-reward	TurnDisplay				
25	333.759	0.75	loss-reward	OutcomeDisplay				
26	334.511		control-reward	ImageDisplay1		0.0		
26	336.517	0.75	control-reward	StartDisplay				
26	337.269		control-reward	ImageDisplay2		0.0		
26	340.512	1.6	control-reward	ChoiceDisplay	1	1.039	1	1
26	341.565	0.561	control-reward	ChosenDisplay		0.0		
26	342.117	0.25	control-reward	TurnDisplay				
26	342.368	0.75	control-reward	OutcomeDisplay				
27	343.12		win-noreward	ImageDisplay1		0.0		
27	345.109	0.75	win-noreward	StartDisplay				
27	345.862		win-noreward	ImageDisplay2		0.0		
27	349.121	1.6	win-noreward	ChoiceDisplay	1	0.975	1	1
27	350.108	0.625	win-noreward	ChosenDisplay		0.0		
27	350.726	0.25	win-noreward	TurnDisplay				
27	350.977	0.75	win-noreward	OutcomeDisplay				
28	351.729		win-noreward	ImageDisplay1		0.0		
28	353.969	0.75	win-noreward	StartDisplay				
28	354.721		win-noreward	ImageDisplay2		0.0		
28	357.73	1.6	win-noreward	ChoiceDisplay	1	0.779	1	1
28	358.533	0.821	win-noreward	ChosenDisplay		0.0		
28	359.335	0.25	win-noreward	TurnDisplay				
28	359.586	0.75	win-noreward	OutcomeDisplay				
29	360.338		loss-reward	ImageDisplay1		0.0		
29	362.327	0.75	loss-reward	StartDisplay				
29	363.08		loss-reward	ImageDisplay2		0.0		
29	366.339	1.6	loss-reward	ChoiceDisplay		0.0		
29	367.927	0.0	loss-reward	ChosenDisplay		0.0		
29	367.944	0.25	loss-reward	TurnDisplay				
29	368.178	0.75	loss-reward	OutcomeDisplay				
30	368.93		loss-reward	ImageDisplay1		0.0		
30	371.187	0.75	loss-reward	StartDisplay				
30	371.939		loss-reward	ImageDisplay2		0.0		
30	374.932	1.6	loss-reward	ChoiceDisplay		0.0		
30	376.536	0.0	loss-reward	ChosenDisplay		0.0		
30	376.553	0.25	loss-reward	TurnDisplay				
30	376.787	0.75	loss-reward	OutcomeDisplay				
31	377.539		loss-reward	ImageDisplay1		0.0		
31	379.779	0.75	loss-reward	StartDisplay				
31	380.532		loss-reward	ImageDisplay2		0.0		
31	383.541	1.6	loss-reward	ChoiceDisplay		0.0		
31	385.129	0.0	loss-reward	ChosenDisplay		0.0		
31	385.145	0.25	loss-reward	TurnDisplay				
31	385.38	0.75	loss-reward	OutcomeDisplay				
32	386.132		control-reward	ImageDisplay1		0.0		
32	388.138	0.75	control-reward	StartDisplay				
32	388.89		control-reward	ImageDisplay2		0.0		
32	392.133	1.6	control-reward	ChoiceDisplay	1	0.868	1	1
32	393.019	0.732	control-reward	ChosenDisplay		0.0		
32	393.738	0.25	control-reward	TurnDisplay				
32	393.989	0.75	control-reward	OutcomeDisplay				
33	394.741		win-reward	ImageDisplay1		0.0		
33	396.981	0.75	win-reward	StartDisplay				
33	397.733		win-reward	ImageDisplay2		0.0		
33	400.742	1.6	win-reward	ChoiceDisplay	1	0.948	1	1
33	401.712	0.652	win-reward	ChosenDisplay		0.0		
33	402.347	0.25	win-reward	TurnDisplay				
33	402.598	0.75	win-reward	OutcomeDisplay				
34	403.35		win-reward	ImageDisplay1		0.0		
34	405.339	0.75	win-reward	StartDisplay				
34	406.091		win-reward	ImageDisplay2		0.0		
34	409.351	1.6	win-reward	ChoiceDisplay	1	0.915	1	1
34	410.287	0.685	win-reward	ChosenDisplay		0.0		
34	410.956	0.25	win-reward	TurnDisplay				
34	411.207	0.75	win-reward	OutcomeDisplay				
35	411.959		loss-noreward	ImageDisplay1		0.0		
35	413.948	0.75	loss-noreward	StartDisplay				
35	414.7		loss-noreward	ImageDisplay2		0.0		
35	417.96	1.6	loss-noreward	ChoiceDisplay		0.0		
35	419.548	0.0	loss-noreward	ChosenDisplay		0.0		
35	419.565	0.25	loss-noreward	TurnDisplay				
35	419.799	0.75	loss-noreward	OutcomeDisplay				
36	420.551		control-reward	ImageDisplay1		0.0		
36	422.808	0.75	control-reward	StartDisplay				
36	423.56		control-reward	ImageDisplay2		0.0		
36	426.552	1.6	control-reward	ChoiceDisplay	1	1.064	1	1
36	427.639	0.536	control-reward	ChosenDisplay		0.0		
36	428.157	0.25	control-reward	TurnDisplay				
36	428.408	0.75	control-reward	OutcomeDisplay				
37	429.16		win-noreward	ImageDisplay1		0.0		
37	431.15	0.75	win-noreward	StartDisplay				
37	431.902		win-noreward	ImageDisplay2		0.0		
37	435.161	1.6	win-noreward	ChoiceDisplay	1	0.987	1	1
37	436.164	0.613	win-noreward	ChosenDisplay		0.0		
37	436.766	0.25	win-noreward	TurnDisplay				
37	437.017	0.75	win-noreward	OutcomeDisplay				
38	437.769		control-noreward	ImageDisplay1		0.0		
38	439.759	0.75	control-noreward	StartDisplay				
38	440.511		control-noreward	ImageDisplay2		0.0		
38	443.771	1.6	control-noreward	ChoiceDisplay	1	0.875	1	1
38	444.673	0.725	control-noreward	ChosenDisplay		0.0		
38	445.375	0.25	control-noreward	TurnDisplay				
38	445.626	0.75	control-noreward	OutcomeDisplay				
39	446.378		control-noreward	ImageDisplay1		0.0		
39	448.618	0.75	control-noreward	StartDisplay				
39	449.371		control-noreward	ImageDisplay2		0.0		
39	452.38	1.6	control-noreward	ChoiceDisplay	1	1.075	1	1
39	453.466	0.525	control-noreward	ChosenDisplay		0.0		
39	453.984	0.25	control-noreward	TurnDisplay				
39	454.235	0.75	control-noreward	OutcomeDisplay				
40	454.987		win-reward	ImageDisplay1		0.0		
40	457.227	0.75	win-reward	StartDisplay				
40	457.98		win-reward	ImageDisplay2		0.0		
40	460.989	1.6	win-reward	ChoiceDisplay	1	0.911	1	1
40	461.925	0.689	win-reward	ChosenDisplay		0.0		
40	462.593	0.25	win-reward	TurnDisplay				
40	462.844	0.75	win-reward	OutcomeDisplay				
41	463.596		win-reward	ImageDisplay1		0.0		
41	465.586	0.75	win-reward	StartDisplay				
41	466.338		win-reward	ImageDisplay2		0.0		
41	469.598	1.6	win-reward	ChoiceDisplay	1	1.11	1	1
41	470.734	0.49	win-reward	ChosenDisplay		0.0		
41	471.202	0.25	win-reward	TurnDisplay				
41	471.453	0.75	win-reward	OutcomeDisplay				
42	472.205		win-reward	ImageDisplay1		0.0		
42	474.195	0.75	win-reward	StartDisplay				
42	474.947		win-reward	ImageDisplay2		0.0		
42	478.207	1.6	win-reward	ChoiceDisplay	1	1.111	1	1
42	479.343	0.489	win-reward	ChosenDisplay		0.0		
42	479.811	0.25	win-reward	TurnDisplay				
42	480.062	0.75	win-reward	OutcomeDisplay				
43	480.814		loss-reward	ImageDisplay1		0.0		
43	483.054	0.75	loss-reward	StartDisplay				
43	483.807		loss-reward	ImageDisplay2		0.0		
43	486.816	1.6	loss-reward	ChoiceDisplay		0.0		
43	488.404	0.0	loss-reward	ChosenDisplay		0.0		
43	488.42	0.25	loss-reward	TurnDisplay				
43	488.655	0.75	loss-reward	OutcomeDisplay				
44	489.407		control-noreward	ImageDisplay1		0.0		
44	491.664	0.75	control-noreward	StartDisplay				
44	492.416		control-noreward	ImageDisplay2		0.0		
44	495.408	1.6	control-noreward	ChoiceDisplay	1	1.599	1	1
44	497.013	0.0	control-noreward	ChosenDisplay		0.0		
44	497.03	0.25	control-noreward	TurnDisplay				
44	497.264	0.75	control-noreward	OutcomeDisplay				
45	498.016		win-reward	ImageDisplay1		0.0		
45	500.005	0.75	win-reward	StartDisplay				
45	500.757		win-reward	ImageDisplay2		0.0		
45	504.017	1.6	win-reward	ChoiceDisplay	1	0.956	1	1
45	504.987	0.644	win-reward	ChosenDisplay		0.0		
45	505.622	0.25	win-reward	TurnDisplay				
45	505.873	0.75	win-reward	OutcomeDisplay				
46	506.625		control-noreward	ImageDisplay1		0.0		
46	508.614	0.75	control-noreward	StartDisplay				
46	509.366		control-noreward	ImageDisplay2		0.0		
46	512.626	1.6	control-noreward	ChoiceDisplay	1	0.988	1	1
46	513.629	0.612	control-noreward	ChosenDisplay		0.0		
46	514.231	0.25	control-noreward	TurnDisplay				
46	514.482	0.75	control-noreward	OutcomeDisplay				
47	515.234		win-reward	ImageDisplay1		0.0		
47	517.223	0.75	win-reward	StartDisplay				
47	517.975		win-reward	ImageDisplay2		0.0		
47	521.235	1.6	win-reward	ChoiceDisplay	1	1.392	1	1
47	522.639	0.208	win-reward	ChosenDisplay		0.0		
47	522.84	0.25	win-reward	TurnDisplay				
47	523.091	0.75	win-reward	OutcomeDisplay				
48	523.843		control-noreward	ImageDisplay1		0.0		
48	525.832	0.75	control-noreward	StartDisplay				
48	526.584		control-noreward	ImageDisplay2		0.0		
48	529.844	1.6	control-noreward	ChoiceDisplay	1	0.814	1	1
48	530.68	0.786	control-noreward	ChosenDisplay		0.0		
48	531.449	0.25	control-noreward	TurnDisplay				
48	531.7	0.75	control-noreward	OutcomeDisplay				
49	532.452		loss-noreward	ImageDisplay1		0.0		
49	534.441	0.75	loss-noreward	StartDisplay				
49	535.193		loss-noreward	ImageDisplay2		0.0		
49	538.453	1.6	loss-noreward	ChoiceDisplay		0.0		
49	540.041	0.0	loss-noreward	ChosenDisplay		0.0		
49	540.058	0.25	loss-noreward	TurnDisplay				
49	540.292	0.75	loss-noreward	OutcomeDisplay				
50	541.044		loss-reward	ImageDisplay1		0.0		
50	543.05	0.75	loss-reward	StartDisplay				
50	543.802		loss-reward	ImageDisplay2		0.0		
50	547.046	1.6	loss-reward	ChoiceDisplay		0.0		
50	548.65	0.0	loss-reward	ChosenDisplay		0.0		
50	548.667	0.25	loss-reward	TurnDisplay				
50	548.901	0.75	loss-reward	OutcomeDisplay				
51	549.653		loss-noreward	ImageDisplay1		0.0		
51	551.643	0.75	loss-noreward	StartDisplay				
51	552.395		loss-noreward	ImageDisplay2		0.0		
51	555.655	1.6	loss-noreward	ChoiceDisplay		0.0		
51	557.243	0.0	loss-noreward	ChosenDisplay		0.0		
51	557.259	0.25	loss-noreward	TurnDisplay				
51	557.493	0.75	loss-noreward	OutcomeDisplay				
52	558.246		control-noreward	ImageDisplay1		0.0		
52	560.502	0.75	control-noreward	StartDisplay				
52	561.255		control-noreward	ImageDisplay2		0.0		
52	564.247	1.6	control-noreward	ChoiceDisplay	1	1.002	1	1
52	565.267	0.598	control-noreward	ChosenDisplay		0.0		
52	565.852	0.25	control-noreward	TurnDisplay				
52	566.102	0.75	control-noreward	OutcomeDisplay				
53	566.855		control-reward	ImageDisplay1		0.0		
53	568.844	0.75	control-reward	StartDisplay				
53	569.596		control-reward	ImageDisplay2		0.0		
53	572.856	1.6	control-reward	ChoiceDisplay	1	1.111	1	1
53	573.993	0.489	control-reward	ChosenDisplay		0.0		
53	574.461	0.25	control-reward	TurnDisplay				
53	574.711	0.75	control-reward	OutcomeDisplay				
54	575.464		win-noreward	ImageDisplay1		0.0		
54	577.453	0.75	win-noreward	StartDisplay				
54	578.205		win-noreward	ImageDisplay2		0.0		
54	581.465	1.6	win-noreward	ChoiceDisplay	1	1.064	1	1
54	582.552	0.536	win-noreward	ChosenDisplay		0.0		
54	583.07	0.25	win-noreward	TurnDisplay				
54	583.321	0.75	win-noreward	OutcomeDisplay				
55	584.073		win-reward	ImageDisplay1		0.0		
55	586.313	0.75	win-reward	StartDisplay				
55	587.065		win-reward	ImageDisplay2		0.0		
55	590.074	1.6	win-reward	ChoiceDisplay	1	1.308	1	1
55	591.395	0.292	win-reward	ChosenDisplay		0.0		
55	591.679	0.25	win-reward	TurnDisplay				
55	591.93	0.75	win-reward	OutcomeDisplay				
56	592.682		loss-reward	ImageDisplay1		0.0		
56	594.922	0.75	loss-reward	StartDisplay				
56	595.674		loss-reward	ImageDisplay2		0.0		
56	598.683	1.6	loss-reward	ChoiceDisplay		0.0		
56	600.271	0.0	loss-reward	ChosenDisplay		0.0		
56	600.288	0.25	loss-reward	TurnDisplay				
56	600.522	0.75	loss-reward	OutcomeDisplay				
57	601.274		loss-noreward	ImageDisplay1		0.0		
57	603.531	0.75	loss-noreward	StartDisplay				
57	604.283		loss-noreward	ImageDisplay2		0.0		
57	607.275	1.6	loss-noreward	ChoiceDisplay		0.0		
57	608.88	0.0	loss-noreward	ChosenDisplay		0.0		
57	608.897	0.25	loss-noreward	TurnDisplay				
57	609.131	0.75	loss-noreward	OutcomeDisplay				
58	609.883		loss-noreward	ImageDisplay1		0.0		
58	611.872	0.75	loss-noreward	StartDisplay				
58	612.625		loss-noreward	ImageDisplay2		0.0		
58	615.884	1.6	loss-noreward	ChoiceDisplay		0.0		
58	617.472	0.0	loss-noreward	ChosenDisplay		0.0		
58	617.489	0.25	loss-noreward	TurnDisplay				
58	617.723	0.75	loss-noreward	OutcomeDisplay				
59	618.475		win-noreward	ImageDisplay1		0.0		
59	620.732	0.75	win-noreward	StartDisplay				
59	621.484		win-noreward	ImageDisplay2		0.0		
59	624.477	1.6	win-noreward	ChoiceDisplay	1	1.037	1	1
59	625.53	0.563	win-noreward	ChosenDisplay		0.0		
59	626.081	0.25	win-noreward	TurnDisplay				
59	626.332	0.75	win-noreward	OutcomeDisplay				
60	627.085		loss-noreward	ImageDisplay1		0.0		
60	629.074	0.75	loss-noreward	StartDisplay				
60	629.826		loss-noreward	ImageDisplay2		0.0		
60	633.086	1.6	loss-noreward	ChoiceDisplay		0.0		
60	634.674	0.0	loss-noreward	ChosenDisplay		0.0		
60	634.691	0.25	loss-noreward	TurnDisplay				
60	634.925	0.75	loss-noreward	OutcomeDisplay				
61	635.677		win-reward	ImageDisplay1		0.0		
61	637.683	0.75	win-reward	StartDisplay				
61	638.435		win-reward	ImageDisplay2		0.0		
61	641.678	1.6	win-reward	ChoiceDisplay	1	1.046	1	1
61	642.748	0.554	win-reward	ChosenDisplay		0.0		
61	643.283	0.25	win-reward	TurnDisplay				
61	643.534	0.75	win-reward	OutcomeDisplay				
62	644.286		win-reward	ImageDisplay1		0.0		
62	646.275	0.75	win-reward	StartDisplay				
62	647.027		win-reward	ImageDisplay2		0.0		
62	650.287	1.6	win-reward	ChoiceDisplay	1	0.708	1	1
62	651.006	0.892	win-reward	ChosenDisplay		0.0		
62	651.892	0.25	win-reward	TurnDisplay				
62	652.143	0.75	win-reward	OutcomeDisplay				
63	652.895		loss-noreward	ImageDisplay1		0.0		
63	655.135	0.75	loss-noreward	StartDisplay				
63	655.887		loss-noreward	ImageDisplay2		0.0		
63	658.896	1.6	loss-noreward	ChoiceDisplay		0.0		
63	660.484	0.0	loss-noreward	ChosenDisplay		0.0		
63	660.501	0.25	loss-noreward	TurnDisplay				
63	660.735	0.75	loss-noreward	OutcomeDisplay				
64	661.487		win-noreward	ImageDisplay1		0.0		
64	663.744	0.75	win-noreward	StartDisplay				
64	664.496		win-noreward	ImageDisplay2		0.0		
64	667.488	1.6	win-noreward	ChoiceDisplay	1	0.866	1	1
64	668.374	0.734	win-noreward	ChosenDisplay		0.0		
64	669.093	0.25	win-noreward	TurnDisplay				
64	669.344	0.75	win-noreward	OutcomeDisplay				
65	670.096		loss-reward	ImageDisplay1		0.0		
65	672.336	0.75	loss-reward	StartDisplay				
65	673.088		loss-reward	ImageDisplay2		0.0		
65	676.097	1.6	loss-reward	ChoiceDisplay		0.0		
65	677.686	0.0	loss-reward	ChosenDisplay		0.0		
65	677.702	0.25	loss-reward	TurnDisplay				
65	677.936	0.75	loss-reward	OutcomeDisplay				
66	678.689		win-reward	ImageDisplay1		0.0		
66	680.945	0.75	win-reward	StartDisplay				
66	681.698		win-reward	ImageDisplay2		0.0		
66	684.69	1.6	win-reward	ChoiceDisplay	1	1.107	1	1
66	685.81	0.493	win-reward	ChosenDisplay		0.0		
66	686.295	0.25	win-reward	TurnDisplay				
66	686.545	0.75	win-reward	OutcomeDisplay				
67	687.298		win-reward	ImageDisplay1		0.0		
67	689.538	0.75	win-reward	StartDisplay				
67	690.29		win-reward	ImageDisplay2		0.0		
67	693.299	1.6	win-reward	ChoiceDisplay	1	0.985	1	1
67	694.302	0.615	win-reward	ChosenDisplay		0.0		
67	694.904	0.25	win-reward	TurnDisplay				
67	695.154	0.75	win-reward	OutcomeDisplay				
68	695.907		win-noreward	ImageDisplay1		0.0		
68	697.896	0.75	win-noreward	StartDisplay				
68	698.648		win-noreward	ImageDisplay2		0.0		
68	701.908	1.6	win-noreward	ChoiceDisplay	1	1.078	1	1
68	703.011	0.522	win-noreward	ChosenDisplay		0.0		
68	703.513	0.25	win-noreward	TurnDisplay				
68	703.763	0.75	win-noreward	OutcomeDisplay				
69	704.516		win-reward	ImageDisplay1		0.0		
69	706.756	0.75	win-reward	StartDisplay				
69	707.508		win-reward	ImageDisplay2		0.0		
69	710.517	1.6	win-reward	ChoiceDisplay	1	1.151	1	1
69	711.687	0.449	win-reward	ChosenDisplay		0.0		
69	712.122	0.25	win-reward	TurnDisplay				
69	712.372	0.75	win-reward	OutcomeDisplay				
70	713.125		loss-reward	ImageDisplay1		0.0		
70	715.114	0.75	loss-reward	StartDisplay				
70	715.866		loss-reward	ImageDisplay2		0.0		
70	719.126	1.6	loss-reward	ChoiceDisplay		0.0		
70	720.714	0.0	loss-reward	ChosenDisplay		0.0		
70	720.731	0.25	loss-reward	TurnDisplay				
70	720.965	0.75	loss-reward	OutcomeDisplay				
71	721.717		control-noreward	ImageDisplay1		0.0		
71	723.974	0.75	control-noreward	StartDisplay				
71	724.726		control-noreward	ImageDisplay2		0.0		
71	727.718	1.6	control-noreward	ChoiceDisplay		0.0		
71	729.323	0.0	control-noreward	ChosenDisplay		0.0		
71	729.34	0.25	control-noreward	TurnDisplay				
71	729.574	0.75	control-noreward	OutcomeDisplay				
72	730.326		win-reward	ImageDisplay1		0.0		
72	732.566	0.75	win-reward	StartDisplay				
72	733.318		win-reward	ImageDisplay2		0.0		
72	736.327	1.6	win-reward	ChoiceDisplay	1	1.131	1	1
72	737.481	0.469	win-reward	ChosenDisplay		0.0		
72	737.932	0.25	win-reward	TurnDisplay				
72	738.183	0.75	win-reward	OutcomeDisplay				
73	738.935		win-reward	ImageDisplay1		0.0		
73	740.924	0.75	win-reward	StartDisplay				
73	741.677		win-reward	ImageDisplay2		0.0		
73	744.936	1.6	win-reward	ChoiceDisplay	1	1.314	1	1
73	746.274	0.286	win-reward	ChosenDisplay		0.0		
73	746.541	0.25	win-reward	TurnDisplay				
73	746.792	0.75	win-reward	OutcomeDisplay				
74	747.544		win-noreward	ImageDisplay1		0.0		
74	749.784	0.75	win-noreward	StartDisplay				
74	750.536		win-noreward	ImageDisplay2		0.0		
74	753.545	1.6	win-noreward	ChoiceDisplay	1	1.014	1	1
74	754.582	0.586	win-noreward	ChosenDisplay		0.0		
74	755.15	0.25	win-noreward	TurnDisplay				
74	755.401	0.75	win-noreward	OutcomeDisplay				
75	756.153		control-noreward	ImageDisplay1		0.0		
75	758.142	0.75	control-noreward	StartDisplay				
75	758.895		control-noreward	ImageDisplay2		0.0		
75	762.154	1.6	control-noreward	ChoiceDisplay	1	0.704	1	1
75	762.873	0.896	control-noreward	ChosenDisplay		0.0		
75	763.759	0.25	control-noreward	TurnDisplay				
75	764.01	0.75	control-noreward	OutcomeDisplay				
76	764.762		control-noreward	ImageDisplay1		0.0		
76	767.002	0.75	control-noreward	StartDisplay				
76	767.754		control-noreward	ImageDisplay2		0.0		
76	770.763	1.6	control-noreward	ChoiceDisplay		0.0		
76	772.352	0.0	control-noreward	ChosenDisplay		0.0		
76	772.368	0.25	control-noreward	TurnDisplay				
76	772.602	0.75	control-noreward	OutcomeDisplay				
77	773.355		win-noreward	ImageDisplay1		0.0		
77	775.611	0.75	win-noreward	StartDisplay				
77	776.364		win-noreward	ImageDisplay2		0.0		
77	779.356	1.6	win-noreward	ChoiceDisplay	1	1.043	1	1
77	780.426	0.557	win-noreward	ChosenDisplay		0.0		
77	780.961	0.25	win-noreward	TurnDisplay				
77	781.211	0.75	win-noreward	OutcomeDisplay				
78	781.964		loss-reward	ImageDisplay1		0.0		
78	783.953	0.75	loss-reward	StartDisplay				
78	784.705		loss-reward	ImageDisplay2		0.0		
78	787.965	1.6	loss-reward	ChoiceDisplay	1	1.113	1	1
78	789.102	0.487	loss-reward	ChosenDisplay		0.0		
78	789.57	0.25	loss-reward	TurnDisplay				
78	789.82	0.75	loss-reward	OutcomeDisplay				
79	790.573		win-noreward	ImageDisplay1		0.0		
79	792.562	0.75	win-noreward	StartDisplay				
79	793.314		win-noreward	ImageDisplay2		0.0		
79	796.574	1.6	win-noreward	ChoiceDisplay	1	1.161	1	1
79	797.761	0.439	win-noreward	ChosenDisplay		0.0		
79	798.179	0.25	win-noreward	TurnDisplay				
79	798.429	0.75	win-noreward	OutcomeDisplay				
80	799.182		control-reward	ImageDisplay1		0.0		
80	801.171	0.75	control-reward	StartDisplay				
80	801.923		control-reward	ImageDisplay2		0.0		
80	805.183	1.6	control-reward	ChoiceDisplay	1	0.579	1	1
80	805.785	1.021	control-reward	ChosenDisplay		0.0		
80	806.788	0.25	control-reward	TurnDisplay				
80	807.038	0.75	control-reward	OutcomeDisplay				
81	807.791		control-reward	ImageDisplay1		0.0		
81	810.031	0.75	control-reward	StartDisplay				
81	810.783		control-reward	ImageDisplay2		0.0		
81	813.792	1.6	control-reward	ChoiceDisplay		0.0		
81	815.38	0.0	control-reward	ChosenDisplay		0.0		
81	815.397	0.25	control-reward	TurnDisplay				
81	815.631	0.75	control-reward	OutcomeDisplay				
82	816.383		control-reward	ImageDisplay1		0.0		
82	818.389	0.75	control-reward	StartDisplay				
82	819.141		control-reward	ImageDisplay2		0.0		
82	822.384	1.6	control-reward	ChoiceDisplay	1	0.917	1	1
82	823.32	0.683	control-reward	ChosenDisplay		0.0		
82	823.989	0.25	control-reward	TurnDisplay				
82	824.24	0.75	control-reward	OutcomeDisplay				
83	824.992		loss-noreward	ImageDisplay1		0.0		
83	826.981	0.75	loss-noreward	StartDisplay				
83	827.734		loss-noreward	ImageDisplay2		0.0		
83	830.993	1.6	loss-noreward	ChoiceDisplay	1	1.016	1	1
83	832.03	0.584	loss-noreward	ChosenDisplay		0.0		
83	832.598	0.25	loss-noreward	TurnDisplay				
83	832.849	0.75	loss-noreward	OutcomeDisplay				
84	833.601		loss-reward	ImageDisplay1		0.0		
84	835.841	0.75	loss-reward	StartDisplay				
84	836.593		loss-reward	ImageDisplay2		0.0		
84	839.602	1.6	loss-reward	ChoiceDisplay		0.0		
84	841.19	0.0	loss-reward	ChosenDisplay		0.0		
84	841.207	0.25	loss-reward	TurnDisplay				
84	841.441	0.75	loss-reward	OutcomeDisplay				
85	842.193		loss-reward	ImageDisplay1		0.0		
85	844.45	0.75	loss-reward	StartDisplay				
85	845.202		loss-reward	ImageDisplay2		0.0		
85	848.195	1.6	loss-reward	ChoiceDisplay		0.0		
85	849.799	0.0	loss-reward	ChosenDisplay		0.0		
85	849.816	0.25	loss-reward	TurnDisplay				
85	850.05	0.75	loss-reward	OutcomeDisplay				
86	850.802		control-reward	ImageDisplay1		0.0		
86	853.042	0.75	control-reward	StartDisplay				
86	853.795		control-reward	ImageDisplay2		0.0		
86	856.804	1.6	control-reward	ChoiceDisplay	1	1.171	1	1
86	857.991	0.429	control-reward	ChosenDisplay		0.0		
86	858.408	0.25	control-reward	TurnDisplay				
86	858.659	0.75	control-reward	OutcomeDisplay				
87	859.411		control-reward	ImageDisplay1		0.0		
87	861.401	0.75	control-reward	StartDisplay				
87	862.153		control-reward	ImageDisplay2		0.0		
87	865.413	1.6	control-reward	ChoiceDisplay	1	0.96	1	1
87	866.399	0.64	control-reward	ChosenDisplay		0.0		
87	867.018	0.25	control-reward	TurnDisplay				
87	867.268	0.75	control-reward	OutcomeDisplay				
88	868.021		loss-reward	ImageDisplay1		0.0		
88	870.01	0.75	loss-reward	StartDisplay				
88	870.762		loss-reward	ImageDisplay2		0.0		
88	874.022	1.6	loss-reward	ChoiceDisplay		0.0		
88	875.61	0.0	loss-reward	ChosenDisplay		0.0		
88	875.627	0.25	loss-reward	TurnDisplay				
88	875.861	0.75	loss-reward	OutcomeDisplay				
89	876.613		control-noreward	ImageDisplay1		0.0		
89	878.619	0.75	control-noreward	StartDisplay				
89	879.371		control-noreward	ImageDisplay2		0.0		
89	882.614	1.6	control-noreward	ChoiceDisplay		0.0		
89	884.219	0.0	control-noreward	ChosenDisplay		0.0		
89	884.236	0.25	control-noreward	TurnDisplay				
89	884.47	0.75	control-noreward	OutcomeDisplay				
90	885.222		win-noreward	ImageDisplay1		0.0		
90	887.211	0.75	win-noreward	StartDisplay				
90	887.963		win-noreward	ImageDisplay2		0.0		
90	891.223	1.6	win-noreward	ChoiceDisplay	1	0.917	1	1
90	892.159	0.683	win-noreward	ChosenDisplay		0.0		
90	892.828	0.25	win-noreward	TurnDisplay				
90	893.079	0.75	win-noreward	OutcomeDisplay				
91	893.831		loss-noreward	ImageDisplay1		0.0		
91	896.071	0.75	loss-noreward	StartDisplay				
91	896.823		loss-noreward	ImageDisplay2		0.0		
91	899.832	1.6	loss-noreward	ChoiceDisplay		0.0		
91	901.42	0.0	loss-noreward	ChosenDisplay		0.0		
91	901.437	0.25	loss-noreward	TurnDisplay				
91	901.671	0.75	loss-noreward	OutcomeDisplay				
92	902.423		control-noreward	ImageDisplay1		0.0		
92	904.429	0.75	control-noreward	StartDisplay				
92	905.181		control-noreward	ImageDisplay2		0.0		
92	908.424	1.6	control-noreward	ChoiceDisplay		0.0		
92	910.029	0.0	control-noreward	ChosenDisplay		0.0		
92	910.046	0.25	control-noreward	TurnDisplay				
92	910.28	0.75	control-noreward	OutcomeDisplay				
93	911.032		win-reward	ImageDisplay1		0.0		
93	913.022	0.75	win-reward	StartDisplay				
93	913.774		win-reward	ImageDisplay2		0.0		
93	917.034	1.6	win-reward	ChoiceDisplay	1	1.181	1	1
93	918.237	0.419	win-reward	ChosenDisplay		0.0		
93	918.638	0.25	win-reward	TurnDisplay				
93	918.889	0.75	win-reward	OutcomeDisplay				
94	919.641		loss-reward	ImageDisplay1		0.0		
94	921.881	0.75	loss-reward	StartDisplay				
94	922.634		loss-reward	ImageDisplay2		0.0		
94	925.643	1.6	loss-reward	ChoiceDisplay		0.0		
94	927.231	0.0	loss-reward	ChosenDisplay		0.0		
94	927.247	0.25	loss-reward	TurnDisplay				
94	927.481	0.75	loss-reward	OutcomeDisplay				
95	928.234		loss-noreward	ImageDisplay1		0.0		
95	930.49	0.75	loss-noreward	StartDisplay				
95	931.243		loss-noreward	ImageDisplay2		0.0		
95	934.235	1.6	loss-noreward	ChoiceDisplay		0.0		
95	935.84	0.0	loss-noreward	ChosenDisplay		0.0		
95	935.856	0.25	loss-noreward	TurnDisplay				
95	936.09	0.75	loss-noreward	OutcomeDisplay				
