onset	duration	trial_type	response_time	stim_file	accuracy
281.844	1.0	go	0.0	Go_X	0.0
284.369	1.0	go	0.47	Go_O	0.0
286.893	1.0	go	0.466	Go_O	0.0
289.417	1.0	go	0.398	Go_X	1.0
291.941	1.0	go	0.4	Go_X	1.0
294.465	1.0	go	0.323	Go_O	1.0
296.99	0.25	stop	0.344	Go_O	0.0
299.514	1.0	go	0.497	Go_X	1.0
302.038	0.2	stop	0.0	Go_X	1.0
304.562	1.0	go	0.397	Go_O	1.0
307.086	1.0	go	0.431	Go_O	1.0
309.611	1.0	go	0.396	Go_X	1.0
312.135	0.25	stop	0.349	Go_O	0.0
314.659	1.0	go	0.365	Go_O	1.0
317.183	1.0	go	0.347	Go_X	1.0
319.707	0.2	stop	0.465	Go_X	0.0
322.232	0.15	stop	0.438	Go_O	0.0
324.756	1.0	go	0.345	Go_X	1.0
327.28	1.0	go	0.194	Go_O	1.0
329.804	0.1	stop	0.0	Go_X	1.0
332.328	1.0	go	0.362	Go_O	1.0
334.853	1.0	go	0.326	Go_X	1.0
337.377	0.15	stop	0.0	Go_O	1.0
339.901	1.0	go	0.385	Go_X	1.0
342.425	1.0	go	0.218	Go_O	1.0
344.966	0.2	stop	0.289	Go_X	0.0
347.49	1.0	go	0.438	Go_X	1.0
350.015	1.0	go	0.45	Go_O	1.0
352.539	0.15	stop	0.0	Go_O	1.0
355.063	1.0	go	0.379	Go_O	0.0
357.587	1.0	go	0.327	Go_X	1.0
360.111	1.0	go	0.254	Go_O	1.0
362.636	1.0	go	0.436	Go_X	1.0
365.16	1.0	go	0.302	Go_O	1.0
367.684	0.2	stop	0.0	Go_X	1.0
370.208	1.0	go	0.346	Go_X	1.0
372.732	1.0	go	0.329	Go_X	0.0
375.257	1.0	go	0.363	Go_O	0.0
377.781	1.0	go	0.484	Go_O	1.0
380.305	1.0	go	0.347	Go_X	1.0
382.829	0.25	stop	0.428	Go_O	0.0
385.353	1.0	go	0.335	Go_X	1.0
387.878	1.0	go	0.359	Go_O	1.0
390.402	1.0	go	0.523	Go_O	1.0
392.926	1.0	go	0.364	Go_X	1.0
395.45	1.0	go	0.449	Go_O	1.0
397.974	1.0	go	0.507	Go_X	1.0
400.499	0.2	stop	0.0	Go_X	1.0
403.023	1.0	go	0.737	Go_O	1.0
405.547	1.0	go	0.505	Go_X	1.0
408.071	0.25	stop	0.329	Go_O	0.0
410.595	1.0	go	0.441	Go_O	1.0
413.12	0.2	stop	0.439	Go_X	0.0
415.644	0.15	stop	0.354	Go_O	0.0
418.185	1.0	go	0.405	Go_X	1.0
420.709	1.0	go	0.527	Go_X	1.0
423.233	1.0	go	0.397	Go_O	1.0
425.757	1.0	go	0.542	Go_X	1.0
428.282	0.1	stop	0.0	Go_X	1.0
430.806	1.0	go	0.422	Go_O	1.0
433.33	0.15	stop	0.0	Go_O	1.0
435.854	1.0	go	0.537	Go_O	1.0
438.378	1.0	go	0.543	Go_X	1.0
440.903	1.0	go	0.372	Go_O	1.0
443.427	1.0	go	0.541	Go_X	1.0
445.951	1.0	go	0.442	Go_O	1.0
448.475	1.0	go	0.427	Go_X	1.0
450.999	1.0	go	0.486	Go_X	1.0
453.524	1.0	go	0.62	Go_O	1.0
456.048	1.0	go	0.425	Go_X	1.0
458.572	0.2	stop	0.515	Go_X	0.0
461.096	1.0	go	0.442	Go_O	1.0
463.62	1.0	go	0.498	Go_O	1.0
466.145	1.0	go	0.397	Go_X	1.0
468.669	0.15	stop	0.0	Go_O	1.0
471.193	1.0	go	0.535	Go_O	1.0
473.717	1.0	go	0.555	Go_X	1.0
476.241	1.0	go	0.707	Go_O	1.0
478.766	1.0	go	0.65	Go_X	1.0
481.29	1.0	go	0.427	Go_O	1.0
483.814	1.0	go	0.422	Go_X	1.0
486.338	0.2	stop	0.52	Go_X	0.0
488.862	1.0	go	0.615	Go_X	1.0
491.387	1.0	go	0.361	Go_O	1.0
493.911	0.15	stop	0.0	Go_O	1.0
496.435	1.0	go	0.511	Go_X	1.0
498.959	1.0	go	0.305	Go_O	1.0
501.483	0.2	stop	0.29	Go_X	0.0
504.008	1.0	go	0.378	Go_X	0.0
506.532	0.15	stop	0.372	Go_O	0.0
509.056	1.0	go	0.717	Go_O	1.0
511.58	1.0	go	0.497	Go_X	1.0
514.104	1.0	go	0.329	Go_O	1.0
516.629	1.0	go	0.598	Go_X	1.0
519.153	1.0	go	0.533	Go_O	1.0
521.677	0.1	stop	0.0	Go_X	1.0
524.201	0.15	stop	0.0	Go_O	1.0
526.725	1.0	go	0.522	Go_O	1.0
529.25	1.0	go	0.595	Go_X	1.0
531.774	0.2	stop	0.465	Go_X	0.0
534.298	1.0	go	0.359	Go_O	1.0
536.822	1.0	go	0.683	Go_X	1.0
539.346	1.0	go	0.482	Go_X	1.0
541.871	1.0	go	0.387	Go_O	1.0
544.395	1.0	go	0.802	Go_O	1.0
546.919	1.0	go	0.493	Go_X	1.0
549.443	0.15	stop	0.0	Go_O	1.0
551.968	1.0	go	0.783	Go_X	0.0
554.492	1.0	go	0.366	Go_O	1.0
557.016	1.0	go	0.483	Go_X	1.0
559.557	1.0	go	0.444	Go_O	1.0
562.081	1.0	go	0.366	Go_X	1.0
564.605	0.2	stop	0.0	Go_X	1.0
567.129	1.0	go	0.446	Go_O	1.0
569.654	1.0	go	0.593	Go_O	1.0
572.178	1.0	go	0.416	Go_X	1.0
574.702	1.0	go	0.611	Go_X	1.0
577.226	0.25	stop	0.522	Go_O	0.0
579.75	1.0	go	0.336	Go_O	0.0
582.275	1.0	go	0.498	Go_X	1.0
584.799	0.2	stop	0.0	Go_X	1.0
587.323	1.0	go	0.391	Go_O	1.0
589.847	0.25	stop	0.0	Go_O	1.0
592.371	1.0	go	0.419	Go_O	1.0
594.896	1.0	go	0.512	Go_X	1.0
597.42	1.0	go	0.5	Go_O	1.0
599.944	1.0	go	0.498	Go_X	1.0
602.468	1.0	go	0.479	Go_O	1.0
604.992	1.0	go	0.442	Go_X	1.0
607.517	1.0	go	0.414	Go_X	0.0
610.041	0.3	stop	0.582	Go_X	0.0
612.565	1.0	go	0.398	Go_O	1.0
615.089	1.0	go	0.462	Go_O	1.0
617.613	1.0	go	0.435	Go_X	1.0
620.138	0.25	stop	0.0	Go_O	1.0
622.662	1.0	go	0.732	Go_O	1.0
625.186	1.0	go	0.451	Go_X	1.0
627.71	1.0	go	0.378	Go_O	1.0
630.234	1.0	go	0.318	Go_X	1.0
632.759	0.3	stop	0.329	Go_X	0.0
635.283	1.0	go	0.399	Go_X	1.0
637.824	1.0	go	0.419	Go_O	1.0
640.348	0.25	stop	0.0	Go_O	1.0
642.872	1.0	go	0.465	Go_O	1.0
645.396	1.0	go	0.463	Go_X	1.0
647.921	0.3	stop	0.47	Go_X	0.0
650.445	1.0	go	0.644	Go_X	1.0
652.969	1.0	go	0.444	Go_O	1.0
655.493	0.25	stop	0.385	Go_O	0.0
658.017	1.0	go	0.426	Go_O	0.0
660.542	1.0	go	0.427	Go_X	1.0
663.066	1.0	go	0.397	Go_O	1.0
665.59	1.0	go	0.419	Go_X	1.0
668.114	1.0	go	0.441	Go_X	1.0
670.638	1.0	go	0.55	Go_O	1.0
673.163	0.2	stop	0.456	Go_X	0.0
675.687	1.0	go	0.483	Go_X	1.0
678.211	0.15	stop	0.468	Go_O	0.0
680.735	1.0	go	0.536	Go_O	1.0
683.259	1.0	go	0.339	Go_O	0.0
685.784	1.0	go	0.545	Go_X	1.0
688.308	1.0	go	0.522	Go_O	1.0
690.832	1.0	go	0.502	Go_X	1.0
693.356	0.1	stop	0.0	Go_X	1.0
695.88	1.0	go	0.526	Go_O	1.0
698.405	1.0	go	0.46	Go_X	1.0
700.929	1.0	go	0.55	Go_O	1.0
703.453	0.15	stop	0.0	Go_O	1.0
705.977	0.2	stop	0.0	Go_X	1.0
708.502	0.25	stop	0.0	Go_O	1.0
711.026	1.0	go	0.51	Go_X	1.0
713.55	0.3	stop	0.338	Go_X	0.0
716.074	1.0	go	0.403	Go_X	1.0
718.598	1.0	go	0.384	Go_O	1.0
721.122	1.0	go	0.399	Go_O	0.0
723.647	1.0	go	0.474	Go_X	1.0
726.171	1.0	go	0.409	Go_X	1.0
728.695	1.0	go	0.278	Go_O	1.0
731.219	1.0	go	0.632	Go_X	1.0
733.744	1.0	go	0.461	Go_O	1.0
736.268	0.25	stop	0.518	Go_O	0.0
738.792	1.0	go	0.498	Go_O	1.0
741.316	1.0	go	0.472	Go_X	1.0
743.84	0.2	stop	0.0	Go_X	1.0
746.365	1.0	go	0.386	Go_X	1.0
748.889	1.0	go	0.413	Go_O	1.0
751.413	1.0	go	0.716	Go_X	1.0
753.937	1.0	go	0.779	Go_O	1.0
756.461	1.0	go	0.605	Go_O	1.0
758.986	0.25	stop	0.0	Go_O	1.0
761.51	1.0	go	0.468	Go_X	1.0
764.034	1.0	go	0.424	Go_O	1.0
766.558	1.0	go	0.566	Go_X	1.0
769.082	0.3	stop	0.0	Go_X	1.0
771.607	1.0	go	0.457	Go_X	1.0
774.131	0.35	stop	0.395	Go_O	0.0
776.655	1.0	go	0.549	Go_O	1.0
779.179	1.0	go	0.446	Go_X	0.0
781.703	1.0	go	0.419	Go_O	1.0
784.228	1.0	go	0.521	Go_O	1.0
786.752	1.0	go	0.474	Go_X	1.0
789.276	1.0	go	0.453	Go_O	1.0
791.8	1.0	go	0.437	Go_X	1.0
794.324	0.3	stop	0.623	Go_X	0.0
796.849	1.0	go	0.385	Go_O	1.0
799.373	1.0	go	0.639	Go_X	1.0
801.897	1.0	go	0.478	Go_X	1.0
804.421	1.0	go	0.423	Go_O	1.0
806.945	0.25	stop	0.0	Go_O	1.0
809.47	1.0	go	0.581	Go_O	1.0
811.994	0.3	stop	0.524	Go_X	0.0
814.518	1.0	go	0.568	Go_X	1.0
817.042	1.0	go	0.43	Go_O	1.0
819.566	0.25	stop	0.0	Go_O	1.0
822.091	1.0	go	0.501	Go_X	1.0
824.615	1.0	go	0.465	Go_O	1.0
827.139	1.0	go	0.52	Go_X	1.0
829.663	1.0	go	0.425	Go_O	1.0
832.187	1.0	go	0.626	Go_X	1.0
834.712	1.0	go	0.388	Go_X	1.0
837.236	1.0	go	0.408	Go_O	1.0
839.76	1.0	go	0.555	Go_O	1.0
842.284	1.0	go	0.592	Go_X	1.0
844.808	1.0	go	0.0	Go_O	0.0
847.333	0.3	stop	0.522	Go_X	0.0
849.857	1.0	go	0.391	Go_X	1.0
852.381	1.0	go	0.432	Go_X	1.0
854.905	0.25	stop	0.518	Go_O	0.0
857.429	1.0	go	0.452	Go_O	1.0
859.954	0.2	stop	0.486	Go_X	0.0
862.478	1.0	go	0.354	Go_O	1.0
865.002	1.0	go	0.627	Go_X	1.0
867.526	0.15	stop	0.548	Go_O	0.0
870.05	1.0	go	0.5	Go_X	0.0
872.575	0.1	stop	0.894	Go_X	0.0
875.099	1.0	go	0.443	Go_O	1.0
877.623	1.0	go	0.82	Go_X	1.0
880.147	1.0	go	0.539	Go_O	1.0
882.672	0.05	stop	0.664	Go_O	0.0
885.212	1.0	go	0.538	Go_O	1.0
887.737	1.0	go	0.53	Go_X	1.0
890.261	1.0	go	0.53	Go_X	1.0
892.785	1.0	go	0.506	Go_O	1.0
895.309	0.0	stop	0.0	Go_X	1.0
897.85	1.0	go	0.604	Go_X	1.0
900.374	1.0	go	0.362	Go_O	1.0
902.899	0.05	stop	0.0	Go_O	1.0
905.423	1.0	go	0.666	Go_X	1.0
907.947	1.0	go	0.663	Go_O	1.0
910.471	1.0	go	0.627	Go_X	1.0
912.995	1.0	go	0.457	Go_O	1.0
915.52	0.1	stop	0.0	Go_X	1.0
918.044	1.0	go	0.428	Go_O	1.0
920.568	0.15	stop	0.0	Go_O	1.0
923.092	1.0	go	0.53	Go_X	1.0
925.616	1.0	go	0.55	Go_O	1.0
928.141	0.2	stop	0.0	Go_X	1.0
930.665	1.0	go	0.445	Go_X	1.0
933.189	1.0	go	0.432	Go_X	1.0
935.713	1.0	go	0.428	Go_O	1.0
938.237	1.0	go	0.281	Go_X	1.0
940.762	0.25	stop	0.369	Go_O	0.0
943.286	1.0	go	0.226	Go_O	0.0
945.81	0.2	stop	0.443	Go_X	0.0
948.334	1.0	go	0.386	Go_O	1.0
950.858	1.0	go	0.621	Go_X	1.0
953.383	1.0	go	0.255	Go_O	1.0
955.907	1.0	go	0.272	Go_X	1.0
958.431	1.0	go	0.291	Go_O	1.0
960.955	1.0	go	0.208	Go_X	1.0
963.479	0.15	stop	0.323	Go_O	0.0
966.004	1.0	go	0.0	Go_O	0.0
968.528	1.0	go	0.467	Go_X	1.0
971.052	0.1	stop	0.517	Go_X	0.0
973.576	1.0	go	0.449	Go_X	1.0
976.1	1.0	go	0.455	Go_O	1.0
978.625	0.05	stop	0.745	Go_O	0.0
981.166	1.0	go	0.554	Go_O	1.0
983.69	1.0	go	0.517	Go_X	1.0
986.214	1.0	go	0.323	Go_O	1.0
988.738	1.0	go	0.524	Go_X	1.0
991.262	0.0	stop	0.517	Go_X	0.0
993.803	1.0	go	0.642	Go_X	1.0
996.327	0.0	stop	0.45	Go_O	0.0
998.868	1.0	go	0.371	Go_O	0.0
1001.393	1.0	go	0.573	Go_X	1.0
1003.917	1.0	go	0.4	Go_O	1.0
1006.441	1.0	go	0.455	Go_O	1.0
1008.965	1.0	go	0.558	Go_X	1.0
1011.489	0.0	stop	0.0	Go_X	1.0
1014.03	1.0	go	0.415	Go_X	1.0
1016.555	1.0	go	0.534	Go_O	1.0
1019.079	0.05	stop	0.7	Go_O	0.0
1021.603	0.0	stop	0.644	Go_X	0.0
1024.144	1.0	go	0.439	Go_X	0.0
1026.668	1.0	go	0.407	Go_O	1.0
1029.192	1.0	go	0.453	Go_O	1.0
1031.716	1.0	go	0.603	Go_X	1.0
1034.241	0.0	stop	0.621	Go_O	0.0
1036.782	1.0	go	0.613	Go_O	1.0
