onset	duration	trial_type	response_time	stim_file	accuracy
68.257	1.0	go	0.804	Go_X	1.0
70.815	1.0	go	0.385	Go_O	1.0
73.338	1.0	go	0.477	Go_O	1.0
75.863	1.0	go	0.519	Go_X	1.0
78.387	1.0	go	0.362	Go_O	1.0
80.911	1.0	go	0.469	Go_X	1.0
83.435	0.25	stop	0.345	Go_O	0.0
85.959	1.0	go	0.689	Go_O	1.0
88.484	0.2	stop	0.0	Go_X	1.0
91.008	1.0	go	0.6	Go_X	1.0
93.532	1.0	go	0.623	Go_X	1.0
96.056	1.0	go	0.791	Go_O	1.0
98.58	0.25	stop	0.0	Go_O	1.0
101.105	1.0	go	0.341	Go_X	1.0
103.629	1.0	go	0.434	Go_O	1.0
106.153	0.3	stop	0.228	Go_X	0.0
108.677	0.25	stop	0.371	Go_O	0.0
111.201	1.0	go	0.403	Go_X	1.0
113.726	1.0	go	0.464	Go_O	1.0
116.25	0.2	stop	0.38	Go_X	0.0
118.774	1.0	go	0.384	Go_O	1.0
121.298	1.0	go	0.425	Go_X	1.0
123.822	0.15	stop	0.0	Go_O	1.0
126.347	1.0	go	0.519	Go_O	1.0
128.871	1.0	go	0.448	Go_X	1.0
131.395	0.2	stop	0.0	Go_X	1.0
133.919	1.0	go	0.584	Go_X	1.0
136.443	1.0	go	0.436	Go_O	1.0
138.968	0.25	stop	0.0	Go_O	1.0
141.492	1.0	go	0.341	Go_O	1.0
144.016	1.0	go	0.449	Go_X	1.0
146.54	1.0	go	0.766	Go_O	1.0
149.064	1.0	go	0.759	Go_X	1.0
151.589	1.0	go	0.879	Go_O	1.0
154.113	0.3	stop	0.0	Go_X	1.0
156.637	1.0	go	0.522	Go_X	1.0
159.161	1.0	go	0.0	Go_X	0.0
161.685	1.0	go	0.912	Go_O	1.0
164.21	1.0	go	0.612	Go_O	1.0
166.734	1.0	go	0.526	Go_X	1.0
169.258	0.35	stop	0.0	Go_O	1.0
171.782	1.0	go	0.853	Go_O	1.0
174.307	1.0	go	0.454	Go_X	1.0
176.831	1.0	go	0.54	Go_X	1.0
179.355	1.0	go	0.989	Go_O	1.0
181.879	1.0	go	0.577	Go_O	1.0
184.403	1.0	go	0.762	Go_X	1.0
186.928	0.4	stop	0.549	Go_X	0.0
189.452	1.0	go	0.789	Go_X	1.0
191.976	1.0	go	0.813	Go_O	1.0
194.5	0.35	stop	0.0	Go_O	1.0
197.024	1.0	go	0.468	Go_X	1.0
199.549	0.4	stop	0.567	Go_X	0.0
202.073	0.35	stop	0.463	Go_O	0.0
204.597	1.0	go	0.647	Go_O	1.0
207.121	1.0	go	0.66	Go_X	1.0
209.645	1.0	go	0.491	Go_O	1.0
212.17	1.0	go	0.641	Go_O	1.0
214.694	0.3	stop	0.0	Go_X	1.0
217.218	1.0	go	0.764	Go_X	1.0
219.742	0.35	stop	0.465	Go_O	0.0
222.266	1.0	go	0.744	Go_O	1.0
224.791	1.0	go	0.469	Go_X	1.0
227.315	1.0	go	0.646	Go_X	1.0
229.839	1.0	go	0.725	Go_O	1.0
232.363	1.0	go	0.526	Go_X	1.0
234.887	1.0	go	0.998	Go_O	0.0
237.412	1.0	go	0.5	Go_X	1.0
239.936	1.0	go	0.426	Go_O	1.0
242.46	1.0	go	0.618	Go_O	1.0
244.984	0.3	stop	0.0	Go_X	1.0
247.508	1.0	go	0.951	Go_X	1.0
250.033	1.0	go	0.536	Go_X	1.0
252.557	1.0	go	0.478	Go_O	1.0
255.081	0.35	stop	0.457	Go_O	0.0
257.605	1.0	go	0.515	Go_X	1.0
260.129	1.0	go	0.385	Go_O	1.0
262.654	1.0	go	0.515	Go_O	1.0
265.178	1.0	go	0.218	Go_X	1.0
267.702	1.0	go	0.44	Go_O	1.0
270.226	1.0	go	0.26	Go_X	1.0
272.75	0.3	stop	0.277	Go_X	0.0
275.275	1.0	go	0.308	Go_X	0.0
277.799	1.0	go	0.311	Go_O	1.0
280.323	0.25	stop	0.419	Go_O	0.0
282.847	1.0	go	0.825	Go_X	1.0
285.371	1.0	go	0.484	Go_O	1.0
287.896	0.2	stop	0.0	Go_X	1.0
290.42	1.0	go	0.629	Go_O	1.0
292.944	0.25	stop	0.0	Go_O	1.0
295.468	1.0	go	0.582	Go_X	1.0
297.992	1.0	go	0.73	Go_X	1.0
300.517	1.0	go	0.796	Go_O	1.0
303.041	1.0	go	0.458	Go_X	1.0
305.565	1.0	go	0.502	Go_O	1.0
308.089	0.3	stop	0.0	Go_X	1.0
310.613	0.35	stop	0.526	Go_O	0.0
313.138	1.0	go	0.441	Go_X	1.0
315.662	1.0	go	0.519	Go_O	1.0
318.186	0.3	stop	0.0	Go_X	1.0
320.71	1.0	go	0.532	Go_X	1.0
323.234	1.0	go	0.546	Go_O	1.0
325.759	1.0	go	0.519	Go_O	1.0
328.283	1.0	go	0.672	Go_X	1.0
330.807	1.0	go	0.36	Go_X	1.0
333.331	1.0	go	0.556	Go_O	1.0
335.856	0.35	stop	0.353	Go_O	0.0
338.38	1.0	go	0.825	Go_X	1.0
340.904	1.0	go	0.536	Go_O	1.0
343.428	1.0	go	0.566	Go_O	1.0
345.952	1.0	go	0.433	Go_X	1.0
348.477	1.0	go	0.377	Go_O	1.0
351.001	0.3	stop	0.419	Go_X	0.0
353.525	1.0	go	0.0	Go_X	0.0
356.049	1.0	go	0.521	Go_X	1.0
358.573	1.0	go	0.468	Go_O	1.0
361.098	1.0	go	0.723	Go_O	1.0
363.622	0.25	stop	0.0	Go_O	1.0
366.146	1.0	go	0.693	Go_X	1.0
368.67	1.0	go	0.57	Go_O	1.0
371.194	0.3	stop	0.0	Go_X	1.0
373.719	1.0	go	0.488	Go_X	1.0
376.243	0.35	stop	0.432	Go_O	0.0
378.767	1.0	go	0.47	Go_O	1.0
381.291	1.0	go	0.534	Go_X	1.0
383.815	1.0	go	0.795	Go_X	1.0
386.34	1.0	go	0.438	Go_O	1.0
388.864	1.0	go	0.466	Go_O	1.0
391.388	1.0	go	0.515	Go_X	1.0
393.912	1.0	go	0.565	Go_O	1.0
396.436	0.3	stop	0.478	Go_X	0.0
398.961	1.0	go	0.721	Go_X	1.0
401.485	1.0	go	0.435	Go_X	1.0
404.009	1.0	go	0.461	Go_O	1.0
406.533	0.25	stop	0.0	Go_O	1.0
409.057	1.0	go	0.688	Go_O	1.0
411.582	1.0	go	0.594	Go_X	1.0
414.106	1.0	go	0.44	Go_X	1.0
416.63	1.0	go	0.986	Go_O	1.0
419.154	0.3	stop	0.0	Go_X	1.0
421.678	1.0	go	0.484	Go_O	1.0
424.203	1.0	go	0.754	Go_X	1.0
426.727	0.35	stop	0.517	Go_O	0.0
429.251	1.0	go	0.0	Go_X	0.0
431.775	1.0	go	0.479	Go_O	1.0
434.299	0.3	stop	0.545	Go_X	0.0
436.824	1.0	go	0.466	Go_X	1.0
439.348	1.0	go	0.591	Go_O	1.0
441.872	0.25	stop	0.0	Go_O	1.0
444.396	1.0	go	0.992	Go_O	1.0
446.92	1.0	go	0.463	Go_X	1.0
449.445	1.0	go	0.569	Go_X	1.0
451.969	1.0	go	0.429	Go_O	1.0
454.493	1.0	go	0.595	Go_O	1.0
457.017	1.0	go	0.543	Go_X	1.0
459.541	0.3	stop	0.0	Go_X	1.0
462.066	1.0	go	0.468	Go_X	1.0
464.59	0.35	stop	0.59	Go_O	0.0
467.114	1.0	go	0.684	Go_O	1.0
469.638	1.0	go	0.58	Go_X	1.0
472.162	1.0	go	0.42	Go_O	1.0
474.687	1.0	go	0.486	Go_O	1.0
477.211	1.0	go	0.313	Go_X	1.0
479.735	0.3	stop	0.438	Go_X	0.0
482.259	1.0	go	0.481	Go_X	1.0
484.783	1.0	go	0.295	Go_O	1.0
487.308	1.0	go	0.427	Go_O	1.0
489.832	0.25	stop	0.238	Go_O	0.0
492.356	0.2	stop	0.349	Go_X	0.0
494.88	0.15	stop	0.0	Go_O	1.0
497.404	1.0	go	0.484	Go_X	1.0
499.929	0.2	stop	0.0	Go_X	1.0
502.453	1.0	go	0.432	Go_O	1.0
504.977	1.0	go	0.622	Go_X	1.0
507.501	1.0	go	0.434	Go_X	1.0
510.026	1.0	go	0.536	Go_O	1.0
512.55	1.0	go	0.571	Go_X	1.0
515.074	1.0	go	0.347	Go_O	1.0
517.598	1.0	go	0.737	Go_X	1.0
520.122	1.0	go	0.6	Go_O	1.0
522.647	0.25	stop	0.0	Go_O	1.0
525.171	1.0	go	0.465	Go_X	1.0
527.695	1.0	go	0.638	Go_O	1.0
530.219	0.3	stop	0.0	Go_X	1.0
532.743	1.0	go	0.556	Go_X	1.0
535.268	1.0	go	0.919	Go_O	1.0
537.792	1.0	go	0.792	Go_X	1.0
540.316	1.0	go	0.663	Go_O	1.0
542.84	1.0	go	0.778	Go_X	1.0
545.364	0.35	stop	0.0	Go_O	1.0
547.889	1.0	go	0.457	Go_O	1.0
550.413	1.0	go	0.722	Go_O	1.0
552.937	1.0	go	0.526	Go_X	1.0
555.461	0.4	stop	0.56	Go_X	0.0
557.985	1.0	go	0.719	Go_O	1.0
560.51	0.35	stop	0.0	Go_O	1.0
563.034	1.0	go	0.494	Go_X	1.0
565.558	1.0	go	0.0	Go_X	0.0
568.082	1.0	go	0.305	Go_O	1.0
570.606	1.0	go	0.441	Go_O	1.0
573.131	1.0	go	0.358	Go_X	1.0
575.655	1.0	go	0.359	Go_X	1.0
578.179	1.0	go	0.246	Go_O	1.0
580.703	0.4	stop	0.185	Go_X	0.0
583.227	1.0	go	0.524	Go_X	1.0
585.752	1.0	go	0.326	Go_O	1.0
588.276	1.0	go	0.388	Go_X	1.0
590.8	1.0	go	0.496	Go_O	1.0
593.324	0.35	stop	0.452	Go_O	0.0
595.848	1.0	go	0.321	Go_O	1.0
598.373	0.3	stop	0.0	Go_X	1.0
600.897	1.0	go	0.0	Go_X	0.0
603.421	1.0	go	0.641	Go_O	1.0
605.945	0.35	stop	0.388	Go_O	0.0
608.469	1.0	go	0.353	Go_X	1.0
610.994	1.0	go	0.302	Go_X	1.0
613.518	1.0	go	0.393	Go_O	1.0
616.042	1.0	go	0.478	Go_O	1.0
618.566	1.0	go	0.559	Go_X	1.0
621.09	1.0	go	0.424	Go_X	1.0
623.615	1.0	go	0.443	Go_O	1.0
626.139	1.0	go	0.651	Go_O	1.0
628.663	1.0	go	0.621	Go_X	1.0
631.187	1.0	go	0.751	Go_X	1.0
633.711	0.3	stop	0.0	Go_X	1.0
636.236	1.0	go	0.452	Go_O	1.0
638.76	1.0	go	0.564	Go_O	1.0
641.284	0.35	stop	0.442	Go_O	0.0
643.808	1.0	go	0.328	Go_X	1.0
646.332	0.3	stop	0.348	Go_X	0.0
648.857	1.0	go	0.385	Go_X	1.0
651.381	1.0	go	0.38	Go_O	1.0
653.905	0.25	stop	0.0	Go_O	1.0
656.429	1.0	go	0.523	Go_O	1.0
658.953	0.3	stop	0.324	Go_X	0.0
661.478	1.0	go	0.48	Go_X	1.0
664.002	1.0	go	0.418	Go_O	1.0
666.526	1.0	go	0.485	Go_X	1.0
669.05	0.25	stop	0.392	Go_O	0.0
671.575	1.0	go	0.45	Go_X	1.0
674.099	1.0	go	0.934	Go_O	1.0
676.623	1.0	go	0.511	Go_X	1.0
679.147	1.0	go	0.523	Go_O	1.0
681.671	0.2	stop	0.358	Go_X	0.0
684.196	1.0	go	0.452	Go_X	1.0
686.72	1.0	go	0.709	Go_O	1.0
689.244	0.15	stop	0.0	Go_O	1.0
691.768	1.0	go	0.655	Go_O	1.0
694.292	1.0	go	0.59	Go_X	1.0
696.817	1.0	go	0.543	Go_O	1.0
699.341	1.0	go	0.501	Go_X	1.0
701.865	0.2	stop	0.484	Go_X	0.0
704.389	1.0	go	0.431	Go_X	1.0
706.913	0.15	stop	0.0	Go_O	1.0
709.438	1.0	go	0.358	Go_O	1.0
711.962	1.0	go	0.554	Go_X	1.0
714.486	0.2	stop	0.0	Go_X	1.0
717.01	1.0	go	0.465	Go_O	1.0
719.534	1.0	go	0.368	Go_X	1.0
722.059	1.0	go	0.438	Go_O	1.0
724.583	1.0	go	0.672	Go_O	1.0
727.107	0.25	stop	0.0	Go_O	1.0
729.631	1.0	go	0.52	Go_X	1.0
732.155	0.3	stop	0.527	Go_X	0.0
734.68	1.0	go	0.583	Go_X	1.0
737.204	1.0	go	0.649	Go_O	1.0
739.728	1.0	go	0.366	Go_X	1.0
742.252	1.0	go	0.684	Go_O	1.0
744.776	1.0	go	0.604	Go_X	1.0
747.301	1.0	go	0.608	Go_O	1.0
749.825	0.25	stop	0.0	Go_O	1.0
752.349	1.0	go	0.43	Go_O	1.0
754.873	1.0	go	0.485	Go_X	1.0
757.397	0.3	stop	0.0	Go_X	1.0
759.922	1.0	go	0.641	Go_X	1.0
762.446	1.0	go	0.426	Go_O	1.0
764.97	0.35	stop	0.0	Go_O	1.0
767.494	1.0	go	0.446	Go_X	1.0
770.018	1.0	go	0.34	Go_O	1.0
772.543	1.0	go	0.436	Go_X	1.0
775.067	1.0	go	0.564	Go_O	1.0
777.591	0.4	stop	0.0	Go_X	1.0
780.115	1.0	go	0.419	Go_O	1.0
782.639	0.45	stop	0.599	Go_O	0.0
785.164	1.0	go	0.761	Go_X	1.0
787.688	1.0	go	0.0	Go_O	0.0
790.212	1.0	go	0.508	Go_X	1.0
792.736	1.0	go	0.49	Go_O	1.0
795.26	1.0	go	0.327	Go_X	1.0
797.785	0.4	stop	0.464	Go_X	0.0
800.309	1.0	go	0.583	Go_X	1.0
802.833	1.0	go	0.652	Go_O	1.0
805.357	0.35	stop	0.0	Go_O	1.0
807.881	0.4	stop	0.531	Go_X	0.0
810.406	1.0	go	0.493	Go_X	1.0
812.93	1.0	go	0.422	Go_O	1.0
815.454	1.0	go	0.438	Go_O	1.0
817.978	1.0	go	0.631	Go_X	1.0
820.502	0.35	stop	0.536	Go_O	0.0
823.027	1.0	go	0.426	Go_X	1.0
