onset	duration	trial_type	response_time	stim_file	accuracy
56.351	1.0	go	0.761	Go_X	0.0
58.951	1.0	go	0.576	Go_O	0.0
61.484	1.0	go	0.373	Go_O	0.0
64.017	1.0	go	0.506	Go_X	0.0
66.551	1.0	go	0.468	Go_O	0.0
69.084	1.0	go	0.538	Go_X	0.0
71.617	0.25	stopsuccess	0.0	Go_O	1.0
74.15	1.0	go	0.352	Go_X	0.0
76.684	0.3	stopfail	0.393	Go_X	0.0
79.217	1.0	go	0.527	Go_O	0.0
81.75	1.0	go	0.522	Go_X	0.0
84.283	1.0	go	0.602	Go_O	0.0
86.817	0.25	stopfail	0.413	Go_O	0.0
89.35	1.0	go	0.417	Go_X	0.0
91.883	1.0	go	0.518	Go_O	0.0
94.416	0.2	stopsuccess	0.0	Go_X	1.0
96.95	0.25	stopfail	0.441	Go_O	0.0
99.483	1.0	go	0.444	Go_X	0.0
102.016	1.0	go	0.497	Go_O	0.0
104.549	0.2	stopsuccess	0.0	Go_X	1.0
107.083	1.0	go	0.391	Go_O	0.0
109.616	1.0	go	0.486	Go_X	1.0
112.149	0.25	stopfail	0.36	Go_O	0.0
114.682	1.0	go	0.404	Go_O	0.0
117.216	1.0	go	0.431	Go_X	0.0
119.749	0.2	stopsuccess	0.0	Go_X	1.0
122.282	1.0	go	0.415	Go_O	0.0
124.815	1.0	go	0.462	Go_X	0.0
127.349	0.25	stopsuccess	0.0	Go_O	1.0
129.882	1.0	go	0.409	Go_X	0.0
132.415	1.0	go	0.73	Go_O	0.0
134.948	1.0	go	0.344	Go_X	0.0
137.482	1.0	go	0.344	Go_O	0.0
140.015	1.0	go	0.39	Go_X	0.0
142.548	0.3	stopfail	0.381	Go_X	0.0
145.081	1.0	go	0.531	Go_O	0.0
147.615	1.0	go	0.329	Go_O	1.0
150.148	1.0	go	0.468	Go_X	0.0
152.681	1.0	go	0.434	Go_X	0.0
155.214	1.0	go	0.465	Go_O	0.0
157.748	0.25	stopfail	0.468	Go_O	0.0
160.281	1.0	go	0.416	Go_X	0.0
162.814	1.0	go	0.358	Go_O	0.0
165.347	1.0	go	0.443	Go_O	0.0
167.881	1.0	go	0.494	Go_X	0.0
170.414	1.0	go	0.39	Go_X	0.0
172.947	1.0	go	0.491	Go_O	0.0
175.481	0.2	stopsuccess	0.0	Go_X	1.0
178.03	1.0	go	0.433	Go_O	0.0
180.564	1.0	go	0.396	Go_X	0.0
183.097	0.25	stopsuccess	0.0	Go_O	1.0
185.63	1.0	go	0.435	Go_O	0.0
188.163	0.3	stopfail	0.449	Go_X	0.0
190.697	0.25	stopfail	0.395	Go_O	0.0
193.23	1.0	go	0.494	Go_X	0.0
195.763	1.0	go	0.513	Go_X	0.0
198.296	1.0	go	0.528	Go_O	0.0
200.83	1.0	go	0.573	Go_O	0.0
203.363	0.2	stopfail	0.391	Go_X	0.0
205.896	1.0	go	0.642	Go_X	0.0
208.429	0.15	stopfail	0.425	Go_O	0.0
210.963	1.0	go	0.5	Go_X	0.0
213.496	1.0	go	0.634	Go_O	0.0
216.029	1.0	go	0.473	Go_X	0.0
218.562	1.0	go	0.301	Go_O	0.0
221.096	1.0	go	0.309	Go_X	0.0
223.629	1.0	go	0.303	Go_O	0.0
226.162	1.0	go	0.513	Go_X	0.0
228.695	1.0	go	0.389	Go_O	0.0
231.229	1.0	go	0.49	Go_X	0.0
233.762	0.1	stopsuccess	0.0	Go_X	1.0
236.295	1.0	go	0.47	Go_O	0.0
238.828	1.0	go	0.558	Go_X	0.0
241.362	1.0	go	0.407	Go_O	0.0
243.895	0.15	stopsuccess	0.0	Go_O	1.0
246.428	1.0	go	0.398	Go_O	1.0
248.961	1.0	go	0.376	Go_X	0.0
251.495	1.0	go	0.297	Go_O	0.0
254.028	1.0	go	0.376	Go_X	0.0
256.561	1.0	go	0.408	Go_X	0.0
259.095	1.0	go	0.378	Go_O	0.0
261.644	0.2	stopfail	0.398	Go_X	0.0
264.178	1.0	go	0.445	Go_X	0.0
266.711	1.0	go	0.506	Go_O	0.0
269.244	0.15	stopsuccess	0.0	Go_O	1.0
271.777	1.0	go	0.645	Go_O	0.0
274.311	1.0	go	0.402	Go_X	0.0
276.844	0.2	stopfail	0.448	Go_X	0.0
279.377	1.0	go	0.322	Go_X	0.0
281.91	0.15	stopsuccess	0.0	Go_O	1.0
284.444	1.0	go	0.583	Go_O	0.0
286.977	1.0	go	0.519	Go_O	0.0
289.51	1.0	go	0.462	Go_X	0.0
292.043	1.0	go	0.547	Go_X	0.0
294.577	1.0	go	0.0	Go_O	0.0
297.11	0.2	stopsuccess	0.0	Go_X	1.0
299.643	0.25	stopsuccess	0.0	Go_O	1.0
302.176	1.0	go	0.439	Go_O	0.0
304.71	1.0	go	0.469	Go_X	0.0
307.243	0.3	stopsuccess	0.0	Go_X	1.0
309.776	1.0	go	0.435	Go_X	0.0
312.309	1.0	go	0.681	Go_O	0.0
314.843	1.0	go	0.394	Go_X	0.0
317.376	1.0	go	0.329	Go_O	0.0
319.909	1.0	go	0.392	Go_X	0.0
322.443	1.0	go	0.368	Go_O	1.0
324.992	0.35	stopfail	0.442	Go_O	0.0
327.526	1.0	go	0.509	Go_X	0.0
330.059	1.0	go	0.521	Go_O	0.0
332.592	1.0	go	0.338	Go_O	0.0
335.125	1.0	go	0.482	Go_X	0.0
337.659	1.0	go	0.498	Go_X	0.0
340.192	0.3	stopsuccess	0.0	Go_X	1.0
342.725	1.0	go	0.0	Go_O	0.0
345.258	1.0	go	0.377	Go_O	0.0
347.792	1.0	go	0.393	Go_X	0.0
350.325	1.0	go	0.499	Go_O	0.0
352.858	0.35	stopfail	0.383	Go_O	0.0
355.391	1.0	go	0.384	Go_X	0.0
357.925	1.0	go	0.416	Go_X	0.0
360.458	0.3	stopfail	0.422	Go_X	0.0
362.991	1.0	go	0.49	Go_O	0.0
365.524	0.25	stopfail	0.386	Go_O	0.0
368.058	1.0	go	0.416	Go_O	0.0
370.591	1.0	go	0.49	Go_X	0.0
373.124	1.0	go	0.343	Go_O	0.0
375.657	1.0	go	0.43	Go_X	0.0
378.191	1.0	go	0.54	Go_O	0.0
380.724	1.0	go	0.56	Go_X	0.0
383.257	1.0	go	0.616	Go_O	0.0
385.79	0.2	stopsuccess	0.0	Go_X	1.0
388.324	1.0	go	0.415	Go_X	0.0
390.857	1.0	go	0.457	Go_X	0.0
393.39	1.0	go	0.601	Go_O	0.0
395.923	0.25	stopfail	0.383	Go_O	0.0
398.457	1.0	go	0.4	Go_O	0.0
400.99	1.0	go	0.501	Go_X	0.0
403.523	1.0	go	0.738	Go_X	0.0
406.057	1.0	go	0.952	Go_O	0.0
408.606	0.2	stopsuccess	0.0	Go_X	1.0
411.14	1.0	go	0.513	Go_O	0.0
413.673	1.0	go	0.517	Go_X	0.0
416.206	0.25	stopsuccess	0.0	Go_O	1.0
418.739	1.0	go	0.466	Go_O	0.0
421.273	1.0	go	0.501	Go_X	0.0
423.806	0.3	stopfail	0.384	Go_X	0.0
426.339	1.0	go	0.603	Go_O	0.0
428.872	1.0	go	0.627	Go_X	0.0
431.406	0.25	stopsuccess	0.0	Go_O	1.0
433.939	1.0	go	0.615	Go_O	0.0
436.472	1.0	go	0.863	Go_X	0.0
439.005	1.0	go	0.441	Go_X	0.0
441.539	1.0	go	0.349	Go_O	0.0
444.072	1.0	go	0.429	Go_X	0.0
446.605	1.0	go	0.494	Go_O	0.0
449.138	0.3	stopsuccess	0.0	Go_X	1.0
451.672	1.0	go	0.0	Go_X	0.0
454.205	0.35	stopsuccess	0.0	Go_O	1.0
456.738	1.0	go	0.0	Go_O	0.0
459.271	1.0	go	0.0	Go_X	0.0
461.805	1.0	go	0.384	Go_O	0.0
464.338	1.0	go	0.325	Go_O	0.0
466.871	1.0	go	0.392	Go_X	0.0
469.404	0.4	stopfail	0.466	Go_X	0.0
471.938	1.0	go	0.505	Go_O	0.0
474.471	1.0	go	0.463	Go_X	0.0
477.004	1.0	go	0.474	Go_X	0.0
479.538	0.35	stopfail	0.465	Go_O	0.0
482.087	0.3	stopfail	0.376	Go_X	0.0
484.621	0.25	stopsuccess	0.0	Go_O	1.0
487.154	1.0	go	0.498	Go_O	0.0
489.687	0.3	stopsuccess	0.0	Go_X	1.0
492.22	1.0	go	0.518	Go_X	0.0
494.754	1.0	go	0.64	Go_O	0.0
497.287	1.0	go	0.434	Go_O	0.0
499.82	1.0	go	0.81	Go_X	0.0
502.353	1.0	go	0.62	Go_X	0.0
504.887	1.0	go	0.506	Go_O	0.0
507.42	1.0	go	0.0	Go_O	0.0
509.953	1.0	go	0.0	Go_X	0.0
512.486	0.35	stopfail	0.413	Go_O	0.0
515.02	1.0	go	0.425	Go_O	1.0
517.553	1.0	go	0.474	Go_X	0.0
520.086	0.3	stopsuccess	0.0	Go_X	1.0
522.619	1.0	go	0.498	Go_O	0.0
525.153	1.0	go	0.0	Go_X	0.0
527.686	1.0	go	0.0	Go_X	0.0
530.219	1.0	go	0.374	Go_O	0.0
532.752	1.0	go	0.392	Go_O	0.0
535.286	0.35	stopfail	0.409	Go_O	0.0
537.819	1.0	go	0.662	Go_X	0.0
540.352	1.0	go	0.796	Go_X	0.0
542.885	1.0	go	0.0	Go_O	0.0
545.419	0.3	stopsuccess	0.0	Go_X	1.0
547.952	1.0	go	0.0	Go_O	0.0
550.485	0.35	stopfail	0.024	Go_O	0.0
553.019	1.0	go	0.558	Go_X	0.0
555.568	1.0	go	0.344	Go_O	0.0
558.102	1.0	go	0.452	Go_X	0.0
560.635	1.0	go	0.837	Go_X	0.0
563.168	1.0	go	0.0	Go_O	0.0
565.701	1.0	go	0.0	Go_X	0.0
568.235	1.0	go	0.0	Go_O	0.0
570.768	0.3	stopsuccess	0.0	Go_X	1.0
573.301	1.0	go	0.329	Go_O	0.0
575.834	1.0	go	0.457	Go_X	0.0
578.368	1.0	go	0.446	Go_X	0.0
580.901	1.0	go	0.0	Go_O	0.0
583.434	0.35	stopfail	0.385	Go_O	0.0
585.967	1.0	go	0.42	Go_O	0.0
588.501	0.3	stopsuccess	0.0	Go_X	1.0
591.034	1.0	go	0.0	Go_X	0.0
593.567	1.0	go	0.0	Go_X	0.0
596.1	0.35	stopsuccess	0.0	Go_O	1.0
598.634	1.0	go	0.348	Go_O	0.0
601.167	1.0	go	0.345	Go_O	0.0
603.7	1.0	go	0.359	Go_X	0.0
606.233	1.0	go	0.337	Go_O	1.0
608.767	1.0	go	0.442	Go_X	0.0
611.3	1.0	go	0.613	Go_X	0.0
613.833	1.0	go	0.0	Go_O	0.0
616.366	1.0	go	0.0	Go_O	0.0
618.9	1.0	go	0.0	Go_X	0.0
621.433	1.0	go	0.594	Go_O	0.0
623.966	0.4	stopfail	0.512	Go_X	0.0
626.499	1.0	go	0.414	Go_X	0.0
629.033	1.0	go	0.448	Go_O	0.0
631.566	0.35	stopfail	0.409	Go_O	0.0
634.099	1.0	go	0.445	Go_X	0.0
636.632	0.3	stopfail	0.595	Go_X	0.0
639.166	1.0	go	0.426	Go_X	0.0
641.699	1.0	go	0.868	Go_O	0.0
644.232	0.25	stopfail	0.413	Go_O	0.0
646.766	1.0	go	0.445	Go_X	0.0
649.315	0.2	stopsuccess	0.0	Go_X	1.0
651.849	1.0	go	0.0	Go_O	0.0
654.382	1.0	go	0.0	Go_X	0.0
656.915	1.0	go	0.0	Go_O	0.0
659.448	0.25	stopfail	0.972	Go_O	0.0
661.982	1.0	go	0.311	Go_O	0.0
664.515	1.0	go	0.433	Go_X	0.0
667.048	1.0	go	0.54	Go_X	0.0
669.581	1.0	go	0.0	Go_O	0.0
672.115	0.2	stopsuccess	0.0	Go_X	1.0
674.648	1.0	go	0.76	Go_O	0.0
677.181	1.0	go	0.453	Go_X	0.0
679.714	0.25	stopsuccess	0.0	Go_O	1.0
682.248	1.0	go	0.551	Go_O	0.0
684.781	1.0	go	0.497	Go_X	0.0
687.314	1.0	go	0.518	Go_X	0.0
689.847	1.0	go	0.0	Go_O	0.0
692.381	0.3	stopsuccess	0.0	Go_X	1.0
694.914	1.0	go	0.411	Go_O	0.0
697.447	0.35	stopsuccess	0.0	Go_O	1.0
699.98	1.0	go	0.0	Go_X	0.0
702.514	1.0	go	0.388	Go_X	0.0
705.047	0.4	stopfail	0.539	Go_X	0.0
707.58	1.0	go	0.0	Go_O	0.0
710.114	1.0	go	0.0	Go_O	0.0
712.663	1.0	go	0.0	Go_X	0.0
715.197	1.0	go	0.0	Go_X	0.0
717.73	0.35	stopsuccess	0.0	Go_O	1.0
720.263	1.0	go	0.0	Go_O	0.0
722.796	0.4	stopsuccess	0.0	Go_X	1.0
725.33	1.0	go	0.0	Go_O	0.0
727.863	1.0	go	0.376	Go_X	0.0
730.396	1.0	go	0.498	Go_X	0.0
732.929	1.0	go	0.0	Go_O	0.0
735.463	1.0	go	0.0	Go_O	0.0
737.996	1.0	go	0.0	Go_X	0.0
740.529	0.45	stopsuccess	0.0	Go_O	1.0
743.062	1.0	go	0.0	Go_X	0.0
745.596	1.0	go	0.0	Go_O	0.0
748.129	0.5	stopsuccess	0.0	Go_X	1.0
750.662	1.0	go	0.0	Go_X	0.0
753.195	1.0	go	0.0	Go_O	0.0
755.729	0.55	stopfail	0.418	Go_O	0.0
758.262	1.0	go	0.433	Go_O	0.0
760.795	1.0	go	0.56	Go_X	0.0
763.328	1.0	go	0.547	Go_X	0.0
765.862	1.0	go	0.577	Go_O	0.0
768.395	0.5	stopsuccess	0.0	Go_X	1.0
770.928	1.0	go	0.0	Go_X	0.0
773.461	0.55	stopsuccess	0.0	Go_O	1.0
775.995	1.0	go	0.0	Go_O	0.0
778.528	1.0	go	0.0	Go_X	0.0
781.061	1.0	go	0.0	Go_O	0.0
783.594	1.0	go	0.0	Go_O	0.0
786.128	1.0	go	0.658	Go_X	0.0
788.661	0.6	stopfail	0.43	Go_X	0.0
791.194	1.0	go	0.342	Go_X	0.0
793.728	1.0	go	0.512	Go_O	0.0
796.277	0.55	stopsuccess	0.0	Go_O	1.0
798.811	0.6	stopfail	0.488	Go_X	0.0
801.344	1.0	go	0.477	Go_X	0.0
803.877	1.0	go	0.349	Go_O	0.0
806.41	1.0	go	0.597	Go_X	0.0
808.944	1.0	go	0.0	Go_O	0.0
811.477	0.55	stopsuccess	0.0	Go_O	1.0
814.01	1.0	go	0.0	Go_X	0.0
