onset	duration	trial_type	response_time	stim_file	accuracy
60.163	1.0	go	0.585	Go_X	0.0
62.754	1.0	go	0.0	Go_O	0.0
65.278	1.0	go	0.014	Go_O	0.0
67.802	1.0	go	0.592	Go_X	1.0
70.327	1.0	go	0.394	Go_O	1.0
72.851	1.0	go	0.335	Go_X	1.0
75.375	0.25	stopfail	0.377	Go_O	0.0
77.899	1.0	go	0.351	Go_X	1.0
80.423	0.2	stopsuccess	0.0	Go_X	1.0
82.947	1.0	go	0.559	Go_O	1.0
85.472	1.0	go	0.486	Go_X	1.0
87.996	1.0	go	0.605	Go_O	1.0
90.52	0.25	stopfail	0.243	Go_O	0.0
93.044	1.0	go	0.592	Go_X	1.0
95.568	1.0	go	0.655	Go_O	1.0
98.093	0.2	stopfail	0.463	Go_X	0.0
100.617	0.15	stopsuccess	0.0	Go_O	1.0
103.141	1.0	go	0.505	Go_X	1.0
105.665	1.0	go	0.703	Go_O	1.0
108.189	0.2	stopsuccess	0.0	Go_X	1.0
110.713	1.0	go	0.561	Go_O	1.0
113.238	1.0	go	0.919	Go_X	1.0
115.762	0.25	stopfail	0.309	Go_O	0.0
118.286	1.0	go	0.621	Go_X	1.0
120.81	1.0	go	0.798	Go_O	1.0
123.334	0.2	stopsuccess	0.0	Go_X	1.0
125.858	1.0	go	0.596	Go_X	1.0
128.383	1.0	go	0.787	Go_O	1.0
130.907	0.25	stopsuccess	0.0	Go_O	1.0
133.431	1.0	go	0.672	Go_X	1.0
135.955	1.0	go	0.594	Go_O	1.0
138.479	1.0	go	0.657	Go_X	1.0
141.003	1.0	go	0.904	Go_O	1.0
143.528	1.0	go	0.0	Go_O	0.0
146.052	0.3	stopsuccess	0.0	Go_X	1.0
148.576	1.0	go	0.868	Go_X	1.0
151.1	1.0	go	0.0	Go_X	0.0
153.624	1.0	go	0.0	Go_O	0.0
156.148	1.0	go	0.351	Go_X	1.0
158.673	1.0	go	0.62	Go_O	1.0
161.197	0.35	stopfail	0.424	Go_O	0.0
163.721	1.0	go	0.648	Go_O	1.0
166.245	1.0	go	0.635	Go_X	1.0
168.769	1.0	go	0.483	Go_O	0.0
171.293	1.0	go	0.67	Go_X	1.0
173.818	1.0	go	0.568	Go_X	1.0
176.342	1.0	go	0.555	Go_O	1.0
178.866	0.3	stopsuccess	0.0	Go_X	1.0
181.39	1.0	go	0.321	Go_X	1.0
183.914	1.0	go	0.911	Go_O	1.0
186.439	0.35	stopsuccess	0.0	Go_O	1.0
188.963	1.0	go	0.837	Go_O	1.0
191.487	0.4	stopfail	0.569	Go_X	0.0
194.011	0.35	stopsuccess	0.0	Go_O	1.0
196.535	1.0	go	0.0	Go_X	0.0
199.059	1.0	go	0.864	Go_O	1.0
201.584	1.0	go	0.343	Go_X	1.0
204.108	1.0	go	0.359	Go_X	1.0
206.632	0.4	stopfail	0.447	Go_X	0.0
209.156	1.0	go	0.0	Go_O	0.0
211.68	0.35	stopsuccess	0.0	Go_O	1.0
214.204	1.0	go	0.0	Go_O	0.0
216.729	1.0	go	0.411	Go_X	1.0
219.253	1.0	go	0.393	Go_X	1.0
221.777	1.0	go	0.692	Go_O	1.0
224.301	1.0	go	0.431	Go_X	1.0
226.825	1.0	go	0.818	Go_O	1.0
229.349	1.0	go	0.0	Go_O	0.0
231.874	1.0	go	0.93	Go_X	1.0
234.398	1.0	go	0.544	Go_X	1.0
236.922	0.4	stopfail	0.341	Go_X	0.0
239.446	1.0	go	0.0	Go_O	0.0
241.97	1.0	go	0.977	Go_O	0.0
244.494	1.0	go	0.294	Go_X	1.0
247.019	0.35	stopsuccess	0.0	Go_O	1.0
249.543	1.0	go	0.689	Go_X	1.0
252.067	1.0	go	0.552	Go_O	0.0
254.591	1.0	go	0.513	Go_O	1.0
257.115	1.0	go	0.76	Go_X	0.0
259.64	1.0	go	0.0	Go_X	0.0
262.164	1.0	go	0.782	Go_O	1.0
264.688	0.4	stopfail	0.542	Go_X	0.0
267.212	1.0	go	0.277	Go_O	0.0
269.736	1.0	go	0.0	Go_X	0.0
272.26	0.35	stopfail	0.477	Go_O	0.0
274.785	1.0	go	0.643	Go_X	1.0
277.309	1.0	go	0.873	Go_O	1.0
279.833	0.3	stopsuccess	0.0	Go_X	1.0
282.357	1.0	go	0.283	Go_O	0.0
284.881	0.35	stopsuccess	0.0	Go_O	1.0
287.405	1.0	go	0.0	Go_X	0.0
289.93	1.0	go	0.759	Go_X	0.0
292.454	1.0	go	0.251	Go_O	0.0
294.978	1.0	go	0.0	Go_O	0.0
297.502	1.0	go	0.543	Go_X	1.0
300.026	0.4	stopsuccess	0.0	Go_X	1.0
302.55	0.45	stopsuccess	0.0	Go_O	1.0
305.075	1.0	go	0.398	Go_X	0.0
307.599	1.0	go	0.958	Go_O	1.0
310.123	0.5	stopfail	0.5	Go_X	0.0
312.647	1.0	go	0.0	Go_O	0.0
315.171	1.0	go	0.82	Go_X	1.0
317.695	1.0	go	0.485	Go_X	1.0
320.22	1.0	go	0.0	Go_O	0.0
322.744	1.0	go	0.0	Go_X	0.0
325.268	1.0	go	0.328	Go_O	0.0
327.792	0.45	stopfail	0.717	Go_O	0.0
330.316	1.0	go	0.0	Go_O	0.0
332.84	1.0	go	0.329	Go_X	1.0
335.365	1.0	go	0.449	Go_X	1.0
337.889	1.0	go	0.0	Go_O	0.0
340.413	1.0	go	0.531	Go_X	1.0
342.937	0.4	stopsuccess	0.0	Go_X	1.0
345.461	1.0	go	0.927	Go_O	1.0
347.986	1.0	go	0.0	Go_O	0.0
350.51	1.0	go	0.323	Go_X	1.0
353.034	1.0	go	0.0	Go_X	0.0
355.558	0.45	stopfail	0.735	Go_O	0.0
358.082	1.0	go	0.0	Go_O	0.0
360.606	1.0	go	0.919	Go_O	1.0
363.131	0.4	stopsuccess	0.0	Go_X	1.0
365.655	1.0	go	0.35	Go_X	1.0
368.179	0.45	stopsuccess	0.0	Go_O	1.0
370.703	1.0	go	0.0	Go_O	0.0
373.227	1.0	go	0.164	Go_X	1.0
375.751	1.0	go	0.0	Go_X	0.0
378.276	1.0	go	0.567	Go_O	1.0
380.8	1.0	go	0.0	Go_X	0.0
383.324	1.0	go	0.0	Go_O	0.0
385.848	1.0	go	0.0	Go_O	0.0
388.372	0.5	stopsuccess	0.0	Go_X	1.0
390.896	1.0	go	0.641	Go_X	1.0
393.421	1.0	go	0.0	Go_X	0.0
395.945	1.0	go	0.0	Go_O	0.0
398.469	0.55	stopsuccess	0.0	Go_O	1.0
400.993	1.0	go	0.0	Go_X	0.0
403.517	1.0	go	0.362	Go_O	0.0
406.041	1.0	go	0.0	Go_X	0.0
408.566	1.0	go	0.0	Go_O	0.0
411.09	0.6	stopsuccess	0.0	Go_X	1.0
413.614	1.0	go	0.0	Go_X	0.0
416.138	1.0	go	0.0	Go_O	0.0
418.662	0.65	stopfail	0.373	Go_O	0.0
421.187	1.0	go	0.909	Go_X	1.0
423.711	1.0	go	0.0	Go_O	0.0
426.235	0.6	stopfail	0.455	Go_X	0.0
428.776	1.0	go	0.638	Go_X	1.0
431.3	1.0	go	0.0	Go_O	0.0
433.824	0.55	stopsuccess	0.0	Go_O	1.0
436.348	1.0	go	0.0	Go_X	0.0
438.872	1.0	go	0.0	Go_O	0.0
441.397	1.0	go	0.653	Go_X	1.0
443.921	1.0	go	0.862	Go_O	0.0
446.445	1.0	go	0.0	Go_X	0.0
448.969	1.0	go	0.0	Go_O	0.0
451.493	0.6	stopfail	0.358	Go_X	0.0
454.017	1.0	go	0.0	Go_X	0.0
456.542	0.55	stopsuccess	0.0	Go_O	1.0
459.066	1.0	go	0.0	Go_O	0.0
461.59	1.0	go	0.0	Go_X	0.0
464.114	1.0	go	0.0	Go_O	0.0
466.638	1.0	go	0.0	Go_X	0.0
469.162	1.0	go	0.0	Go_O	0.0
471.687	0.6	stopsuccess	0.0	Go_X	1.0
474.211	1.0	go	0.0	Go_O	0.0
476.735	1.0	go	0.0	Go_X	0.0
479.259	1.0	go	0.0	Go_O	0.0
481.783	0.65	stopfail	0.703	Go_O	0.0
484.308	0.6	stopfail	0.528	Go_X	0.0
486.832	0.55	stopfail	0.253	Go_O	0.0
489.356	1.0	go	0.309	Go_X	1.0
491.88	0.5	stopsuccess	0.0	Go_X	1.0
494.404	1.0	go	0.0	Go_O	0.0
496.928	1.0	go	0.62	Go_X	1.0
499.453	1.0	go	0.0	Go_O	0.0
501.977	1.0	go	0.0	Go_X	0.0
504.501	1.0	go	0.0	Go_O	0.0
507.025	1.0	go	0.0	Go_X	0.0
509.549	1.0	go	0.229	Go_X	1.0
512.073	1.0	go	0.232	Go_O	0.0
514.598	0.55	stopfail	0.387	Go_O	0.0
517.122	1.0	go	0.377	Go_O	1.0
519.646	1.0	go	0.519	Go_X	1.0
522.17	0.5	stopfail	0.373	Go_X	0.0
524.694	1.0	go	0.324	Go_O	1.0
527.218	1.0	go	0.356	Go_X	1.0
529.743	1.0	go	0.277	Go_X	1.0
532.267	1.0	go	0.657	Go_O	1.0
534.791	1.0	go	0.56	Go_O	1.0
537.315	0.45	stopfail	0.524	Go_O	0.0
539.839	1.0	go	0.532	Go_X	1.0
542.363	1.0	go	0.479	Go_O	1.0
544.888	1.0	go	0.574	Go_X	1.0
547.412	0.4	stopfail	0.532	Go_X	0.0
549.936	1.0	go	0.708	Go_O	1.0
552.46	0.35	stopsuccess	0.0	Go_O	1.0
554.984	1.0	go	0.548	Go_X	1.0
557.508	1.0	go	0.523	Go_O	1.0
560.033	1.0	go	0.297	Go_X	1.0
562.557	1.0	go	0.252	Go_O	1.0
565.081	1.0	go	0.592	Go_X	1.0
567.605	1.0	go	0.849	Go_X	1.0
570.129	1.0	go	0.85	Go_O	1.0
572.654	0.4	stopfail	0.568	Go_X	0.0
575.178	1.0	go	0.864	Go_X	1.0
577.702	1.0	go	0.382	Go_O	1.0
580.226	1.0	go	0.935	Go_O	1.0
582.75	1.0	go	0.628	Go_X	1.0
585.274	0.35	stopsuccess	0.0	Go_O	1.0
587.799	1.0	go	0.757	Go_X	1.0
590.323	0.4	stopfail	0.463	Go_X	0.0
592.847	1.0	go	0.0	Go_O	0.0
595.371	1.0	go	0.0	Go_O	0.0
597.895	0.35	stopfail	0.502	Go_O	0.0
600.419	1.0	go	0.495	Go_X	1.0
602.944	1.0	go	0.644	Go_X	1.0
605.468	1.0	go	0.887	Go_O	1.0
607.992	1.0	go	0.311	Go_X	1.0
610.516	1.0	go	0.0	Go_O	0.0
613.04	1.0	go	0.642	Go_O	1.0
615.564	1.0	go	0.687	Go_X	1.0
618.089	1.0	go	0.689	Go_O	1.0
620.613	1.0	go	0.0	Go_X	0.0
623.137	1.0	go	0.275	Go_X	1.0
625.661	0.3	stopfail	0.734	Go_X	0.0
628.185	1.0	go	0.0	Go_O	0.0
630.709	1.0	go	0.269	Go_X	1.0
633.234	0.25	stopfail	0.371	Go_O	0.0
635.758	1.0	go	0.692	Go_O	1.0
638.282	0.2	stopsuccess	0.0	Go_X	1.0
640.806	1.0	go	0.547	Go_X	1.0
643.33	1.0	go	0.0	Go_O	0.0
645.855	0.25	stopsuccess	0.0	Go_O	1.0
648.379	1.0	go	0.967	Go_O	1.0
650.903	0.3	stopsuccess	0.0	Go_X	1.0
653.427	1.0	go	0.721	Go_X	1.0
655.951	1.0	go	0.0	Go_O	0.0
658.475	1.0	go	0.632	Go_X	0.0
661.0	0.35	stopfail	0.324	Go_O	0.0
663.524	1.0	go	0.0	Go_X	0.0
666.048	1.0	go	0.758	Go_O	1.0
668.572	1.0	go	0.687	Go_O	1.0
671.096	1.0	go	0.0	Go_X	0.0
673.62	0.3	stopsuccess	0.0	Go_X	1.0
676.145	1.0	go	0.0	Go_O	0.0
678.669	1.0	go	0.654	Go_X	1.0
681.193	0.35	stopsuccess	0.0	Go_O	1.0
683.717	1.0	go	0.0	Go_O	0.0
686.241	1.0	go	0.175	Go_X	1.0
688.765	1.0	go	0.0	Go_O	0.0
691.29	1.0	go	0.646	Go_X	1.0
693.814	0.4	stopfail	0.499	Go_X	0.0
696.338	1.0	go	0.0	Go_O	0.0
698.862	0.35	stopsuccess	0.0	Go_O	1.0
701.386	1.0	go	0.0	Go_X	0.0
703.91	1.0	go	0.641	Go_X	1.0
706.435	0.4	stopsuccess	0.0	Go_X	1.0
708.959	1.0	go	0.841	Go_O	1.0
711.483	1.0	go	0.0	Go_O	0.0
714.007	1.0	go	0.0	Go_X	0.0
716.531	1.0	go	0.305	Go_X	1.0
719.055	0.45	stopsuccess	0.0	Go_O	1.0
721.58	1.0	go	0.334	Go_O	0.0
724.104	0.5	stopsuccess	0.0	Go_X	1.0
726.628	1.0	go	0.715	Go_O	1.0
729.152	1.0	go	0.0	Go_X	0.0
731.676	1.0	go	0.754	Go_O	1.0
734.201	1.0	go	0.322	Go_X	1.0
736.725	1.0	go	0.0	Go_X	0.0
739.249	1.0	go	0.372	Go_O	1.0
741.773	0.55	stopsuccess	0.0	Go_O	1.0
744.297	1.0	go	0.0	Go_X	0.0
746.821	1.0	go	0.38	Go_O	0.0
749.346	0.6	stopfail	0.764	Go_X	0.0
751.87	1.0	go	0.0	Go_O	0.0
754.394	1.0	go	0.801	Go_X	1.0
756.918	0.55	stopsuccess	0.0	Go_O	1.0
759.442	1.0	go	0.0	Go_X	0.0
761.966	1.0	go	0.0	Go_O	0.0
764.491	1.0	go	0.653	Go_X	1.0
767.015	1.0	go	0.0	Go_O	0.0
769.539	0.6	stopfail	0.677	Go_X	0.0
772.063	1.0	go	0.882	Go_O	0.0
774.587	0.55	stopsuccess	0.0	Go_O	1.0
777.111	1.0	go	0.0	Go_X	0.0
779.636	1.0	go	0.428	Go_X	1.0
782.16	1.0	go	0.71	Go_O	1.0
784.684	1.0	go	0.0	Go_O	0.0
787.208	1.0	go	0.236	Go_X	1.0
789.732	0.6	stopsuccess	0.0	Go_X	1.0
792.256	1.0	go	0.0	Go_X	0.0
794.781	1.0	go	0.0	Go_O	0.0
797.305	0.65	stopfail	0.325	Go_O	0.0
799.829	0.6	stopsuccess	0.0	Go_X	1.0
802.353	1.0	go	0.459	Go_X	1.0
804.877	1.0	go	0.0	Go_O	0.0
807.401	1.0	go	0.0	Go_O	0.0
809.926	1.0	go	0.0	Go_X	0.0
812.45	0.65	stopsuccess	0.0	Go_O	1.0
814.974	1.0	go	0.0	Go_O	0.0
