onset	duration	trial_type	response_time	stim_file	accuracy
325.595	1.0	go	0.519	Go_O	1.0
328.128	1.0	go	0.281	Go_X	1.0
330.661	1.0	go	0.458	Go_O	1.0
333.195	1.0	go	0.337	Go_X	1.0
335.728	1.0	go	0.636	Go_O	1.0
338.261	1.0	go	0.328	Go_X	1.0
340.795	0.25	stopsuccess	0.0	Go_O	1.0
343.328	1.0	go	0.598	Go_X	1.0
345.861	0.3	stopsuccess	0.0	Go_X	1.0
348.394	1.0	go	0.3	Go_O	1.0
350.928	1.0	go	0.34	Go_X	1.0
353.461	1.0	go	0.735	Go_O	1.0
355.994	0.35	stopsuccess	0.0	Go_O	1.0
358.527	1.0	go	0.288	Go_X	1.0
361.061	1.0	go	0.572	Go_O	1.0
363.594	0.4	stopfail	0.506	Go_X	0.0
366.127	0.35	stopfail	0.523	Go_O	0.0
368.661	1.0	go	0.515	Go_O	1.0
371.194	1.0	go	0.374	Go_X	1.0
373.727	0.3	stopsuccess	0.0	Go_X	1.0
376.26	1.0	go	0.772	Go_O	1.0
378.794	1.0	go	0.477	Go_X	1.0
381.327	0.35	stopsuccess	0.0	Go_O	1.0
383.86	1.0	go	0.543	Go_X	0.0
386.394	1.0	go	0.444	Go_O	1.0
388.943	0.4	stopfail	0.309	Go_X	0.0
391.477	1.0	go	0.584	Go_X	1.0
394.01	1.0	go	0.431	Go_O	1.0
396.543	0.35	stopsuccess	0.0	Go_O	1.0
399.077	1.0	go	0.715	Go_X	1.0
401.61	1.0	go	0.737	Go_O	1.0
404.143	1.0	go	0.54	Go_O	1.0
406.676	1.0	go	0.653	Go_X	1.0
409.21	1.0	go	0.695	Go_O	1.0
411.743	0.4	stopsuccess	0.0	Go_X	1.0
414.276	1.0	go	0.974	Go_X	1.0
416.809	1.0	go	0.682	Go_O	1.0
419.343	1.0	go	0.691	Go_X	1.0
421.876	1.0	go	0.418	Go_X	1.0
424.409	1.0	go	0.672	Go_O	1.0
426.943	0.45	stopfail	0.59	Go_O	0.0
429.476	1.0	go	0.572	Go_O	1.0
432.009	1.0	go	0.44	Go_X	1.0
434.542	1.0	go	0.497	Go_X	1.0
437.076	1.0	go	0.573	Go_O	1.0
439.609	1.0	go	0.556	Go_X	1.0
442.142	1.0	go	0.401	Go_O	1.0
444.675	0.4	stopsuccess	0.0	Go_X	1.0
447.209	1.0	go	0.409	Go_O	1.0
449.742	1.0	go	0.475	Go_X	1.0
452.275	0.45	stopsuccess	0.0	Go_O	1.0
454.809	1.0	go	0.452	Go_O	1.0
457.342	0.5	stopfail	0.397	Go_X	0.0
459.875	0.45	stopsuccess	0.0	Go_O	1.0
462.408	1.0	go	0.814	Go_X	0.0
464.942	1.0	go	0.734	Go_X	1.0
467.475	1.0	go	0.564	Go_O	1.0
470.008	1.0	go	0.678	Go_O	1.0
472.542	0.5	stopfail	0.647	Go_X	0.0
475.091	1.0	go	0.742	Go_X	1.0
477.625	0.45	stopsuccess	0.0	Go_O	1.0
480.158	1.0	go	0.41	Go_X	0.0
482.691	1.0	go	0.0	Go_O	0.0
485.225	1.0	go	0.723	Go_X	1.0
487.758	1.0	go	0.425	Go_O	1.0
490.291	1.0	go	0.502	Go_O	1.0
492.824	1.0	go	0.707	Go_X	1.0
495.358	1.0	go	0.542	Go_O	1.0
497.891	1.0	go	0.381	Go_X	1.0
500.424	1.0	go	0.51	Go_O	1.0
502.957	0.5	stopsuccess	0.0	Go_X	1.0
505.491	1.0	go	0.612	Go_X	1.0
508.024	1.0	go	0.612	Go_O	1.0
510.557	1.0	go	0.676	Go_X	1.0
513.091	0.55	stopfail	0.382	Go_O	0.0
515.624	1.0	go	0.391	Go_X	1.0
518.157	1.0	go	0.843	Go_O	1.0
520.69	1.0	go	0.701	Go_O	1.0
523.224	1.0	go	0.511	Go_X	1.0
525.757	1.0	go	0.633	Go_X	1.0
528.29	1.0	go	0.648	Go_O	1.0
530.823	0.5	stopfail	0.471	Go_X	0.0
533.357	1.0	go	0.661	Go_X	1.0
535.89	1.0	go	0.715	Go_O	1.0
538.423	0.45	stopfail	0.512	Go_O	0.0
540.957	1.0	go	0.551	Go_X	1.0
543.49	1.0	go	0.0	Go_O	0.0
546.023	0.4	stopfail	0.403	Go_X	0.0
548.556	1.0	go	0.81	Go_X	1.0
551.09	0.35	stopsuccess	0.0	Go_O	1.0
553.623	1.0	go	0.805	Go_O	1.0
556.156	1.0	go	0.409	Go_X	1.0
558.689	1.0	go	0.813	Go_O	1.0
561.223	1.0	go	0.67	Go_O	1.0
563.756	1.0	go	0.66	Go_X	1.0
566.289	0.4	stopfail	0.456	Go_X	0.0
568.823	0.35	stopsuccess	0.0	Go_O	1.0
571.356	1.0	go	0.656	Go_X	1.0
573.889	1.0	go	0.555	Go_O	1.0
576.422	0.4	stopsuccess	0.0	Go_X	1.0
578.956	1.0	go	0.811	Go_X	1.0
581.489	1.0	go	0.623	Go_O	1.0
584.022	1.0	go	0.448	Go_X	0.0
586.556	1.0	go	0.0	Go_O	0.0
589.105	1.0	go	0.571	Go_X	1.0
591.639	1.0	go	0.805	Go_O	1.0
594.172	0.45	stopfail	0.455	Go_O	0.0
596.705	1.0	go	0.574	Go_X	1.0
599.239	1.0	go	0.574	Go_O	1.0
601.772	1.0	go	0.72	Go_X	1.0
604.305	1.0	go	0.0	Go_O	0.0
606.838	1.0	go	0.589	Go_X	1.0
609.372	0.4	stopfail	0.512	Go_X	0.0
611.905	1.0	go	0.0	Go_O	0.0
614.438	1.0	go	0.389	Go_X	1.0
616.971	1.0	go	0.459	Go_O	1.0
619.505	1.0	go	0.993	Go_O	1.0
622.038	0.35	stopsuccess	0.0	Go_O	1.0
624.571	1.0	go	0.569	Go_X	1.0
627.105	1.0	go	0.76	Go_O	1.0
629.638	0.4	stopsuccess	0.0	Go_X	1.0
632.171	1.0	go	0.944	Go_X	1.0
634.704	0.45	stopsuccess	0.0	Go_O	1.0
637.238	1.0	go	0.945	Go_X	1.0
639.771	1.0	go	0.97	Go_O	1.0
642.304	1.0	go	0.537	Go_O	1.0
644.837	1.0	go	0.365	Go_X	1.0
647.371	1.0	go	0.493	Go_X	1.0
649.904	1.0	go	0.636	Go_O	1.0
652.437	1.0	go	0.495	Go_O	1.0
654.971	0.5	stopfail	0.528	Go_X	0.0
657.504	1.0	go	0.424	Go_X	1.0
660.037	1.0	go	0.683	Go_X	1.0
662.57	1.0	go	0.5	Go_O	1.0
665.104	0.45	stopfail	0.58	Go_O	0.0
667.637	1.0	go	0.0	Go_O	0.0
670.17	1.0	go	0.34	Go_X	1.0
672.704	1.0	go	0.385	Go_O	1.0
675.253	1.0	go	0.504	Go_X	1.0
677.787	0.4	stopfail	0.525	Go_X	0.0
680.32	1.0	go	0.795	Go_O	1.0
682.853	1.0	go	0.451	Go_X	1.0
685.387	0.35	stopfail	0.485	Go_O	0.0
687.92	1.0	go	0.718	Go_X	1.0
690.453	1.0	go	0.502	Go_O	1.0
692.986	0.3	stopsuccess	0.0	Go_X	1.0
695.52	1.0	go	0.414	Go_O	1.0
698.053	1.0	go	0.577	Go_X	1.0
700.586	0.35	stopsuccess	0.0	Go_O	1.0
703.119	1.0	go	0.497	Go_X	1.0
705.653	1.0	go	0.49	Go_O	1.0
708.186	1.0	go	0.456	Go_X	0.0
710.719	1.0	go	0.0	Go_O	0.0
713.253	1.0	go	0.644	Go_X	0.0
715.786	1.0	go	0.586	Go_O	1.0
718.319	0.4	stopfail	0.41	Go_X	0.0
720.852	1.0	go	0.572	Go_O	1.0
723.386	0.35	stopsuccess	0.0	Go_O	1.0
725.919	1.0	go	0.654	Go_X	1.0
728.452	1.0	go	0.473	Go_X	1.0
730.985	1.0	go	0.523	Go_O	1.0
733.519	1.0	go	0.643	Go_X	1.0
736.052	1.0	go	0.276	Go_O	1.0
738.585	0.4	stopfail	0.807	Go_X	0.0
741.119	1.0	go	0.457	Go_O	1.0
743.652	1.0	go	0.672	Go_X	1.0
746.185	1.0	go	0.462	Go_X	1.0
748.718	0.35	stopsuccess	0.0	Go_O	1.0
751.252	0.4	stopfail	0.55	Go_X	0.0
753.785	0.35	stopfail	0.494	Go_O	0.0
756.318	1.0	go	0.0	Go_O	0.0
758.852	0.3	stopfail	0.584	Go_X	0.0
761.401	1.0	go	0.602	Go_X	1.0
763.935	1.0	go	0.749	Go_O	1.0
766.468	1.0	go	0.622	Go_X	1.0
769.001	1.0	go	0.302	Go_O	1.0
771.535	1.0	go	0.544	Go_X	1.0
774.068	1.0	go	0.359	Go_O	1.0
776.601	1.0	go	0.329	Go_O	0.0
779.134	1.0	go	0.498	Go_X	1.0
781.668	0.25	stopsuccess	0.0	Go_O	1.0
784.201	1.0	go	0.56	Go_X	1.0
786.734	1.0	go	0.551	Go_O	1.0
789.267	0.3	stopsuccess	0.0	Go_X	1.0
791.801	1.0	go	0.539	Go_X	1.0
794.334	1.0	go	0.529	Go_O	1.0
796.867	1.0	go	0.522	Go_X	1.0
799.401	1.0	go	0.524	Go_O	1.0
801.934	1.0	go	0.0	Go_O	0.0
804.467	0.35	stopfail	0.631	Go_O	0.0
807.0	1.0	go	0.924	Go_X	1.0
809.534	1.0	go	0.416	Go_X	1.0
812.067	1.0	go	0.878	Go_O	1.0
814.6	0.3	stopfail	0.571	Go_X	0.0
817.133	1.0	go	0.666	Go_X	1.0
819.667	0.25	stopsuccess	0.0	Go_O	1.0
822.2	1.0	go	0.506	Go_O	1.0
824.733	1.0	go	0.579	Go_X	1.0
827.267	1.0	go	0.472	Go_O	1.0
829.8	1.0	go	0.488	Go_O	1.0
832.333	1.0	go	0.717	Go_X	1.0
834.866	1.0	go	0.583	Go_O	0.0
837.4	1.0	go	0.665	Go_X	1.0
839.933	0.3	stopsuccess	0.0	Go_X	1.0
842.466	1.0	go	0.526	Go_X	1.0
845.0	1.0	go	0.525	Go_O	1.0
847.549	1.0	go	0.428	Go_O	1.0
850.083	1.0	go	0.405	Go_X	1.0
852.616	0.35	stopfail	0.511	Go_O	0.0
855.149	1.0	go	0.415	Go_X	1.0
857.683	0.3	stopfail	0.481	Go_X	0.0
860.216	1.0	go	0.467	Go_O	1.0
862.749	1.0	go	0.542	Go_O	0.0
865.282	0.25	stopfail	0.354	Go_O	0.0
867.816	1.0	go	0.464	Go_X	1.0
870.349	1.0	go	0.669	Go_X	1.0
872.882	1.0	go	0.4	Go_O	1.0
875.415	1.0	go	0.544	Go_X	1.0
877.949	1.0	go	0.893	Go_O	0.0
880.482	1.0	go	0.274	Go_X	0.0
883.015	1.0	go	0.403	Go_O	1.0
885.549	1.0	go	0.372	Go_O	1.0
888.082	1.0	go	0.625	Go_X	1.0
890.615	1.0	go	0.705	Go_O	1.0
893.148	0.2	stopsuccess	0.0	Go_X	1.0
895.682	1.0	go	0.775	Go_X	1.0
898.215	1.0	go	0.89	Go_O	1.0
900.748	0.25	stopsuccess	0.0	Go_O	1.0
903.281	1.0	go	0.575	Go_X	1.0
905.815	0.3	stopsuccess	0.0	Go_X	1.0
908.348	1.0	go	0.0	Go_X	0.0
910.881	1.0	go	0.395	Go_O	1.0
913.415	0.35	stopfail	0.567	Go_O	0.0
915.948	1.0	go	0.0	Go_O	0.0
918.481	0.3	stopsuccess	0.0	Go_X	1.0
921.014	1.0	go	0.412	Go_X	1.0
923.548	1.0	go	0.0	Go_O	0.0
926.081	1.0	go	0.293	Go_X	1.0
928.614	0.35	stopfail	0.385	Go_O	0.0
931.147	1.0	go	0.546	Go_O	1.0
933.681	1.0	go	0.456	Go_X	1.0
936.214	1.0	go	0.508	Go_X	1.0
938.747	1.0	go	0.425	Go_O	1.0
941.281	0.3	stopfail	0.359	Go_X	0.0
943.814	1.0	go	0.634	Go_X	1.0
946.347	1.0	go	0.564	Go_O	1.0
948.88	0.25	stopsuccess	0.0	Go_O	1.0
951.414	1.0	go	0.0	Go_O	0.0
953.947	1.0	go	0.521	Go_X	1.0
956.48	1.0	go	0.504	Go_X	1.0
959.014	1.0	go	0.491	Go_O	1.0
961.563	0.3	stopfail	0.364	Go_X	0.0
964.097	1.0	go	0.439	Go_X	1.0
966.63	0.25	stopfail	0.352	Go_O	0.0
969.163	1.0	go	0.0	Go_O	0.0
971.697	1.0	go	0.603	Go_X	1.0
974.23	0.2	stopfail	0.467	Go_X	0.0
976.763	1.0	go	0.396	Go_O	1.0
979.296	1.0	go	0.342	Go_O	1.0
981.83	1.0	go	0.464	Go_X	1.0
984.363	1.0	go	0.291	Go_O	1.0
986.896	0.15	stopfail	0.377	Go_O	0.0
989.429	1.0	go	0.669	Go_X	1.0
991.963	0.1	stopsuccess	0.0	Go_X	1.0
994.496	1.0	go	0.291	Go_X	0.0
997.029	1.0	go	0.362	Go_O	1.0
999.563	1.0	go	0.562	Go_O	1.0
1002.096	1.0	go	0.53	Go_X	1.0
1004.629	1.0	go	0.466	Go_O	1.0
1007.162	1.0	go	0.579	Go_X	1.0
1009.696	0.15	stopsuccess	0.0	Go_O	1.0
1012.229	1.0	go	0.579	Go_X	1.0
1014.762	1.0	go	0.525	Go_O	1.0
1017.295	0.2	stopsuccess	0.0	Go_X	1.0
1019.829	1.0	go	0.341	Go_O	0.0
1022.362	1.0	go	0.594	Go_X	1.0
1024.895	0.25	stopfail	0.484	Go_O	0.0
1027.429	1.0	go	0.711	Go_X	1.0
1029.962	1.0	go	0.568	Go_O	1.0
1032.495	1.0	go	0.339	Go_X	1.0
1035.028	1.0	go	0.469	Go_O	1.0
1037.562	0.2	stopsuccess	0.0	Go_X	1.0
1040.095	1.0	go	0.0	Go_X	0.0
1042.628	0.25	stopsuccess	0.0	Go_O	1.0
1045.162	1.0	go	0.591	Go_O	1.0
1047.711	1.0	go	0.444	Go_X	1.0
1050.245	1.0	go	0.33	Go_O	1.0
1052.778	1.0	go	0.612	Go_X	0.0
1055.311	1.0	go	0.347	Go_O	1.0
1057.845	0.3	stopfail	0.332	Go_X	0.0
1060.378	1.0	go	0.338	Go_X	1.0
1062.911	1.0	go	0.686	Go_O	1.0
1065.444	0.25	stopfail	0.482	Go_O	0.0
1067.978	0.2	stopfail	0.388	Go_X	0.0
1070.511	1.0	go	0.879	Go_X	1.0
1073.044	1.0	go	0.997	Go_O	1.0
1075.577	1.0	go	0.285	Go_O	0.0
1078.111	1.0	go	0.465	Go_X	1.0
1080.644	0.15	stopsuccess	0.0	Go_O	1.0
1083.177	1.0	go	0.677	Go_X	1.0
