onset	duration	trial_type	response_time	stim_file	accuracy
304.305	1.0	go	0.0	Go_X	0.0
306.896	1.0	go	0.658	Go_O	1.0
309.421	1.0	go	0.633	Go_O	0.0
311.945	1.0	go	0.368	Go_X	0.0
314.469	1.0	go	0.512	Go_O	0.0
316.993	1.0	go	0.394	Go_X	0.0
319.517	0.25	stopfail	0.6	Go_O	0.0
322.042	1.0	go	0.57	Go_O	0.0
324.566	0.2	stopfail	0.431	Go_X	0.0
327.09	1.0	go	0.0	Go_X	0.0
329.614	1.0	go	0.433	Go_X	0.0
332.138	1.0	go	0.0	Go_O	0.0
334.662	0.15	stopsuccess	0.0	Go_O	1.0
337.187	1.0	go	0.0	Go_O	0.0
339.711	1.0	go	0.0	Go_X	0.0
342.235	0.2	stopsuccess	0.0	Go_X	1.0
344.759	0.25	stopsuccess	0.0	Go_O	1.0
347.283	1.0	go	0.449	Go_X	1.0
349.807	1.0	go	0.316	Go_O	0.0
352.332	0.3	stopfail	0.403	Go_X	0.0
354.856	1.0	go	0.174	Go_O	1.0
357.38	1.0	go	0.202	Go_X	1.0
359.904	0.25	stopfail	0.285	Go_O	0.0
362.428	1.0	go	0.316	Go_X	1.0
364.952	1.0	go	0.17	Go_O	1.0
367.477	0.2	stopfail	0.247	Go_X	0.0
370.001	1.0	go	0.0	Go_X	0.0
372.525	1.0	go	0.311	Go_O	0.0
375.049	0.15	stopsuccess	0.0	Go_O	1.0
377.573	1.0	go	0.615	Go_O	1.0
380.097	1.0	go	0.308	Go_X	1.0
382.622	1.0	go	0.0	Go_X	0.0
385.146	1.0	go	0.0	Go_O	0.0
387.67	1.0	go	0.0	Go_O	0.0
390.194	0.2	stopsuccess	0.0	Go_X	1.0
392.718	1.0	go	0.0	Go_X	0.0
395.242	1.0	go	0.0	Go_X	0.0
397.767	1.0	go	0.0	Go_O	0.0
400.291	1.0	go	0.0	Go_X	0.0
402.815	1.0	go	0.556	Go_O	0.0
405.339	0.25	stopfail	0.335	Go_O	0.0
407.863	1.0	go	0.214	Go_X	1.0
410.388	1.0	go	0.313	Go_O	1.0
412.912	1.0	go	0.694	Go_O	0.0
415.436	1.0	go	0.0	Go_X	0.0
417.96	1.0	go	0.221	Go_O	1.0
420.484	1.0	go	0.0	Go_X	0.0
423.008	0.2	stopsuccess	0.0	Go_X	1.0
425.533	1.0	go	0.0	Go_O	0.0
428.057	1.0	go	0.0	Go_X	0.0
430.581	0.25	stopsuccess	0.0	Go_O	1.0
433.105	1.0	go	0.0	Go_O	0.0
435.629	0.3	stopsuccess	0.0	Go_X	1.0
438.153	0.35	stopsuccess	0.0	Go_O	1.0
440.678	1.0	go	0.0	Go_X	0.0
443.202	1.0	go	0.748	Go_X	1.0
445.726	1.0	go	0.324	Go_O	1.0
448.25	1.0	go	0.0	Go_O	0.0
450.774	0.4	stopsuccess	0.0	Go_X	1.0
453.298	1.0	go	0.0	Go_X	0.0
455.823	0.45	stopsuccess	0.0	Go_O	1.0
458.347	1.0	go	0.0	Go_X	0.0
460.871	1.0	go	0.0	Go_O	0.0
463.395	1.0	go	0.0	Go_O	0.0
465.919	1.0	go	0.735	Go_X	1.0
468.443	1.0	go	0.0	Go_O	0.0
470.968	1.0	go	0.0	Go_X	0.0
473.492	1.0	go	0.0	Go_X	0.0
476.016	1.0	go	0.0	Go_O	0.0
478.54	1.0	go	0.0	Go_O	0.0
481.064	0.5	stopsuccess	0.0	Go_X	1.0
483.589	1.0	go	0.0	Go_X	0.0
486.113	1.0	go	0.0	Go_X	0.0
488.637	1.0	go	0.0	Go_O	0.0
491.161	0.55	stopsuccess	0.0	Go_O	1.0
493.685	1.0	go	0.0	Go_O	0.0
496.209	1.0	go	0.0	Go_X	0.0
498.734	1.0	go	0.0	Go_X	0.0
501.258	1.0	go	0.0	Go_O	0.0
503.782	1.0	go	0.0	Go_O	0.0
506.306	1.0	go	0.0	Go_X	0.0
508.83	0.6	stopsuccess	0.0	Go_X	1.0
511.354	1.0	go	0.355	Go_O	1.0
513.879	1.0	go	0.472	Go_X	0.0
516.403	0.65	stopsuccess	0.0	Go_O	1.0
518.927	1.0	go	0.776	Go_X	1.0
521.451	1.0	go	0.0	Go_O	0.0
523.975	0.7	stopfail	0.454	Go_X	0.0
526.499	1.0	go	0.0	Go_O	0.0
529.024	0.65	stopsuccess	0.0	Go_O	1.0
531.548	1.0	go	0.663	Go_X	0.0
534.072	1.0	go	0.0	Go_X	0.0
536.596	1.0	go	0.0	Go_O	0.0
539.12	1.0	go	0.0	Go_O	0.0
541.644	1.0	go	0.0	Go_X	0.0
544.169	0.7	stopsuccess	0.0	Go_X	1.0
546.693	0.75	stopsuccess	0.0	Go_O	1.0
549.217	1.0	go	0.0	Go_X	0.0
551.741	1.0	go	0.0	Go_O	0.0
554.265	0.8	stopsuccess	0.0	Go_X	1.0
556.789	1.0	go	0.0	Go_O	0.0
559.314	1.0	go	0.0	Go_X	0.0
561.838	1.0	go	0.324	Go_X	0.0
564.362	1.0	go	0.408	Go_O	0.0
566.886	1.0	go	0.0	Go_X	0.0
569.41	1.0	go	0.669	Go_O	0.0
571.935	0.85	stopsuccess	0.0	Go_O	1.0
574.459	1.0	go	0.0	Go_X	0.0
576.983	1.0	go	0.0	Go_O	0.0
579.507	1.0	go	0.0	Go_X	0.0
582.031	1.0	go	0.0	Go_O	0.0
584.555	1.0	go	0.0	Go_O	0.0
587.08	0.9	stopsuccess	0.0	Go_X	1.0
589.604	1.0	go	0.0	Go_X	0.0
592.128	1.0	go	0.257	Go_O	0.0
594.652	1.0	go	0.52	Go_X	1.0
597.176	1.0	go	0.0	Go_O	0.0
599.7	0.95	stopsuccess	0.0	Go_O	1.0
602.225	1.0	go	0.0	Go_X	0.0
604.749	1.0	go	0.0	Go_X	0.0
607.273	1.0	stopsuccess	0.0	Go_X	1.0
609.814	1.0	go	0.0	Go_O	0.0
612.338	1.05	stopfail	0.4	Go_O	0.0
614.929	1.0	go	0.0	Go_X	0.0
617.453	1.0	go	0.0	Go_O	0.0
619.977	1.0	go	0.0	Go_X	0.0
622.502	1.0	go	0.0	Go_O	0.0
625.026	1.0	go	0.0	Go_O	0.0
627.55	1.0	go	0.0	Go_X	0.0
630.074	1.0	go	0.0	Go_X	0.0
632.598	1.0	stopsuccess	0.0	Go_X	1.0
635.139	1.0	go	0.0	Go_O	0.0
637.663	1.0	go	0.0	Go_O	0.0
640.187	1.0	go	0.0	Go_X	0.0
642.712	1.05	stopsuccess	0.0	Go_O	1.0
645.303	1.0	go	0.0	Go_O	0.0
647.827	1.0	go	0.0	Go_X	0.0
650.351	1.0	go	0.0	Go_X	0.0
652.875	1.0	go	0.0	Go_O	0.0
655.399	1.1	stopsuccess	0.0	Go_X	1.0
658.041	1.0	go	0.0	Go_X	0.0
660.565	1.0	go	0.0	Go_O	0.0
663.089	1.15	stopsuccess	0.0	Go_O	1.0
665.78	1.0	go	0.0	Go_X	0.0
668.304	1.0	go	0.0	Go_O	0.0
670.829	1.2	stopsuccess	0.0	Go_X	1.0
673.57	1.0	go	0.0	Go_O	0.0
676.094	1.0	go	0.197	Go_X	0.0
678.618	1.25	stopfail	0.35	Go_O	0.0
681.41	1.0	go	0.0	Go_X	0.0
683.934	1.0	go	0.0	Go_O	0.0
686.458	1.0	go	0.0	Go_O	0.0
688.983	1.0	go	0.0	Go_X	0.0
691.507	1.0	go	0.0	Go_O	0.0
694.031	1.0	go	0.0	Go_X	0.0
696.555	1.2	stopsuccess	0.0	Go_X	1.0
699.297	1.0	go	0.0	Go_X	0.0
701.821	1.25	stopsuccess	0.0	Go_O	1.0
704.612	1.0	go	0.0	Go_O	0.0
707.137	1.0	go	0.0	Go_X	0.0
709.661	1.0	go	0.0	Go_O	0.0
712.185	1.0	go	0.322	Go_X	1.0
714.709	1.0	go	0.0	Go_O	0.0
717.233	1.3	stopsuccess	0.0	Go_X	1.0
720.075	1.0	go	0.0	Go_X	0.0
722.599	1.0	go	0.0	Go_O	0.0
725.123	1.0	go	0.0	Go_O	0.0
727.647	1.35	stopsuccess	0.0	Go_O	1.0
730.539	1.4	stopsuccess	0.0	Go_X	1.0
733.482	1.45	stopsuccess	0.0	Go_O	1.0
736.474	1.0	go	0.0	Go_X	0.0
738.998	1.5	stopsuccess	0.0	Go_X	1.0
742.04	1.0	go	0.0	Go_O	0.0
744.564	1.0	go	0.0	Go_X	0.0
747.089	1.0	go	0.0	Go_O	0.0
749.613	1.0	go	0.0	Go_X	0.0
752.137	1.0	go	0.0	Go_X	0.0
754.661	1.0	go	0.0	Go_O	0.0
757.185	1.0	go	0.0	Go_X	0.0
759.709	1.0	go	0.0	Go_O	0.0
762.234	1.55	stopsuccess	0.0	Go_O	1.0
765.326	1.0	go	0.0	Go_X	0.0
767.85	1.0	go	0.0	Go_O	0.0
770.375	1.6	stopsuccess	0.0	Go_X	1.0
773.517	1.0	go	0.0	Go_O	0.0
776.041	1.0	go	0.0	Go_X	0.0
778.566	1.0	go	0.0	Go_O	0.0
781.09	1.0	go	0.0	Go_X	0.0
783.614	1.0	go	0.0	Go_O	0.0
786.138	1.65	stopsuccess	0.0	Go_O	1.0
789.331	1.0	go	0.0	Go_X	0.0
791.855	1.0	go	0.0	Go_O	0.0
794.379	1.0	go	0.0	Go_X	0.0
796.903	1.7	stopfail	0.565	Go_X	0.0
800.146	1.0	go	0.305	Go_X	1.0
802.671	1.65	stopsuccess	0.0	Go_O	1.0
805.863	1.0	go	0.0	Go_O	0.0
808.388	1.0	go	0.0	Go_O	0.0
810.912	1.0	go	0.0	Go_X	0.0
813.436	1.0	go	0.032	Go_O	0.0
815.96	1.0	go	0.0	Go_X	0.0
818.484	1.0	go	0.0	Go_X	0.0
821.008	1.0	go	0.0	Go_O	0.0
823.533	1.7	stopsuccess	0.0	Go_X	1.0
826.776	1.0	go	0.0	Go_O	0.0
829.3	1.0	go	0.0	Go_X	0.0
831.824	1.0	go	0.0	Go_O	0.0
834.348	1.0	go	0.352	Go_X	1.0
836.872	1.75	stopfail	0.294	Go_O	0.0
840.165	1.0	go	0.0	Go_O	0.0
842.69	1.7	stopsuccess	0.0	Go_X	1.0
845.933	1.0	go	0.0	Go_X	0.0
848.457	1.0	go	0.0	Go_O	0.0
850.981	1.75	stopsuccess	0.0	Go_O	1.0
854.274	1.0	go	0.0	Go_X	0.0
856.798	1.0	go	0.0	Go_X	0.0
859.322	1.0	go	0.0	Go_O	0.0
861.847	1.0	go	0.0	Go_X	0.0
864.387	1.0	go	0.0	Go_O	0.0
866.912	1.0	go	0.0	Go_O	0.0
869.436	1.0	go	0.0	Go_X	0.0
871.96	1.0	go	0.0	Go_X	0.0
874.484	1.0	go	0.0	Go_O	0.0
877.008	1.0	go	0.0	Go_X	0.0
879.532	1.8	stopsuccess	0.0	Go_X	1.0
882.876	1.0	go	0.0	Go_O	0.0
885.4	1.0	go	0.0	Go_O	0.0
887.924	1.85	stopsuccess	0.0	Go_O	1.0
891.317	1.0	go	0.0	Go_X	0.0
893.842	1.9	stopsuccess	0.0	Go_X	1.0
897.285	1.0	go	0.0	Go_O	0.0
899.809	1.0	go	0.0	Go_X	0.0
902.334	1.95	stopsuccess	0.0	Go_O	1.0
905.827	1.0	go	0.0	Go_O	0.0
908.351	2.0	stopfail	0.603	Go_X	0.0
911.895	1.0	go	0.618	Go_X	1.0
914.419	1.0	go	0.0	Go_O	0.0
916.944	1.0	go	0.267	Go_X	1.0
919.468	1.95	stopsuccess	0.0	Go_O	1.0
922.962	1.0	go	0.0	Go_O	0.0
925.486	1.0	go	0.0	Go_X	0.0
928.01	1.0	go	0.0	Go_X	0.0
930.534	1.0	go	0.005	Go_O	0.0
933.058	2.0	stopsuccess	0.0	Go_X	1.0
936.602	1.0	go	0.0	Go_O	0.0
939.126	1.0	go	0.0	Go_X	0.0
941.65	2.05	stopsuccess	0.0	Go_O	1.0
945.244	1.0	go	0.0	Go_X	0.0
947.769	1.0	go	0.0	Go_O	0.0
950.293	1.0	go	0.0	Go_X	0.0
952.817	1.0	go	0.0	Go_O	0.0
955.341	2.1	stopsuccess	0.0	Go_X	1.0
958.985	1.0	go	0.0	Go_X	0.0
961.51	2.15	stopsuccess	0.0	Go_O	1.0
965.204	1.0	go	0.0	Go_O	0.0
967.728	1.0	go	0.697	Go_O	1.0
970.252	2.2	stopfail	0.282	Go_X	0.0
973.997	1.0	go	0.0	Go_X	0.0
976.521	1.0	go	0.0	Go_X	0.0
979.045	1.0	go	0.0	Go_O	0.0
981.569	1.0	go	0.0	Go_O	0.0
984.093	2.15	stopsuccess	0.0	Go_O	1.0
987.788	1.0	go	0.0	Go_X	0.0
990.312	2.2	stopfail	0.315	Go_X	0.0
994.056	1.0	go	0.0	Go_X	0.0
996.58	1.0	go	0.004	Go_O	1.0
999.105	1.0	go	0.0	Go_O	0.0
1001.629	1.0	go	0.0	Go_X	0.0
1004.153	1.0	go	0.0	Go_O	0.0
1006.677	1.0	go	0.0	Go_X	0.0
1009.201	2.15	stopsuccess	0.0	Go_O	1.0
1012.896	1.0	go	0.0	Go_X	0.0
1015.42	1.0	go	0.0	Go_O	0.0
1017.944	2.2	stopsuccess	0.0	Go_X	1.0
1021.688	1.0	go	0.0	Go_X	0.0
1024.213	1.0	go	0.0	Go_O	0.0
1026.737	2.25	stopsuccess	0.0	Go_O	1.0
1030.531	1.0	go	0.0	Go_X	0.0
1033.056	1.0	go	0.0	Go_O	0.0
1035.58	1.0	go	0.0	Go_X	0.0
1038.104	1.0	go	0.0	Go_O	0.0
1040.628	2.3	stopsuccess	0.0	Go_X	1.0
1044.473	1.0	go	0.0	Go_O	0.0
1046.997	2.35	stopsuccess	0.0	Go_O	1.0
1050.892	1.0	go	0.0	Go_X	0.0
1053.416	1.0	go	0.0	Go_X	0.0
1055.94	1.0	go	0.0	Go_O	0.0
1058.464	1.0	go	0.0	Go_O	0.0
1060.989	1.0	go	0.0	Go_X	0.0
1063.513	2.4	stopsuccess	0.0	Go_X	1.0
1067.458	1.0	go	0.0	Go_O	0.0
1069.982	1.0	go	0.0	Go_X	0.0
1072.506	2.45	stopsuccess	0.0	Go_O	1.0
1076.501	2.5	stopsuccess	0.0	Go_X	1.0
1080.547	1.0	go	0.0	Go_X	0.0
1083.071	1.0	go	0.0	Go_O	0.0
1085.595	1.0	go	0.0	Go_X	0.0
1088.119	1.0	go	0.0	Go_O	0.0
1090.643	2.55	stopfail	0.391	Go_O	0.0
1094.739	1.0	go	0.063	Go_O	1.0
