onset	duration	trial_type	response_time	stim_file	accuracy
0.5210000000000008	1.0	go	0.411	Go_O	1.0
3.0549999999999926	1.0	go	0.286	Go_X	1.0
5.603999999999999	1.0	go	0.504	Go_X	1.0
8.137999999999991	1.0	go	0.346	Go_O	1.0
10.670999999999992	1.0	go	0.277	Go_O	0.0
13.203999999999994	1.0	go	0.328	Go_X	1.0
15.736999999999995	0.25	stopfail	0.314	Go_O	0.0
18.271	1.0	go	0.349	Go_X	1.0
20.819999999999993	0.2	stopsuccess	0.0	Go_X	1.0
23.354	1.0	go	0.291	Go_O	1.0
25.887	1.0	go	0.439	Go_O	1.0
28.42	1.0	go	0.4	Go_X	1.0
30.953000000000003	0.25	stopsuccess	0.0	Go_O	1.0
33.486999999999995	1.0	go	0.287	Go_O	1.0
36.019999999999996	1.0	go	0.304	Go_X	1.0
38.553	0.3	stopsuccess	0.0	Go_X	1.0
41.086	0.35	stopfail	0.307	Go_O	0.0
43.61999999999999	1.0	go	0.521	Go_X	1.0
46.169	1.0	go	0.407	Go_O	1.0
48.70299999999999	0.3	stopfail	0.402	Go_X	0.0
51.236000000000004	1.0	go	0.533	Go_X	1.0
53.76899999999999	1.0	go	0.376	Go_O	1.0
56.30200000000001	0.25	stopfail	0.335	Go_O	0.0
58.836	1.0	go	0.377	Go_O	1.0
61.368999999999986	1.0	go	0.501	Go_X	1.0
63.902	0.2	stopfail	0.292	Go_X	0.0
66.43499999999999	1.0	go	0.449	Go_X	1.0
68.96900000000001	1.0	go	0.388	Go_O	1.0
71.51799999999999	0.15	stopsuccess	0.0	Go_O	1.0
74.052	1.0	go	0.397	Go_O	1.0
76.585	1.0	go	0.351	Go_X	1.0
79.11800000000001	1.0	go	0.384	Go_O	1.0
81.651	1.0	go	0.545	Go_X	1.0
84.18499999999999	1.0	go	0.468	Go_X	1.0
86.718	0.2	stopfail	0.316	Go_X	0.0
89.25099999999999	1.0	go	0.5	Go_O	1.0
91.784	1.0	go	0.444	Go_X	1.0
94.318	1.0	go	0.439	Go_O	1.0
96.867	1.0	go	0.452	Go_X	1.0
99.401	1.0	go	0.488	Go_O	1.0
101.93400000000001	0.15	stopsuccess	0.0	Go_O	1.0
104.467	1.0	go	0.404	Go_O	1.0
106.99999999999999	1.0	go	0.25	Go_X	1.0
109.534	1.0	go	0.313	Go_X	1.0
112.067	1.0	go	0.442	Go_O	1.0
114.60000000000001	1.0	go	0.464	Go_O	0.0
117.133	1.0	go	0.483	Go_X	1.0
119.66699999999999	0.2	stopsuccess	0.0	Go_X	1.0
122.216	1.0	go	0.348	Go_O	1.0
124.74999999999999	1.0	go	0.41	Go_X	1.0
127.283	0.25	stopfail	0.373	Go_O	0.0
129.81599999999997	1.0	go	0.507	Go_X	1.0
132.349	0.2	stopsuccess	0.0	Go_X	1.0
134.88299999999998	0.25	stopfail	0.279	Go_O	0.0
137.416	1.0	go	0.514	Go_O	1.0
139.949	1.0	go	0.418	Go_O	1.0
142.48199999999997	1.0	go	0.442	Go_X	1.0
145.015	1.0	go	0.375	Go_O	1.0
147.54899999999998	0.2	stopfail	0.307	Go_X	0.0
150.082	1.0	go	0.388	Go_X	1.0
152.615	0.15	stopsuccess	0.0	Go_O	1.0
155.14800000000002	1.0	go	0.252	Go_O	1.0
157.68200000000002	1.0	go	0.415	Go_X	1.0
160.21499999999997	1.0	go	0.389	Go_X	1.0
162.748	1.0	go	0.322	Go_O	1.0
165.281	1.0	go	0.535	Go_O	1.0
167.815	1.0	go	0.471	Go_X	1.0
170.348	1.0	go	0.478	Go_O	1.0
172.88100000000003	1.0	go	0.459	Go_X	1.0
175.414	1.0	go	0.35	Go_O	1.0
177.94800000000004	0.2	stopsuccess	0.0	Go_X	1.0
180.497	1.0	go	0.342	Go_X	1.0
183.031	1.0	go	0.393	Go_X	1.0
185.56400000000002	1.0	go	0.523	Go_O	1.0
188.09700000000004	0.25	stopsuccess	0.0	Go_O	1.0
190.63	1.0	go	0.595	Go_X	0.0
193.164	1.0	go	0.587	Go_O	1.0
195.697	1.0	go	0.459	Go_O	1.0
198.23000000000002	1.0	go	0.357	Go_X	1.0
200.76300000000003	1.0	go	0.454	Go_X	1.0
203.29700000000003	1.0	go	0.483	Go_O	1.0
205.846	0.3	stopsuccess	0.0	Go_X	1.0
208.38	1.0	go	0.401	Go_X	1.0
210.913	1.0	go	0.299	Go_O	1.0
213.44600000000003	0.35	stopfail	0.418	Go_O	0.0
215.97899999999998	1.0	go	0.386	Go_O	1.0
218.51300000000003	1.0	go	0.35	Go_X	1.0
221.062	0.3	stopfail	0.414	Go_X	0.0
223.596	1.0	go	0.428	Go_O	1.0
226.12900000000002	0.25	stopfail	0.383	Go_O	0.0
228.66200000000003	1.0	go	0.322	Go_X	1.0
231.195	1.0	go	0.322	Go_X	1.0
233.72899999999998	1.0	go	0.477	Go_O	1.0
236.262	1.0	go	0.451	Go_X	1.0
238.79500000000002	1.0	go	0.36	Go_O	1.0
241.32800000000003	0.2	stopsuccess	0.0	Go_X	1.0
243.86200000000002	0.25	stopsuccess	0.0	Go_O	1.0
246.411	1.0	go	0.378	Go_O	1.0
248.945	1.0	go	0.435	Go_X	1.0
251.478	0.3	stopfail	0.411	Go_X	0.0
254.01100000000002	1.0	go	0.446	Go_X	0.0
256.54400000000004	1.0	go	0.464	Go_O	1.0
259.07800000000003	1.0	go	0.443	Go_O	1.0
261.611	1.0	go	0.685	Go_X	1.0
264.144	1.0	go	0.382	Go_X	1.0
266.677	1.0	go	0.42	Go_O	1.0
269.211	0.25	stopsuccess	0.0	Go_O	1.0
271.76	1.0	go	0.371	Go_O	1.0
274.29400000000004	1.0	go	0.412	Go_X	1.0
276.827	1.0	go	0.745	Go_O	1.0
279.36	1.0	go	0.334	Go_X	1.0
281.89300000000003	1.0	go	0.563	Go_X	1.0
284.427	0.3	stopsuccess	0.0	Go_X	1.0
286.96000000000004	1.0	go	0.36	Go_O	1.0
289.493	1.0	go	0.512	Go_X	1.0
292.026	1.0	go	0.312	Go_O	1.0
294.56	1.0	go	0.418	Go_O	1.0
297.10900000000004	0.35	stopfail	0.402	Go_O	0.0
299.64300000000003	1.0	go	0.321	Go_X	1.0
302.176	1.0	go	0.405	Go_X	1.0
304.709	0.3	stopfail	0.456	Go_X	0.0
307.242	1.0	go	0.462	Go_O	1.0
309.776	0.25	stopsuccess	0.0	Go_O	1.0
312.309	1.0	go	0.441	Go_O	1.0
314.842	1.0	go	0.323	Go_X	1.0
317.375	1.0	go	0.351	Go_O	1.0
319.908	1.0	go	0.35	Go_X	1.0
322.442	1.0	go	0.361	Go_X	1.0
324.975	1.0	go	0.578	Go_O	1.0
327.50800000000004	1.0	go	0.318	Go_O	1.0
330.041	0.3	stopfail	0.413	Go_X	0.0
332.575	1.0	go	0.376	Go_X	1.0
335.108	1.0	go	0.393	Go_X	1.0
337.641	1.0	go	0.393	Go_O	1.0
340.17400000000004	0.25	stopfail	0.39	Go_O	0.0
342.708	1.0	go	0.509	Go_X	1.0
345.241	1.0	go	0.511	Go_O	1.0
347.774	1.0	go	0.514	Go_O	1.0
350.307	1.0	go	0.577	Go_X	1.0
352.841	0.2	stopsuccess	0.0	Go_X	1.0
355.39	1.0	go	0.383	Go_X	1.0
357.92400000000004	1.0	go	0.474	Go_O	1.0
360.457	0.25	stopfail	0.362	Go_O	0.0
362.99	1.0	go	0.318	Go_X	1.0
365.523	1.0	go	0.258	Go_O	1.0
368.057	0.2	stopsuccess	0.0	Go_X	1.0
370.59000000000003	1.0	go	0.225	Go_X	1.0
373.123	1.0	go	0.387	Go_O	1.0
375.656	0.25	stopfail	0.35	Go_O	0.0
378.189	1.0	go	0.626	Go_O	1.0
380.723	1.0	go	0.261	Go_X	1.0
383.25600000000003	1.0	go	0.349	Go_X	1.0
385.789	1.0	go	0.374	Go_O	1.0
388.322	1.0	go	0.293	Go_X	1.0
390.856	1.0	go	0.297	Go_O	1.0
393.389	0.2	stopfail	0.338	Go_X	0.0
395.922	1.0	go	0.575	Go_X	1.0
398.455	0.15	stopsuccess	0.0	Go_O	1.0
400.98900000000003	1.0	go	0.4	Go_O	1.0
403.522	1.0	go	0.405	Go_X	1.0
406.055	1.0	go	0.507	Go_O	1.0
408.588	1.0	go	0.468	Go_X	1.0
411.122	1.0	go	0.374	Go_O	1.0
413.671	0.2	stopsuccess	0.0	Go_X	1.0
416.205	1.0	go	0.395	Go_X	1.0
418.738	1.0	go	0.42	Go_O	1.0
421.271	1.0	go	0.299	Go_O	1.0
423.80400000000003	0.25	stopfail	0.289	Go_O	0.0
426.338	0.2	stopsuccess	0.0	Go_X	1.0
428.87100000000004	0.25	stopfail	0.307	Go_O	0.0
431.40400000000005	1.0	go	0.883	Go_X	1.0
433.93700000000007	0.2	stopsuccess	0.0	Go_X	1.0
436.47100000000006	1.0	go	0.509	Go_X	1.0
439.02000000000004	1.0	go	0.384	Go_O	1.0
441.55400000000003	1.0	go	0.537	Go_O	1.0
444.08700000000005	1.0	go	0.45	Go_X	1.0
446.62000000000006	1.0	go	0.334	Go_X	1.0
449.15299999999996	1.0	go	0.488	Go_O	1.0
451.68700000000007	1.0	go	0.514	Go_X	1.0
454.21999999999997	1.0	go	0.537	Go_O	1.0
456.753	0.25	stopfail	0.388	Go_O	0.0
459.286	1.0	go	0.292	Go_X	1.0
461.819	1.0	go	0.529	Go_O	1.0
464.353	0.2	stopfail	0.311	Go_X	0.0
466.886	1.0	go	0.443	Go_X	1.0
469.41900000000004	1.0	go	0.452	Go_O	1.0
471.95200000000006	1.0	go	0.37	Go_X	1.0
474.48600000000005	1.0	go	0.39	Go_O	1.0
477.01900000000006	1.0	go	0.342	Go_O	0.0
479.55199999999996	0.15	stopsuccess	0.0	Go_O	1.0
482.085	1.0	go	0.745	Go_X	1.0
484.61899999999997	1.0	go	0.421	Go_O	1.0
487.152	1.0	go	0.494	Go_X	1.0
489.685	0.2	stopfail	0.317	Go_X	0.0
492.218	1.0	go	0.401	Go_O	1.0
494.752	0.15	stopsuccess	0.0	Go_O	1.0
497.301	1.0	go	0.304	Go_X	1.0
499.835	1.0	go	0.284	Go_X	1.0
502.368	1.0	go	0.378	Go_O	1.0
504.901	1.0	go	0.409	Go_O	1.0
507.434	1.0	go	0.409	Go_X	1.0
509.968	1.0	go	0.381	Go_X	1.0
512.501	1.0	go	0.375	Go_O	1.0
515.034	0.2	stopsuccess	0.0	Go_X	1.0
517.567	1.0	go	0.389	Go_O	1.0
520.101	1.0	go	0.35	Go_X	1.0
522.65	1.0	go	0.368	Go_X	1.0
525.184	1.0	go	0.308	Go_O	1.0
527.717	0.25	stopfail	0.412	Go_O	0.0
530.25	1.0	go	0.311	Go_X	1.0
532.7829999999999	0.2	stopfail	0.392	Go_X	0.0
535.317	1.0	go	0.378	Go_O	1.0
537.8499999999999	1.0	go	0.56	Go_O	1.0
540.3829999999999	0.15	stopsuccess	0.0	Go_O	1.0
542.9159999999999	1.0	go	0.346	Go_X	1.0
545.449	1.0	go	0.405	Go_X	1.0
547.983	1.0	go	0.389	Go_O	1.0
550.516	1.0	go	0.44	Go_O	1.0
553.049	1.0	go	0.439	Go_X	1.0
555.582	1.0	go	0.411	Go_O	1.0
558.116	1.0	go	0.389	Go_X	1.0
560.649	1.0	go	0.358	Go_X	1.0
563.1819999999999	1.0	go	0.357	Go_O	1.0
565.7149999999999	1.0	go	0.4	Go_X	1.0
568.2489999999999	0.2	stopfail	0.36	Go_X	0.0
570.7819999999999	1.0	go	0.531	Go_O	1.0
573.3149999999999	1.0	go	0.375	Go_X	1.0
575.848	0.15	stopsuccess	0.0	Go_O	1.0
578.382	1.0	go	0.363	Go_O	1.0
580.9309999999999	0.2	stopfail	0.404	Go_X	0.0
583.4649999999999	1.0	go	0.3	Go_X	1.0
585.9979999999999	1.0	go	0.32	Go_O	1.0
588.531	0.15	stopsuccess	0.0	Go_O	1.0
591.064	1.0	go	0.497	Go_O	1.0
593.598	0.2	stopsuccess	0.0	Go_X	1.0
596.131	1.0	go	0.603	Go_X	0.0
598.664	1.0	go	0.404	Go_O	1.0
601.197	1.0	go	0.395	Go_X	1.0
603.7299999999999	0.25	stopsuccess	0.0	Go_O	1.0
606.264	1.0	go	0.3	Go_O	1.0
608.7969999999999	1.0	go	0.345	Go_X	1.0
611.3299999999999	1.0	go	0.324	Go_O	0.0
613.8629999999999	1.0	go	0.508	Go_X	1.0
616.3969999999999	0.3	stopfail	0.546	Go_X	0.0
618.93	1.0	go	0.38	Go_X	1.0
621.463	1.0	go	0.377	Go_O	1.0
623.996	0.25	stopfail	0.304	Go_O	0.0
626.53	1.0	go	0.406	Go_O	1.0
629.063	1.0	go	0.401	Go_X	1.0
631.596	1.0	go	0.555	Go_O	1.0
634.1289999999999	1.0	go	0.287	Go_X	1.0
636.6619999999999	0.2	stopfail	0.341	Go_X	0.0
639.1959999999999	1.0	go	0.444	Go_X	1.0
641.7289999999999	0.15	stopsuccess	0.0	Go_O	1.0
644.262	1.0	go	0.256	Go_O	1.0
646.795	1.0	go	0.43	Go_O	1.0
649.329	0.2	stopfail	0.324	Go_X	0.0
651.862	1.0	go	0.475	Go_X	1.0
654.395	1.0	go	0.288	Go_X	1.0
656.928	1.0	go	0.357	Go_O	1.0
659.462	1.0	go	0.461	Go_X	1.0
661.995	0.15	stopsuccess	0.0	Go_O	1.0
664.5279999999999	1.0	go	0.39	Go_O	1.0
667.0609999999999	0.2	stopfail	0.44	Go_X	0.0
669.5949999999999	1.0	go	0.306	Go_O	1.0
672.144	1.0	go	0.252	Go_X	1.0
674.678	1.0	go	0.35	Go_O	1.0
677.2109999999999	1.0	go	0.32	Go_X	0.0
679.7439999999999	1.0	go	0.91	Go_O	1.0
682.2769999999999	1.0	go	0.375	Go_X	1.0
684.8109999999999	0.15	stopfail	0.599	Go_O	0.0
687.3439999999999	1.0	go	0.0	Go_O	0.0
689.877	1.0	go	0.329	Go_X	1.0
692.41	0.1	stopsuccess	0.0	Go_X	1.0
694.944	1.0	go	0.287	Go_X	0.0
697.4929999999999	1.0	go	0.37	Go_O	1.0
700.0269999999999	0.15	stopsuccess	0.0	Go_O	1.0
702.56	1.0	go	0.241	Go_X	1.0
705.093	1.0	go	0.418	Go_O	1.0
707.626	1.0	go	0.442	Go_X	1.0
710.16	1.0	go	0.461	Go_O	1.0
712.693	0.2	stopfail	0.274	Go_X	0.0
715.226	1.0	go	0.489	Go_X	1.0
717.7589999999999	0.15	stopsuccess	0.0	Go_O	1.0
720.2919999999999	1.0	go	0.269	Go_O	1.0
722.8259999999999	1.0	go	0.442	Go_O	1.0
725.3589999999999	1.0	go	0.356	Go_X	1.0
727.8919999999999	1.0	go	0.333	Go_X	1.0
730.425	1.0	go	0.382	Go_O	1.0
732.959	0.2	stopsuccess	0.0	Go_X	1.0
735.492	1.0	go	0.331	Go_X	1.0
738.025	1.0	go	0.377	Go_O	1.0
740.558	0.25	stopsuccess	0.0	Go_O	1.0
743.092	0.3	stopfail	0.474	Go_X	0.0
745.625	1.0	go	0.533	Go_X	1.0
748.1579999999999	1.0	go	0.416	Go_O	1.0
750.6909999999999	1.0	go	0.362	Go_X	1.0
753.2249999999999	1.0	go	0.486	Go_O	1.0
755.774	0.25	stopsuccess	0.0	Go_O	1.0
758.308	1.0	go	0.404	Go_O	1.0
