onset	duration	trial_type	response_time	stim_file	accuracy
496.123	1.0	go	0.0	Go_X	0.0
498.714	1.0	go	0.493	Go_O	1.0
501.238	1.0	go	0.331	Go_O	1.0
503.762	1.0	go	0.405	Go_X	1.0
506.287	1.0	go	0.367	Go_X	1.0
508.811	1.0	go	0.303	Go_O	1.0
511.335	0.25	stopfail	0.342	Go_O	0.0
513.859	1.0	go	0.34	Go_O	1.0
516.383	0.2	stopfail	0.26	Go_X	0.0
518.907	1.0	go	0.54	Go_X	1.0
521.432	1.0	go	0.428	Go_X	1.0
523.956	1.0	go	0.419	Go_O	1.0
526.48	0.15	stopsuccess	0.0	Go_O	1.0
529.004	1.0	go	0.229	Go_X	1.0
531.528	1.0	go	0.656	Go_O	1.0
534.052	0.2	stopsuccess	0.0	Go_X	1.0
536.576	0.25	stopfail	0.261	Go_O	0.0
539.101	1.0	go	0.353	Go_X	0.0
541.625	1.0	go	0.353	Go_O	1.0
544.149	0.2	stopsuccess	0.0	Go_X	1.0
546.673	1.0	go	0.407	Go_X	1.0
549.197	1.0	go	0.278	Go_O	1.0
551.721	0.25	stopfail	0.322	Go_O	0.0
554.246	1.0	go	0.382	Go_O	1.0
556.77	1.0	go	0.402	Go_X	1.0
559.294	0.2	stopsuccess	0.0	Go_X	1.0
561.818	1.0	go	0.479	Go_X	1.0
564.342	1.0	go	0.522	Go_O	1.0
566.866	0.25	stopfail	0.379	Go_O	0.0
569.391	1.0	go	0.443	Go_X	1.0
571.915	1.0	go	0.772	Go_O	1.0
574.439	1.0	go	0.269	Go_X	1.0
576.963	1.0	go	0.504	Go_O	1.0
579.487	1.0	go	0.471	Go_O	1.0
582.011	0.2	stopsuccess	0.0	Go_X	1.0
584.536	1.0	go	0.333	Go_X	0.0
587.06	1.0	go	0.377	Go_O	1.0
589.584	1.0	go	0.627	Go_X	1.0
592.108	1.0	go	0.358	Go_X	1.0
594.632	1.0	go	0.379	Go_O	1.0
597.156	0.25	stopsuccess	0.0	Go_O	1.0
599.681	1.0	go	0.319	Go_X	1.0
602.205	1.0	go	0.464	Go_O	1.0
604.729	1.0	go	0.29	Go_X	1.0
607.253	1.0	go	0.316	Go_O	1.0
609.777	1.0	go	0.293	Go_X	1.0
612.301	1.0	go	0.334	Go_O	1.0
614.825	0.3	stopfail	0.326	Go_X	0.0
617.35	1.0	go	0.279	Go_O	1.0
619.874	1.0	go	0.544	Go_X	1.0
622.398	0.25	stopfail	0.262	Go_O	0.0
624.922	1.0	go	0.289	Go_O	1.0
627.446	0.2	stopfail	0.258	Go_X	0.0
629.97	0.15	stopfail	0.264	Go_O	0.0
632.495	1.0	go	0.752	Go_X	1.0
635.019	1.0	go	0.386	Go_X	1.0
637.543	1.0	go	0.276	Go_O	1.0
640.067	1.0	go	0.309	Go_X	1.0
642.591	0.1	stopsuccess	0.0	Go_X	1.0
645.115	1.0	go	0.36	Go_O	1.0
647.64	0.15	stopsuccess	0.0	Go_O	1.0
650.164	1.0	go	0.441	Go_X	1.0
652.688	1.0	go	0.577	Go_O	1.0
655.212	1.0	go	0.555	Go_O	1.0
657.736	1.0	go	0.386	Go_X	1.0
660.26	1.0	go	0.47	Go_O	1.0
662.785	1.0	go	0.407	Go_X	1.0
665.309	1.0	go	0.393	Go_O	1.0
667.833	1.0	go	0.489	Go_X	1.0
670.357	1.0	go	0.547	Go_X	1.0
672.881	0.2	stopfail	0.442	Go_X	0.0
675.405	1.0	go	0.499	Go_O	1.0
677.93	1.0	go	0.393	Go_X	1.0
680.454	1.0	go	0.3	Go_O	1.0
682.978	0.15	stopfail	0.298	Go_O	0.0
685.502	1.0	go	0.359	Go_X	0.0
688.026	1.0	go	0.503	Go_O	1.0
690.55	1.0	go	0.34	Go_X	0.0
693.074	1.0	go	0.342	Go_O	1.0
695.599	1.0	go	0.549	Go_O	1.0
698.123	1.0	go	0.394	Go_X	1.0
700.647	0.1	stopsuccess	0.0	Go_X	1.0
703.171	1.0	go	0.566	Go_X	1.0
705.695	1.0	go	0.4	Go_O	1.0
708.219	0.15	stopsuccess	0.0	Go_O	1.0
710.744	1.0	go	0.354	Go_X	1.0
713.268	1.0	go	0.449	Go_O	1.0
715.792	0.2	stopsuccess	0.0	Go_X	1.0
718.316	1.0	go	0.468	Go_X	1.0
720.84	0.25	stopsuccess	0.0	Go_O	1.0
723.364	1.0	go	0.362	Go_O	1.0
725.889	1.0	go	0.431	Go_O	1.0
728.413	1.0	go	0.424	Go_X	1.0
730.937	1.0	go	0.544	Go_O	1.0
733.461	1.0	go	0.586	Go_X	1.0
735.985	0.3	stopsuccess	0.0	Go_X	1.0
738.509	0.35	stopfail	0.361	Go_O	0.0
741.034	1.0	go	0.427	Go_X	1.0
743.558	1.0	go	0.64	Go_O	1.0
746.082	0.3	stopfail	0.37	Go_X	0.0
748.606	1.0	go	0.831	Go_X	1.0
751.13	1.0	go	0.263	Go_O	1.0
753.654	1.0	go	0.238	Go_X	1.0
756.178	1.0	go	0.709	Go_O	1.0
758.703	1.0	go	0.356	Go_X	1.0
761.227	1.0	go	0.324	Go_O	1.0
763.751	0.25	stopfail	0.323	Go_O	0.0
766.275	1.0	go	0.34	Go_X	1.0
768.799	1.0	go	0.469	Go_O	1.0
771.323	1.0	go	0.435	Go_O	1.0
773.848	1.0	go	0.318	Go_X	0.0
776.372	1.0	go	0.604	Go_O	1.0
778.896	0.2	stopfail	0.285	Go_X	0.0
781.42	1.0	go	0.258	Go_X	0.0
783.944	1.0	go	0.401	Go_X	1.0
786.468	1.0	go	0.222	Go_O	1.0
788.993	1.0	go	0.335	Go_X	1.0
791.517	0.15	stopsuccess	0.0	Go_O	1.0
794.041	1.0	go	0.354	Go_O	1.0
796.565	1.0	go	0.246	Go_X	1.0
799.089	0.2	stopfail	0.352	Go_X	0.0
801.613	1.0	go	0.518	Go_O	1.0
804.138	0.15	stopsuccess	0.0	Go_O	1.0
806.662	1.0	go	0.338	Go_X	1.0
809.186	1.0	go	0.357	Go_O	1.0
811.71	1.0	go	0.574	Go_O	1.0
814.234	1.0	go	0.326	Go_X	1.0
816.758	1.0	go	0.347	Go_X	0.0
819.283	1.0	go	0.478	Go_O	1.0
821.807	1.0	go	0.367	Go_O	1.0
824.331	0.2	stopsuccess	0.0	Go_X	1.0
826.855	1.0	go	0.314	Go_X	0.0
829.379	1.0	go	0.315	Go_X	0.0
831.903	1.0	go	0.292	Go_O	1.0
834.427	0.25	stopfail	0.333	Go_O	0.0
836.952	1.0	go	0.35	Go_X	1.0
839.476	1.0	go	0.44	Go_O	1.0
842.0	1.0	go	0.425	Go_O	1.0
844.524	1.0	go	0.495	Go_X	1.0
847.048	0.2	stopfail	0.25	Go_X	0.0
849.572	1.0	go	0.394	Go_X	1.0
852.097	1.0	go	0.44	Go_O	1.0
854.621	0.15	stopsuccess	0.0	Go_O	1.0
857.145	1.0	go	0.624	Go_X	1.0
859.669	1.0	go	0.258	Go_O	1.0
862.193	0.2	stopfail	0.419	Go_X	0.0
864.717	1.0	go	0.67	Go_X	1.0
867.242	1.0	go	0.716	Go_O	1.0
869.766	0.15	stopsuccess	0.0	Go_O	1.0
872.29	1.0	go	0.335	Go_O	1.0
874.814	1.0	go	0.251	Go_X	1.0
877.338	1.0	go	0.901	Go_X	1.0
879.862	1.0	go	0.281	Go_O	1.0
882.387	1.0	go	0.403	Go_O	1.0
884.911	1.0	go	0.285	Go_X	1.0
887.435	0.2	stopfail	0.35	Go_X	0.0
889.959	1.0	go	0.236	Go_O	1.0
892.483	0.15	stopfail	0.313	Go_O	0.0
895.007	1.0	go	0.242	Go_X	1.0
897.532	1.0	go	0.241	Go_O	1.0
900.056	1.0	go	0.414	Go_X	0.0
902.58	1.0	go	0.338	Go_X	1.0
905.104	1.0	go	0.252	Go_O	1.0
907.628	0.1	stopsuccess	0.0	Go_X	1.0
910.152	1.0	go	0.459	Go_X	1.0
912.676	1.0	go	0.153	Go_O	1.0
915.201	1.0	go	0.187	Go_X	1.0
917.725	0.15	stopsuccess	0.0	Go_O	1.0
920.249	0.2	stopfail	0.336	Go_X	0.0
922.773	0.15	stopfail	0.36	Go_O	0.0
925.297	1.0	go	0.337	Go_O	1.0
927.821	0.1	stopsuccess	0.0	Go_X	1.0
930.346	1.0	go	0.496	Go_X	1.0
932.87	1.0	go	0.178	Go_O	1.0
935.394	1.0	go	0.336	Go_O	1.0
937.918	1.0	go	0.047	Go_X	1.0
940.442	1.0	go	0.266	Go_X	0.0
942.966	1.0	go	0.255	Go_O	1.0
945.491	1.0	go	0.458	Go_X	1.0
948.015	1.0	go	0.367	Go_O	1.0
950.539	0.15	stopsuccess	0.0	Go_O	1.0
953.063	1.0	go	0.369	Go_X	1.0
955.587	1.0	go	0.464	Go_O	1.0
958.111	0.2	stopfail	0.295	Go_X	0.0
960.636	1.0	go	0.48	Go_X	1.0
963.16	1.0	go	0.572	Go_O	1.0
965.684	1.0	go	0.278	Go_O	1.0
968.208	1.0	go	0.367	Go_X	0.0
970.732	1.0	go	0.329	Go_X	1.0
973.256	0.15	stopfail	0.304	Go_O	0.0
975.78	1.0	go	0.291	Go_O	1.0
978.305	1.0	go	0.463	Go_X	1.0
980.829	1.0	go	0.272	Go_O	1.0
983.353	0.1	stopfail	0.111	Go_X	0.0
985.877	1.0	go	0.216	Go_O	1.0
988.401	0.05	stopsuccess	0.0	Go_O	1.0
990.925	1.0	go	0.217	Go_X	1.0
993.45	1.0	go	0.768	Go_X	1.0
995.974	1.0	go	0.189	Go_O	1.0
998.498	1.0	go	0.226	Go_X	1.0
1001.022	1.0	go	0.234	Go_O	1.0
1003.546	1.0	go	0.38	Go_X	1.0
1006.07	1.0	go	0.619	Go_O	1.0
1008.595	0.1	stopfail	0.151	Go_X	0.0
1011.119	1.0	go	0.0	Go_O	0.0
1013.643	1.0	go	0.213	Go_X	1.0
1016.167	1.0	go	0.343	Go_O	1.0
1018.691	1.0	go	0.315	Go_X	0.0
1021.215	0.05	stopsuccess	0.0	Go_O	1.0
1023.74	1.0	go	0.235	Go_X	1.0
1026.264	0.1	stopsuccess	0.0	Go_X	1.0
1028.788	1.0	go	0.388	Go_O	1.0
1031.312	1.0	go	0.309	Go_O	1.0
1033.836	0.15	stopfail	0.256	Go_O	0.0
1036.36	1.0	go	0.413	Go_X	0.0
1038.885	1.0	go	0.294	Go_X	0.0
1041.409	1.0	go	0.295	Go_O	1.0
1043.933	1.0	go	0.337	Go_O	0.0
1046.457	1.0	go	0.417	Go_X	1.0
1048.981	1.0	go	0.515	Go_X	1.0
1051.505	1.0	go	0.281	Go_O	1.0
1054.029	1.0	go	0.302	Go_O	0.0
1056.554	1.0	go	0.311	Go_X	0.0
1059.078	1.0	go	0.306	Go_X	1.0
1061.602	0.1	stopsuccess	0.0	Go_X	1.0
1064.126	1.0	go	0.312	Go_O	1.0
1066.65	1.0	go	0.561	Go_O	1.0
1069.174	0.15	stopsuccess	0.0	Go_O	1.0
1071.699	1.0	go	0.42	Go_X	0.0
1074.223	0.2	stopfail	0.373	Go_X	0.0
1076.747	1.0	go	0.514	Go_X	1.0
1079.271	1.0	go	0.333	Go_O	1.0
1081.795	0.15	stopsuccess	0.0	Go_O	1.0
1084.319	1.0	go	0.342	Go_X	1.0
1086.844	0.2	stopfail	0.346	Go_X	0.0
1089.368	1.0	go	0.325	Go_O	1.0
1091.892	1.0	go	0.265	Go_X	1.0
1094.416	1.0	go	0.267	Go_O	1.0
1096.94	0.15	stopsuccess	0.0	Go_O	1.0
1099.464	1.0	go	0.293	Go_O	1.0
1101.989	1.0	go	0.386	Go_X	1.0
1104.513	1.0	go	0.365	Go_O	1.0
1107.037	1.0	go	0.426	Go_X	1.0
1109.561	0.2	stopsuccess	0.0	Go_X	1.0
1112.085	1.0	go	0.336	Go_X	1.0
1114.609	1.0	go	0.517	Go_O	1.0
1117.134	0.25	stopfail	0.291	Go_O	0.0
1119.658	1.0	go	0.33	Go_O	1.0
1122.182	1.0	go	0.16	Go_X	1.0
1124.706	1.0	go	0.109	Go_O	1.0
1127.23	1.0	go	0.388	Go_X	0.0
1129.754	0.2	stopfail	0.377	Go_X	0.0
1132.278	1.0	go	0.387	Go_X	0.0
1134.803	0.15	stopfail	0.318	Go_O	0.0
1137.327	1.0	go	0.392	Go_O	1.0
1139.851	1.0	go	0.265	Go_X	1.0
1142.375	0.1	stopsuccess	0.0	Go_X	1.0
1144.899	1.0	go	0.325	Go_O	1.0
1147.423	1.0	go	0.419	Go_O	1.0
1149.948	1.0	go	0.197	Go_X	1.0
1152.472	1.0	go	0.128	Go_O	1.0
1154.996	0.15	stopsuccess	0.0	Go_O	1.0
1157.52	1.0	go	0.391	Go_X	1.0
1160.044	0.2	stopfail	0.277	Go_X	0.0
1162.568	1.0	go	0.437	Go_X	1.0
1165.093	1.0	go	0.394	Go_O	1.0
1167.617	1.0	go	0.342	Go_O	1.0
1170.141	1.0	go	0.305	Go_X	1.0
1172.665	1.0	go	0.362	Go_X	1.0
1175.189	1.0	go	0.525	Go_O	1.0
1177.713	0.15	stopsuccess	0.0	Go_O	1.0
1180.238	1.0	go	0.141	Go_X	1.0
1182.762	1.0	go	0.214	Go_O	1.0
1185.286	0.2	stopfail	0.418	Go_X	0.0
1187.81	1.0	go	0.331	Go_O	1.0
1190.334	1.0	go	0.339	Go_X	0.0
1192.858	0.15	stopfail	0.375	Go_O	0.0
1195.382	1.0	go	0.337	Go_O	1.0
1197.907	1.0	go	0.217	Go_X	1.0
1200.431	1.0	go	0.391	Go_X	1.0
1202.955	1.0	go	0.539	Go_O	1.0
1205.479	0.1	stopfail	0.257	Go_X	0.0
1208.003	1.0	go	0.373	Go_X	0.0
1210.527	0.05	stopsuccess	0.0	Go_O	1.0
1213.052	1.0	go	0.34	Go_O	1.0
1215.576	1.0	go	0.205	Go_X	1.0
1218.1	1.0	go	0.373	Go_O	1.0
1220.624	1.0	go	0.488	Go_O	1.0
1223.148	1.0	go	0.298	Go_X	1.0
1225.672	0.1	stopfail	0.05	Go_X	0.0
1228.197	1.0	go	0.204	Go_X	0.0
1230.721	1.0	go	0.376	Go_O	1.0
1233.245	0.05	stopsuccess	0.0	Go_O	1.0
1235.769	0.1	stopfail	0.262	Go_X	0.0
1238.293	1.0	go	0.5	Go_X	1.0
1240.817	1.0	go	0.264	Go_O	1.0
1243.342	1.0	go	0.366	Go_O	1.0
1245.866	1.0	go	0.212	Go_X	1.0
1248.39	0.05	stopfail	0.204	Go_O	0.0
1250.914	1.0	go	0.257	Go_X	1.0
