frame	onset	duration	trial_type	event_type	response_type	response_time	stim_file	accuracy
0	42.862		loss-reward	ImageDisplay1		0.0		
0	44.835	0.75	loss-reward	StartDisplay				
0	45.587		loss-reward	ImageDisplay2		0.0		
0	48.847	1.6	loss-reward	ChoiceDisplay	1	0.73	1	1
0	49.599	0.87	loss-reward	ChosenDisplay		0.0		
0	50.452	0.25	loss-reward	TurnDisplay				
0	50.702	0.75	loss-reward	OutcomeDisplay				
1	51.454		control-reward	ImageDisplay1		0.0		
1	53.694	0.75	control-reward	StartDisplay				
1	54.447		control-reward	ImageDisplay2		0.0		
1	57.456	1.6	control-reward	ChoiceDisplay	1	0.616	1	1
1	58.091	0.984	control-reward	ChosenDisplay		0.0		
1	59.06	0.25	control-reward	TurnDisplay				
1	59.311	0.75	control-reward	OutcomeDisplay				
2	60.063		win-noreward	ImageDisplay1		0.0		
2	62.053	0.75	win-noreward	StartDisplay				
2	62.805		win-noreward	ImageDisplay2		0.0		
2	66.065	1.6	win-noreward	ChoiceDisplay	1	0.938	1	1
2	67.017	0.662	win-noreward	ChosenDisplay		0.0		
2	67.669	0.25	win-noreward	TurnDisplay				
2	67.92	0.75	win-noreward	OutcomeDisplay				
3	68.672		control-reward	ImageDisplay1		0.0		
3	70.662	0.75	control-reward	StartDisplay				
3	71.414		control-reward	ImageDisplay2		0.0		
3	74.674	1.6	control-reward	ChoiceDisplay	1	0.836	1	1
3	75.526	0.764	control-reward	ChosenDisplay		0.0		
3	76.278	0.25	control-reward	TurnDisplay				
3	76.529	0.75	control-reward	OutcomeDisplay				
4	77.281		control-noreward	ImageDisplay1		0.0		
4	79.521	0.75	control-noreward	StartDisplay				
4	80.273		control-noreward	ImageDisplay2		0.0		
4	83.282	1.6	control-noreward	ChoiceDisplay		0.0		
4	84.87	0.0	control-noreward	ChosenDisplay		0.0		
4	84.887	0.25	control-noreward	TurnDisplay				
4	85.121	0.75	control-noreward	OutcomeDisplay				
5	85.873		loss-noreward	ImageDisplay1		0.0		
5	87.879	0.75	loss-noreward	StartDisplay				
5	88.632		loss-noreward	ImageDisplay2		0.0		
5	91.875	1.6	loss-noreward	ChoiceDisplay	1	0.323	1	1
5	92.209	1.277	loss-noreward	ChosenDisplay		0.0		
5	93.479	0.25	loss-noreward	TurnDisplay				
5	93.73	0.75	loss-noreward	OutcomeDisplay				
6	94.482		control-reward	ImageDisplay1		0.0		
6	96.472	0.75	control-reward	StartDisplay				
6	97.224		control-reward	ImageDisplay2		0.0		
6	100.484	1.6	control-reward	ChoiceDisplay	1	0.879	1	1
6	101.386	0.721	control-reward	ChosenDisplay		0.0		
6	102.088	0.25	control-reward	TurnDisplay				
6	102.339	0.75	control-reward	OutcomeDisplay				
7	103.091		win-reward	ImageDisplay1		0.0		
7	105.081	0.75	win-reward	StartDisplay				
7	105.833		win-reward	ImageDisplay2		0.0		
7	109.093	1.6	win-reward	ChoiceDisplay	1	0.66	1	1
7	109.778	0.94	win-reward	ChosenDisplay		0.0		
7	110.697	0.25	win-reward	TurnDisplay				
7	110.948	0.75	win-reward	OutcomeDisplay				
8	111.7		loss-noreward	ImageDisplay1		0.0		
8	113.69	0.75	loss-noreward	StartDisplay				
8	114.442		loss-noreward	ImageDisplay2		0.0		
8	117.701	1.6	loss-noreward	ChoiceDisplay	1	0.774	1	1
8	118.487	0.826	loss-noreward	ChosenDisplay		0.0		
8	119.306	0.25	loss-noreward	TurnDisplay				
8	119.557	0.75	loss-noreward	OutcomeDisplay				
9	120.309		loss-reward	ImageDisplay1		0.0		
9	122.549	0.75	loss-reward	StartDisplay				
9	123.301		loss-reward	ImageDisplay2		0.0		
9	126.31	1.6	loss-reward	ChoiceDisplay	1	0.829	1	1
9	127.163	0.771	loss-reward	ChosenDisplay		0.0		
9	127.915	0.25	loss-reward	TurnDisplay				
9	128.166	0.75	loss-reward	OutcomeDisplay				
10	128.918		win-reward	ImageDisplay1		0.0		
10	131.158	0.75	win-reward	StartDisplay				
10	131.91		win-reward	ImageDisplay2		0.0		
10	134.919	1.6	win-reward	ChoiceDisplay	1	0.768	1	1
10	135.705	0.832	win-reward	ChosenDisplay		0.0		
10	136.524	0.25	win-reward	TurnDisplay				
10	136.775	0.75	win-reward	OutcomeDisplay				
11	137.527		control-noreward	ImageDisplay1		0.0		
11	139.516	0.75	control-noreward	StartDisplay				
11	140.269		control-noreward	ImageDisplay2		0.0		
11	143.528	1.6	control-noreward	ChoiceDisplay	1	0.57	1	1
11	144.113	1.03	control-noreward	ChosenDisplay		0.0		
11	145.133	0.25	control-noreward	TurnDisplay				
11	145.384	0.75	control-noreward	OutcomeDisplay				
12	146.136		control-reward	ImageDisplay1		0.0		
12	148.125	0.75	control-reward	StartDisplay				
12	148.877		control-reward	ImageDisplay2		0.0		
12	152.137	1.6	control-reward	ChoiceDisplay	1	0.845	1	1
12	153.006	0.755	control-reward	ChosenDisplay		0.0		
12	153.742	0.25	control-reward	TurnDisplay				
12	153.993	0.75	control-reward	OutcomeDisplay				
13	154.745		win-reward	ImageDisplay1		0.0		
13	156.985	0.75	win-reward	StartDisplay				
13	157.737		win-reward	ImageDisplay2		0.0		
13	160.746	1.6	win-reward	ChoiceDisplay	1	0.693	1	1
13	161.465	0.907	win-reward	ChosenDisplay		0.0		
13	162.351	0.25	win-reward	TurnDisplay				
13	162.602	0.75	win-reward	OutcomeDisplay				
14	163.354		win-reward	ImageDisplay1		0.0		
14	165.343	0.75	win-reward	StartDisplay				
14	166.095		win-reward	ImageDisplay2		0.0		
14	169.355	1.6	win-reward	ChoiceDisplay	1	0.738	1	1
14	170.107	0.862	win-reward	ChosenDisplay		0.0		
14	170.96	0.25	win-reward	TurnDisplay				
14	171.211	0.75	win-reward	OutcomeDisplay				
15	171.963		win-reward	ImageDisplay1		0.0		
15	173.952	0.75	win-reward	StartDisplay				
15	174.704		win-reward	ImageDisplay2		0.0		
15	177.964	1.6	win-reward	ChoiceDisplay	1	0.735	1	1
15	178.716	0.865	win-reward	ChosenDisplay		0.0		
15	179.569	0.25	win-reward	TurnDisplay				
15	179.819	0.75	win-reward	OutcomeDisplay				
16	180.572		control-reward	ImageDisplay1		0.0		
16	182.812	0.75	control-reward	StartDisplay				
16	183.564		control-reward	ImageDisplay2		0.0		
16	186.573	1.6	control-reward	ChoiceDisplay	1	0.851	1	1
16	187.442	0.749	control-reward	ChosenDisplay		0.0		
16	188.178	0.25	control-reward	TurnDisplay				
16	188.428	0.75	control-reward	OutcomeDisplay				
17	189.181		win-reward	ImageDisplay1		0.0		
17	191.17	0.75	win-reward	StartDisplay				
17	191.922		win-reward	ImageDisplay2		0.0		
17	195.182	1.6	win-reward	ChoiceDisplay	1	0.65	1	1
17	195.85	0.95	win-reward	ChosenDisplay		0.0		
17	196.787	0.25	win-reward	TurnDisplay				
17	197.037	0.75	win-reward	OutcomeDisplay				
18	197.79		control-noreward	ImageDisplay1		0.0		
18	200.03	0.75	control-noreward	StartDisplay				
18	200.782		control-noreward	ImageDisplay2		0.0		
18	203.791	1.6	control-noreward	ChoiceDisplay	1	0.803	1	1
18	204.61	0.797	control-noreward	ChosenDisplay		0.0		
18	205.396	0.25	control-noreward	TurnDisplay				
18	205.646	0.75	control-noreward	OutcomeDisplay				
19	206.398		loss-reward	ImageDisplay1		0.0		
19	208.638	0.75	loss-reward	StartDisplay				
19	209.391		loss-reward	ImageDisplay2		0.0		
19	212.4	1.6	loss-reward	ChoiceDisplay	1	0.864	1	1
19	213.286	0.736	loss-reward	ChosenDisplay		0.0		
19	214.004	0.25	loss-reward	TurnDisplay				
19	214.255	0.75	loss-reward	OutcomeDisplay				
20	215.007		control-noreward	ImageDisplay1		0.0		
20	216.997	0.75	control-noreward	StartDisplay				
20	217.749		control-noreward	ImageDisplay2		0.0		
20	221.009	1.6	control-noreward	ChoiceDisplay	1	0.735	1	1
20	221.761	0.865	control-noreward	ChosenDisplay		0.0		
20	222.613	0.25	control-noreward	TurnDisplay				
20	222.864	0.75	control-noreward	OutcomeDisplay				
21	223.616		win-noreward	ImageDisplay1		0.0		
21	225.606	0.75	win-noreward	StartDisplay				
21	226.358		win-noreward	ImageDisplay2		0.0		
21	229.618	1.6	win-noreward	ChoiceDisplay	1	0.751	1	1
21	230.386	0.849	win-noreward	ChosenDisplay		0.0		
21	231.222	0.25	win-noreward	TurnDisplay				
21	231.473	0.75	win-noreward	OutcomeDisplay				
22	232.225		loss-reward	ImageDisplay1		0.0		
22	234.215	0.75	loss-reward	StartDisplay				
22	234.967		loss-reward	ImageDisplay2		0.0		
22	238.226	1.6	loss-reward	ChoiceDisplay	1	0.955	1	1
22	239.196	0.645	loss-reward	ChosenDisplay		0.0		
22	239.831	0.25	loss-reward	TurnDisplay				
22	240.082	0.75	loss-reward	OutcomeDisplay				
23	240.834		win-noreward	ImageDisplay1		0.0		
23	243.074	0.75	win-noreward	StartDisplay				
23	243.826		win-noreward	ImageDisplay2		0.0		
23	246.835	1.6	win-noreward	ChoiceDisplay	1	0.736	1	1
23	247.588	0.864	win-noreward	ChosenDisplay		0.0		
23	248.44	0.25	win-noreward	TurnDisplay				
23	248.691	0.75	win-noreward	OutcomeDisplay				
24	249.443		loss-reward	ImageDisplay1		0.0		
24	251.432	0.75	loss-reward	StartDisplay				
24	252.185		loss-reward	ImageDisplay2		0.0		
24	255.444	1.6	loss-reward	ChoiceDisplay	1	0.812	1	1
24	256.28	0.788	loss-reward	ChosenDisplay		0.0		
24	257.049	0.25	loss-reward	TurnDisplay				
24	257.3	0.75	loss-reward	OutcomeDisplay				
25	258.052		loss-reward	ImageDisplay1		0.0		
25	260.041	0.75	loss-reward	StartDisplay				
25	260.794		loss-reward	ImageDisplay2		0.0		
25	264.053	1.6	loss-reward	ChoiceDisplay	1	1.116	1	1
25	265.19	0.484	loss-reward	ChosenDisplay		0.0		
25	265.658	0.25	loss-reward	TurnDisplay				
25	265.909	0.75	loss-reward	OutcomeDisplay				
26	266.661		loss-reward	ImageDisplay1		0.0		
26	268.901	0.75	loss-reward	StartDisplay				
26	269.653		loss-reward	ImageDisplay2		0.0		
26	272.662	1.6	loss-reward	ChoiceDisplay	1	0.937	1	1
26	273.615	0.663	loss-reward	ChosenDisplay		0.0		
26	274.267	0.25	loss-reward	TurnDisplay				
26	274.518	0.75	loss-reward	OutcomeDisplay				
27	275.27		loss-noreward	ImageDisplay1		0.0		
27	277.51	0.75	loss-noreward	StartDisplay				
27	278.262		loss-noreward	ImageDisplay2		0.0		
27	281.271	1.6	loss-noreward	ChoiceDisplay	1	0.93	1	1
27	282.224	0.67	loss-noreward	ChosenDisplay		0.0		
27	282.876	0.25	loss-noreward	TurnDisplay				
27	283.127	0.75	loss-noreward	OutcomeDisplay				
28	283.879		loss-reward	ImageDisplay1		0.0		
28	285.868	0.75	loss-reward	StartDisplay				
28	286.62		loss-reward	ImageDisplay2		0.0		
28	289.88	1.6	loss-reward	ChoiceDisplay	1	0.653	1	1
28	290.549	0.947	loss-reward	ChosenDisplay		0.0		
28	291.485	0.25	loss-reward	TurnDisplay				
28	291.736	0.75	loss-reward	OutcomeDisplay				
29	292.488		control-reward	ImageDisplay1		0.0		
29	294.477	0.75	control-reward	StartDisplay				
29	295.229		control-reward	ImageDisplay2		0.0		
29	298.489	1.6	control-reward	ChoiceDisplay	1	0.677	1	1
29	299.191	0.923	control-reward	ChosenDisplay		0.0		
29	300.094	0.25	control-reward	TurnDisplay				
29	300.344	0.75	control-reward	OutcomeDisplay				
30	301.097		control-reward	ImageDisplay1		0.0		
30	303.086	0.75	control-reward	StartDisplay				
30	303.838		control-reward	ImageDisplay2		0.0		
30	307.098	1.6	control-reward	ChoiceDisplay	1	0.864	1	1
30	307.984	0.736	control-reward	ChosenDisplay		0.0		
30	308.703	0.25	control-reward	TurnDisplay				
30	308.953	0.75	control-reward	OutcomeDisplay				
31	309.706		control-noreward	ImageDisplay1		0.0		
31	311.695	0.75	control-noreward	StartDisplay				
31	312.447		control-noreward	ImageDisplay2		0.0		
31	315.707	1.6	control-noreward	ChoiceDisplay	1	0.753	1	1
31	316.476	0.847	control-noreward	ChosenDisplay		0.0		
31	317.312	0.25	control-noreward	TurnDisplay				
31	317.562	0.75	control-noreward	OutcomeDisplay				
32	318.315		loss-reward	ImageDisplay1		0.0		
32	320.555	0.75	loss-reward	StartDisplay				
32	321.307		loss-reward	ImageDisplay2		0.0		
32	324.316	1.6	loss-reward	ChoiceDisplay	1	0.763	1	1
32	325.101	0.837	loss-reward	ChosenDisplay		0.0		
32	325.921	0.25	loss-reward	TurnDisplay				
32	326.171	0.75	loss-reward	OutcomeDisplay				
33	326.924		win-reward	ImageDisplay1		0.0		
33	328.913	0.75	win-reward	StartDisplay				
33	329.665		win-reward	ImageDisplay2		0.0		
33	332.925	1.6	win-reward	ChoiceDisplay	1	0.591	1	1
33	333.543	1.009	win-reward	ChosenDisplay		0.0		
33	334.529	0.25	win-reward	TurnDisplay				
33	334.78	0.75	win-reward	OutcomeDisplay				
34	335.532		win-noreward	ImageDisplay1		0.0		
34	337.772	0.75	win-noreward	StartDisplay				
34	338.525		win-noreward	ImageDisplay2		0.0		
34	341.534	1.6	win-noreward	ChoiceDisplay	1	0.861	1	1
34	342.42	0.739	win-noreward	ChosenDisplay		0.0		
34	343.138	0.25	win-noreward	TurnDisplay				
34	343.389	0.75	win-noreward	OutcomeDisplay				
35	344.141		loss-noreward	ImageDisplay1		0.0		
35	346.131	0.75	loss-noreward	StartDisplay				
35	346.883		loss-noreward	ImageDisplay2		0.0		
35	350.143	1.6	loss-noreward	ChoiceDisplay	1	0.914	1	1
35	351.079	0.686	loss-noreward	ChosenDisplay		0.0		
35	351.747	0.25	loss-noreward	TurnDisplay				
35	351.998	0.75	loss-noreward	OutcomeDisplay				
36	352.75		loss-reward	ImageDisplay1		0.0		
36	354.99	0.75	loss-reward	StartDisplay				
36	355.743		loss-reward	ImageDisplay2		0.0		
36	358.751	1.6	loss-reward	ChoiceDisplay	1	0.784	1	1
36	359.554	0.816	loss-reward	ChosenDisplay		0.0		
36	360.356	0.25	loss-reward	TurnDisplay				
36	360.607	0.75	loss-reward	OutcomeDisplay				
37	361.359		win-noreward	ImageDisplay1		0.0		
37	363.599	0.75	win-noreward	StartDisplay				
37	364.351		win-noreward	ImageDisplay2		0.0		
37	367.36	1.6	win-noreward	ChoiceDisplay	1	0.786	1	1
37	368.163	0.814	win-noreward	ChosenDisplay		0.0		
37	368.965	0.25	win-noreward	TurnDisplay				
37	369.216	0.75	win-noreward	OutcomeDisplay				
38	369.968		control-noreward	ImageDisplay1		0.0		
38	371.957	0.75	control-noreward	StartDisplay				
38	372.71		control-noreward	ImageDisplay2		0.0		
38	375.969	1.6	control-noreward	ChoiceDisplay	1	0.843	1	1
38	376.839	0.757	control-noreward	ChosenDisplay		0.0		
38	377.574	0.25	control-noreward	TurnDisplay				
38	377.825	0.75	control-noreward	OutcomeDisplay				
39	378.577		loss-reward	ImageDisplay1		0.0		
39	380.566	0.75	loss-reward	StartDisplay				
39	381.319		loss-reward	ImageDisplay2		0.0		
39	384.578	1.6	loss-reward	ChoiceDisplay	1	0.777	1	1
39	385.381	0.823	loss-reward	ChosenDisplay		0.0		
39	386.183	0.25	loss-reward	TurnDisplay				
39	386.434	0.75	loss-reward	OutcomeDisplay				
40	387.186		control-reward	ImageDisplay1		0.0		
40	389.426	0.75	control-reward	StartDisplay				
40	390.178		control-reward	ImageDisplay2		0.0		
40	393.187	1.6	control-reward	ChoiceDisplay	1	0.992	1	1
40	394.19	0.608	control-reward	ChosenDisplay		0.0		
40	394.792	0.25	control-reward	TurnDisplay				
40	395.043	0.75	control-reward	OutcomeDisplay				
41	395.795		control-noreward	ImageDisplay1		0.0		
41	397.784	0.75	control-noreward	StartDisplay				
41	398.536		control-noreward	ImageDisplay2		0.0		
41	401.796	1.6	control-noreward	ChoiceDisplay	1	1.282	1	1
41	403.1	0.318	control-noreward	ChosenDisplay		0.0		
41	403.401	0.25	control-noreward	TurnDisplay				
41	403.652	0.75	control-noreward	OutcomeDisplay				
42	404.404		control-noreward	ImageDisplay1		0.0		
42	406.644	0.75	control-noreward	StartDisplay				
42	407.396		control-noreward	ImageDisplay2		0.0		
42	410.405	1.6	control-noreward	ChoiceDisplay	1	0.902	1	1
42	411.324	0.698	control-noreward	ChosenDisplay		0.0		
42	412.01	0.25	control-noreward	TurnDisplay				
42	412.261	0.75	control-noreward	OutcomeDisplay				
43	413.013		loss-noreward	ImageDisplay1		0.0		
43	415.002	0.75	loss-noreward	StartDisplay				
43	415.754		loss-noreward	ImageDisplay2		0.0		
43	419.014	1.6	loss-noreward	ChoiceDisplay	1	0.98	1	1
43	420.017	0.62	loss-noreward	ChosenDisplay		0.0		
43	420.619	0.25	loss-noreward	TurnDisplay				
43	420.869	0.75	loss-noreward	OutcomeDisplay				
44	421.622		control-reward	ImageDisplay1		0.0		
44	423.611	0.75	control-reward	StartDisplay				
44	424.363		control-reward	ImageDisplay2		0.0		
44	427.623	1.6	control-reward	ChoiceDisplay	1	0.432	1	1
44	428.074	1.168	control-reward	ChosenDisplay		0.0		
44	429.228	0.25	control-reward	TurnDisplay				
44	429.478	0.75	control-reward	OutcomeDisplay				
45	430.231		control-reward	ImageDisplay1		0.0		
45	432.471	0.75	control-reward	StartDisplay				
45	433.223		control-reward	ImageDisplay2		0.0		
45	436.232	1.6	control-reward	ChoiceDisplay	1	0.531	1	1
45	436.783	1.069	control-reward	ChosenDisplay		0.0		
45	437.837	0.25	control-reward	TurnDisplay				
45	438.087	0.75	control-reward	OutcomeDisplay				
46	438.84		loss-noreward	ImageDisplay1		0.0		
46	441.08	0.75	loss-noreward	StartDisplay				
46	441.832		loss-noreward	ImageDisplay2		0.0		
46	444.841	1.6	loss-noreward	ChoiceDisplay	1	0.732	1	1
46	445.593	0.868	loss-noreward	ChosenDisplay		0.0		
46	446.446	0.25	loss-noreward	TurnDisplay				
46	446.696	0.75	loss-noreward	OutcomeDisplay				
47	447.449		win-noreward	ImageDisplay1		0.0		
47	449.438	0.75	win-noreward	StartDisplay				
47	450.19		win-noreward	ImageDisplay2		0.0		
47	453.45	1.6	win-noreward	ChoiceDisplay	1	0.692	1	1
47	454.169	0.908	win-noreward	ChosenDisplay		0.0		
47	455.054	0.25	win-noreward	TurnDisplay				
47	455.305	0.75	win-noreward	OutcomeDisplay				
48	456.057		control-reward	ImageDisplay1		0.0		
48	458.297	0.75	control-reward	StartDisplay				
48	459.05		control-reward	ImageDisplay2		0.0		
48	462.059	1.6	control-reward	ChoiceDisplay	1	0.769	1	1
48	462.844	0.831	control-reward	ChosenDisplay		0.0		
48	463.663	0.25	control-reward	TurnDisplay				
48	463.914	0.75	control-reward	OutcomeDisplay				
49	464.666		win-reward	ImageDisplay1		0.0		
49	466.656	0.75	win-reward	StartDisplay				
49	467.408		win-reward	ImageDisplay2		0.0		
49	470.668	1.6	win-reward	ChoiceDisplay	1	0.831	1	1
49	471.52	0.769	win-reward	ChosenDisplay		0.0		
49	472.272	0.25	win-reward	TurnDisplay				
49	472.523	0.75	win-reward	OutcomeDisplay				
50	473.275		control-noreward	ImageDisplay1		0.0		
50	475.265	0.75	control-noreward	StartDisplay				
50	476.017		control-noreward	ImageDisplay2		0.0		
50	479.276	1.6	control-noreward	ChoiceDisplay	1	0.679	1	1
50	479.979	0.921	control-noreward	ChosenDisplay		0.0		
50	480.881	0.25	control-noreward	TurnDisplay				
50	481.132	0.75	control-noreward	OutcomeDisplay				
51	481.884		loss-noreward	ImageDisplay1		0.0		
51	484.124	0.75	loss-noreward	StartDisplay				
51	484.876		loss-noreward	ImageDisplay2		0.0		
51	487.885	1.6	loss-noreward	ChoiceDisplay	1	0.596	1	1
51	488.504	1.004	loss-noreward	ChosenDisplay		0.0		
51	489.49	0.25	loss-noreward	TurnDisplay				
51	489.741	0.75	loss-noreward	OutcomeDisplay				
52	490.493		loss-reward	ImageDisplay1		0.0		
52	492.733	0.75	loss-reward	StartDisplay				
52	493.485		loss-reward	ImageDisplay2		0.0		
52	496.494	1.6	loss-reward	ChoiceDisplay	1	0.764	1	1
52	497.28	0.836	loss-reward	ChosenDisplay		0.0		
52	498.099	0.25	loss-reward	TurnDisplay				
52	498.35	0.75	loss-reward	OutcomeDisplay				
53	499.102		win-reward	ImageDisplay1		0.0		
53	501.342	0.75	win-reward	StartDisplay				
53	502.094		win-reward	ImageDisplay2		0.0		
53	505.103	1.6	win-reward	ChoiceDisplay	1	0.748	1	1
53	505.872	0.852	win-reward	ChosenDisplay		0.0		
53	506.708	0.25	win-reward	TurnDisplay				
53	506.959	0.75	win-reward	OutcomeDisplay				
54	507.711		loss-noreward	ImageDisplay1		0.0		
54	509.951	0.75	loss-noreward	StartDisplay				
54	510.703		loss-noreward	ImageDisplay2		0.0		
54	513.712	1.6	loss-noreward	ChoiceDisplay	1	0.45	1	1
54	514.18	1.15	loss-noreward	ChosenDisplay		0.0		
54	515.317	0.25	loss-noreward	TurnDisplay				
54	515.568	0.75	loss-noreward	OutcomeDisplay				
55	516.32		win-reward	ImageDisplay1		0.0		
55	518.56	0.75	win-reward	StartDisplay				
55	519.312		win-reward	ImageDisplay2		0.0		
55	522.321	1.6	win-reward	ChoiceDisplay		0.0		
55	523.909	0.0	win-reward	ChosenDisplay		0.0		
55	523.926	0.25	win-reward	TurnDisplay				
55	524.16	0.75	win-reward	OutcomeDisplay				
56	524.912		control-reward	ImageDisplay1		0.0		
56	527.169	0.75	control-reward	StartDisplay				
56	527.921		control-reward	ImageDisplay2		0.0		
56	530.913	1.6	control-reward	ChoiceDisplay	1	0.502	1	1
56	531.432	1.098	control-reward	ChosenDisplay		0.0		
56	532.518	0.25	control-reward	TurnDisplay				
56	532.769	0.75	control-reward	OutcomeDisplay				
57	533.521		loss-noreward	ImageDisplay1		0.0		
57	535.761	0.75	loss-noreward	StartDisplay				
57	536.513		loss-noreward	ImageDisplay2		0.0		
57	539.522	1.6	loss-noreward	ChoiceDisplay	1	0.715	1	1
57	540.258	0.885	loss-noreward	ChosenDisplay		0.0		
57	541.127	0.25	loss-noreward	TurnDisplay				
57	541.378	0.75	loss-noreward	OutcomeDisplay				
58	542.13		win-reward	ImageDisplay1		0.0		
58	544.37	0.75	win-reward	StartDisplay				
58	545.122		win-reward	ImageDisplay2		0.0		
58	548.131	1.6	win-reward	ChoiceDisplay	1	0.774	1	1
58	548.917	0.826	win-reward	ChosenDisplay		0.0		
58	549.736	0.25	win-reward	TurnDisplay				
58	549.987	0.75	win-reward	OutcomeDisplay				
59	550.739		control-noreward	ImageDisplay1		0.0		
59	552.979	0.75	control-noreward	StartDisplay				
59	553.731		control-noreward	ImageDisplay2		0.0		
59	556.74	1.6	control-noreward	ChoiceDisplay	1	0.653	1	1
59	557.409	0.947	control-noreward	ChosenDisplay		0.0		
59	558.345	0.25	control-noreward	TurnDisplay				
59	558.596	0.75	control-noreward	OutcomeDisplay				
60	559.348		win-noreward	ImageDisplay1		0.0		
60	561.337	0.75	win-noreward	StartDisplay				
60	562.089		win-noreward	ImageDisplay2		0.0		
60	565.349	1.6	win-noreward	ChoiceDisplay	1	1.05	1	1
60	566.419	0.55	win-noreward	ChosenDisplay		0.0		
60	566.954	0.25	win-noreward	TurnDisplay				
60	567.205	0.75	win-noreward	OutcomeDisplay				
61	567.957		control-reward	ImageDisplay1		0.0		
61	570.197	0.75	control-reward	StartDisplay				
61	570.949		control-reward	ImageDisplay2		0.0		
61	573.958	1.6	control-reward	ChoiceDisplay	1	0.706	1	1
61	574.677	0.894	control-reward	ChosenDisplay		0.0		
61	575.563	0.25	control-reward	TurnDisplay				
61	575.814	0.75	control-reward	OutcomeDisplay				
62	576.566		loss-noreward	ImageDisplay1		0.0		
62	578.555	0.75	loss-noreward	StartDisplay				
62	579.307		loss-noreward	ImageDisplay2		0.0		
62	582.567	1.6	loss-noreward	ChoiceDisplay	1	0.672	1	1
62	583.252	0.928	loss-noreward	ChosenDisplay		0.0		
62	584.172	0.25	loss-noreward	TurnDisplay				
62	584.422	0.75	loss-noreward	OutcomeDisplay				
63	585.175		win-reward	ImageDisplay1		0.0		
63	587.415	0.75	win-reward	StartDisplay				
63	588.167		win-reward	ImageDisplay2		0.0		
63	591.176	1.6	win-reward	ChoiceDisplay	1	0.41	1	1
63	591.61	1.19	win-reward	ChosenDisplay		0.0		
63	592.781	0.25	win-reward	TurnDisplay				
63	593.031	0.75	win-reward	OutcomeDisplay				
64	593.784		control-noreward	ImageDisplay1		0.0		
64	596.024	0.75	control-noreward	StartDisplay				
64	596.776		control-noreward	ImageDisplay2		0.0		
64	599.785	1.6	control-noreward	ChoiceDisplay	1	1.009	1	1
64	600.805	0.591	control-noreward	ChosenDisplay		0.0		
64	601.39	0.25	control-noreward	TurnDisplay				
64	601.64	0.75	control-noreward	OutcomeDisplay				
65	602.393		control-noreward	ImageDisplay1		0.0		
65	604.633	0.75	control-noreward	StartDisplay				
65	605.385		control-noreward	ImageDisplay2		0.0		
65	608.394	1.6	control-noreward	ChoiceDisplay	1	0.709	1	1
65	609.129	0.891	control-noreward	ChosenDisplay		0.0		
65	609.999	0.25	control-noreward	TurnDisplay				
65	610.249	0.75	control-noreward	OutcomeDisplay				
66	611.002		control-noreward	ImageDisplay1		0.0		
66	613.241	0.75	control-noreward	StartDisplay				
66	613.994		control-noreward	ImageDisplay2		0.0		
66	617.003	1.6	control-noreward	ChoiceDisplay	1	0.618	1	1
66	617.638	0.982	control-noreward	ChosenDisplay		0.0		
66	618.607	0.25	control-noreward	TurnDisplay				
66	618.858	0.75	control-noreward	OutcomeDisplay				
67	619.61		win-noreward	ImageDisplay1		0.0		
67	621.6	0.75	win-noreward	StartDisplay				
67	622.352		win-noreward	ImageDisplay2		0.0		
67	625.612	1.6	win-noreward	ChoiceDisplay	1	0.869	1	1
67	626.498	0.731	win-noreward	ChosenDisplay		0.0		
67	627.216	0.25	win-noreward	TurnDisplay				
67	627.467	0.75	win-noreward	OutcomeDisplay				
68	628.219		win-reward	ImageDisplay1		0.0		
68	630.459	0.75	win-reward	StartDisplay				
68	631.212		win-reward	ImageDisplay2		0.0		
68	634.221	1.6	win-reward	ChoiceDisplay	1	0.974	1	1
68	635.207	0.626	win-reward	ChosenDisplay		0.0		
68	635.825	0.25	win-reward	TurnDisplay				
68	636.076	0.75	win-reward	OutcomeDisplay				
69	636.828		control-noreward	ImageDisplay1		0.0		
69	639.068	0.75	control-noreward	StartDisplay				
69	639.821		control-noreward	ImageDisplay2		0.0		
69	642.829	1.6	control-noreward	ChoiceDisplay	1	0.677	1	1
69	643.532	0.923	control-noreward	ChosenDisplay		0.0		
69	644.434	0.25	control-noreward	TurnDisplay				
69	644.685	0.75	control-noreward	OutcomeDisplay				
70	645.437		loss-reward	ImageDisplay1		0.0		
70	647.677	0.75	loss-reward	StartDisplay				
70	648.429		loss-reward	ImageDisplay2		0.0		
70	651.438	1.6	loss-reward	ChoiceDisplay	1	0.815	1	1
70	652.274	0.785	loss-reward	ChosenDisplay		0.0		
70	653.043	0.25	loss-reward	TurnDisplay				
70	653.294	0.75	loss-reward	OutcomeDisplay				
71	654.046		win-noreward	ImageDisplay1		0.0		
71	656.286	0.75	win-noreward	StartDisplay				
71	657.038		win-noreward	ImageDisplay2		0.0		
71	660.047	1.6	win-noreward	ChoiceDisplay	1	0.743	1	1
71	660.816	0.857	win-noreward	ChosenDisplay		0.0		
71	661.652	0.25	win-noreward	TurnDisplay				
71	661.903	0.75	win-noreward	OutcomeDisplay				
72	662.655		loss-reward	ImageDisplay1		0.0		
72	664.895	0.75	loss-reward	StartDisplay				
72	665.647		loss-reward	ImageDisplay2		0.0		
72	668.656	1.6	loss-reward	ChoiceDisplay	1	0.408	1	1
72	669.091	1.192	loss-reward	ChosenDisplay		0.0		
72	670.261	0.25	loss-reward	TurnDisplay				
72	670.512	0.75	loss-reward	OutcomeDisplay				
73	671.264		loss-reward	ImageDisplay1		0.0		
73	673.504	0.75	loss-reward	StartDisplay				
73	674.256		loss-reward	ImageDisplay2		0.0		
73	677.265	1.6	loss-reward	ChoiceDisplay	1	0.737	1	1
73	678.017	0.863	loss-reward	ChosenDisplay		0.0		
73	678.87	0.25	loss-reward	TurnDisplay				
73	679.121	0.75	loss-reward	OutcomeDisplay				
74	679.873		win-reward	ImageDisplay1		0.0		
74	682.113	0.75	win-reward	StartDisplay				
74	682.865		win-reward	ImageDisplay2		0.0		
74	685.874	1.6	win-reward	ChoiceDisplay	1	0.834	1	1
74	686.727	0.766	win-reward	ChosenDisplay		0.0		
74	687.479	0.25	win-reward	TurnDisplay				
74	687.73	0.75	win-reward	OutcomeDisplay				
75	688.482		win-reward	ImageDisplay1		0.0		
75	690.471	0.75	win-reward	StartDisplay				
75	691.223		win-reward	ImageDisplay2		0.0		
75	694.483	1.6	win-reward	ChoiceDisplay	1	0.9	1	1
75	695.402	0.7	win-reward	ChosenDisplay		0.0		
75	696.088	0.25	win-reward	TurnDisplay				
75	696.339	0.75	win-reward	OutcomeDisplay				
76	697.091		control-reward	ImageDisplay1		0.0		
76	699.331	0.75	control-reward	StartDisplay				
76	700.083		control-reward	ImageDisplay2		0.0		
76	703.092	1.6	control-reward	ChoiceDisplay	1	0.921	1	1
76	704.028	0.679	control-reward	ChosenDisplay		0.0		
76	704.697	0.25	control-reward	TurnDisplay				
76	704.947	0.75	control-reward	OutcomeDisplay				
77	705.7		loss-noreward	ImageDisplay1		0.0		
77	707.689	0.75	loss-noreward	StartDisplay				
77	708.441		loss-noreward	ImageDisplay2		0.0		
77	711.701	1.6	loss-noreward	ChoiceDisplay	1	0.617	1	1
77	712.336	0.983	loss-noreward	ChosenDisplay		0.0		
77	713.306	0.25	loss-noreward	TurnDisplay				
77	713.556	0.75	loss-noreward	OutcomeDisplay				
78	714.309		win-noreward	ImageDisplay1		0.0		
78	716.298	0.75	win-noreward	StartDisplay				
78	717.05		win-noreward	ImageDisplay2		0.0		
78	720.31	1.6	win-noreward	ChoiceDisplay	1	1.026	1	1
78	721.363	0.574	win-noreward	ChosenDisplay		0.0		
78	721.915	0.25	win-noreward	TurnDisplay				
78	722.165	0.75	win-noreward	OutcomeDisplay				
79	722.918		win-noreward	ImageDisplay1		0.0		
79	725.158	0.75	win-noreward	StartDisplay				
79	725.91		win-noreward	ImageDisplay2		0.0		
79	728.919	1.6	win-noreward	ChoiceDisplay	1	1.032	1	1
79	729.972	0.568	win-noreward	ChosenDisplay		0.0		
79	730.524	0.25	win-noreward	TurnDisplay				
79	730.774	0.75	win-noreward	OutcomeDisplay				
80	731.527		win-noreward	ImageDisplay1		0.0		
80	733.767	0.75	win-noreward	StartDisplay				
80	734.519		win-noreward	ImageDisplay2		0.0		
80	737.528	1.6	win-noreward	ChoiceDisplay	1	0.851	1	1
80	738.397	0.749	win-noreward	ChosenDisplay		0.0		
80	739.132	0.25	win-noreward	TurnDisplay				
80	739.383	0.75	win-noreward	OutcomeDisplay				
81	740.135		control-reward	ImageDisplay1		0.0		
81	742.125	0.75	control-reward	StartDisplay				
81	742.877		control-reward	ImageDisplay2		0.0		
81	746.137	1.6	control-reward	ChoiceDisplay	1	0.768	1	1
81	746.922	0.832	control-reward	ChosenDisplay		0.0		
81	747.741	0.25	control-reward	TurnDisplay				
81	747.992	0.75	control-reward	OutcomeDisplay				
82	748.744		win-reward	ImageDisplay1		0.0		
82	750.984	0.75	win-reward	StartDisplay				
82	751.737		win-reward	ImageDisplay2		0.0		
82	754.746	1.6	win-reward	ChoiceDisplay	1	0.313	1	1
82	755.08	1.287	win-reward	ChosenDisplay		0.0		
82	756.35	0.25	win-reward	TurnDisplay				
82	756.601	0.75	win-reward	OutcomeDisplay				
83	757.353		loss-noreward	ImageDisplay1		0.0		
83	759.593	0.75	loss-noreward	StartDisplay				
83	760.346		loss-noreward	ImageDisplay2		0.0		
83	763.354	1.6	loss-noreward	ChoiceDisplay	1	0.992	1	1
83	764.374	0.608	loss-noreward	ChosenDisplay		0.0		
83	764.959	0.25	loss-noreward	TurnDisplay				
83	765.21	0.75	loss-noreward	OutcomeDisplay				
84	765.962		loss-noreward	ImageDisplay1		0.0		
84	768.202	0.75	loss-noreward	StartDisplay				
84	768.954		loss-noreward	ImageDisplay2		0.0		
84	771.963	1.6	loss-noreward	ChoiceDisplay	1	0.923	1	1
84	772.9	0.677	loss-noreward	ChosenDisplay		0.0		
84	773.568	0.25	loss-noreward	TurnDisplay				
84	773.819	0.75	loss-noreward	OutcomeDisplay				
85	774.571		loss-reward	ImageDisplay1		0.0		
85	776.56	0.75	loss-reward	StartDisplay				
85	777.313		loss-reward	ImageDisplay2		0.0		
85	780.572	1.6	loss-reward	ChoiceDisplay	1	0.621	1	1
85	781.208	0.979	loss-reward	ChosenDisplay		0.0		
85	782.177	0.25	loss-reward	TurnDisplay				
85	782.428	0.75	loss-reward	OutcomeDisplay				
86	783.18		win-reward	ImageDisplay1		0.0		
86	785.169	0.75	win-reward	StartDisplay				
86	785.922		win-reward	ImageDisplay2		0.0		
86	789.181	1.6	win-reward	ChoiceDisplay	1	0.713	1	1
86	789.917	0.887	win-reward	ChosenDisplay		0.0		
86	790.786	0.25	win-reward	TurnDisplay				
86	791.037	0.75	win-reward	OutcomeDisplay				
87	791.789		control-noreward	ImageDisplay1		0.0		
87	793.778	0.75	control-noreward	StartDisplay				
87	794.53		control-noreward	ImageDisplay2		0.0		
87	797.79	1.6	control-noreward	ChoiceDisplay	1	0.802	1	1
87	798.609	0.798	control-noreward	ChosenDisplay		0.0		
87	799.395	0.25	control-noreward	TurnDisplay				
87	799.646	0.75	control-noreward	OutcomeDisplay				
88	800.398		win-reward	ImageDisplay1		0.0		
88	802.387	0.75	win-reward	StartDisplay				
88	803.139		win-reward	ImageDisplay2		0.0		
88	806.399	1.6	win-reward	ChoiceDisplay	1	1.015	1	1
88	807.436	0.585	win-reward	ChosenDisplay		0.0		
88	808.004	0.25	win-reward	TurnDisplay				
88	808.255	0.75	win-reward	OutcomeDisplay				
89	809.007		win-noreward	ImageDisplay1		0.0		
89	810.996	0.75	win-noreward	StartDisplay				
89	811.748		win-noreward	ImageDisplay2		0.0		
89	815.008	1.6	win-noreward	ChoiceDisplay	1	0.348	1	1
89	815.376	1.252	win-noreward	ChosenDisplay		0.0		
89	816.613	0.25	win-noreward	TurnDisplay				
89	816.864	0.75	win-noreward	OutcomeDisplay				
90	817.616		loss-noreward	ImageDisplay1		0.0		
90	819.605	0.75	loss-noreward	StartDisplay				
90	820.357		loss-noreward	ImageDisplay2		0.0		
90	823.617	1.6	loss-noreward	ChoiceDisplay	1	0.544	1	1
90	824.185	1.056	loss-noreward	ChosenDisplay		0.0		
90	825.222	0.25	loss-noreward	TurnDisplay				
90	825.473	0.75	loss-noreward	OutcomeDisplay				
91	826.225		control-noreward	ImageDisplay1		0.0		
91	828.214	0.75	control-noreward	StartDisplay				
91	828.966		control-noreward	ImageDisplay2		0.0		
91	832.226	1.6	control-noreward	ChoiceDisplay	1	0.329	1	1
91	832.577	1.271	control-noreward	ChosenDisplay		0.0		
91	833.831	0.25	control-noreward	TurnDisplay				
91	834.081	0.75	control-noreward	OutcomeDisplay				
92	834.834		loss-reward	ImageDisplay1		0.0		
92	836.823	0.75	loss-reward	StartDisplay				
92	837.575		loss-reward	ImageDisplay2		0.0		
92	840.835	1.6	loss-reward	ChoiceDisplay	1	0.667	1	1
92	841.52	0.933	loss-reward	ChosenDisplay		0.0		
92	842.44	0.25	loss-reward	TurnDisplay				
92	842.69	0.75	loss-reward	OutcomeDisplay				
93	843.443		win-noreward	ImageDisplay1		0.0		
93	845.683	0.75	win-noreward	StartDisplay				
93	846.435		win-noreward	ImageDisplay2		0.0		
93	849.444	1.6	win-noreward	ChoiceDisplay	1	0.799	1	1
93	850.263	0.801	win-noreward	ChosenDisplay		0.0		
93	851.049	0.25	win-noreward	TurnDisplay				
93	851.299	0.75	win-noreward	OutcomeDisplay				
94	852.052		control-reward	ImageDisplay1		0.0		
94	854.041	0.75	control-reward	StartDisplay				
94	854.793		control-reward	ImageDisplay2		0.0		
94	858.053	1.6	control-reward	ChoiceDisplay	1	0.818	1	1
94	858.889	0.782	control-reward	ChosenDisplay		0.0		
94	859.657	0.25	control-reward	TurnDisplay				
94	859.908	0.75	control-reward	OutcomeDisplay				
95	860.66		loss-reward	ImageDisplay1		0.0		
95	862.65	0.75	loss-reward	StartDisplay				
95	863.402		loss-reward	ImageDisplay2		0.0		
95	866.662	1.6	loss-reward	ChoiceDisplay	1	0.606	1	1
95	867.28	0.994	loss-reward	ChosenDisplay		0.0		
95	868.266	0.25	loss-reward	TurnDisplay				
95	868.517	0.75	loss-reward	OutcomeDisplay				
