onset	duration	trial_type	response_time	stim_file	accuracy
203.552	1.0	go	0.838	Go_X	1.0
206.127	1.0	go	0.28	Go_O	1.0
208.651	1.0	go	0.333	Go_X	1.0
211.175	1.0	go	0.302	Go_O	1.0
213.699	1.0	go	0.593	Go_O	1.0
216.223	1.0	go	0.226	Go_X	1.0
218.748	0.25	stopfail	0.201	Go_O	0.0
221.272	1.0	go	0.351	Go_O	1.0
223.796	0.2	stopfail	0.24	Go_X	0.0
226.337	1.0	go	0.167	Go_X	0.0
228.861	1.0	go	0.271	Go_O	1.0
231.385	1.0	go	0.317	Go_X	0.0
233.91	0.15	stopfail	0.307	Go_O	0.0
236.45	1.0	go	0.342	Go_X	1.0
238.975	1.0	go	0.252	Go_O	1.0
241.499	0.1	stopfail	0.214	Go_X	0.0
244.023	0.05	stopsuccess	0.0	Go_O	1.0
246.547	1.0	go	0.326	Go_O	1.0
249.072	1.0	go	0.218	Go_X	1.0
251.596	0.1	stopsuccess	0.0	Go_X	1.0
254.12	1.0	go	0.28	Go_X	1.0
256.644	1.0	go	0.255	Go_O	1.0
259.168	0.15	stopfail	0.103	Go_O	0.0
261.709	1.0	go	0.237	Go_X	1.0
264.233	1.0	go	0.109	Go_O	1.0
266.757	0.1	stopfail	0.262	Go_X	0.0
269.282	1.0	go	0.234	Go_O	1.0
271.823	1.0	go	0.273	Go_X	1.0
274.347	0.05	stopsuccess	0.0	Go_O	1.0
276.871	1.0	go	0.478	Go_O	1.0
279.395	1.0	go	0.262	Go_X	1.0
281.919	1.0	go	0.501	Go_O	1.0
284.444	1.0	go	0.284	Go_X	0.0
286.984	1.0	go	0.411	Go_X	1.0
289.509	0.1	stopsuccess	0.0	Go_X	1.0
292.033	1.0	go	0.202	Go_O	1.0
294.557	1.0	go	0.374	Go_O	0.0
297.081	1.0	go	0.41	Go_X	1.0
299.605	1.0	go	0.265	Go_O	1.0
302.13	1.0	go	0.239	Go_X	1.0
304.67	0.15	stopfail	0.268	Go_O	0.0
307.195	1.0	go	0.385	Go_O	1.0
309.719	1.0	go	0.222	Go_X	1.0
312.243	1.0	go	0.228	Go_O	1.0
314.767	1.0	go	0.382	Go_X	1.0
317.291	1.0	go	0.344	Go_X	1.0
319.816	1.0	go	0.267	Go_O	1.0
322.34	0.1	stopfail	0.227	Go_X	0.0
324.864	1.0	go	0.278	Go_O	0.0
327.388	1.0	go	0.338	Go_X	1.0
329.912	0.05	stopfail	0.214	Go_O	0.0
332.437	1.0	go	0.25	Go_X	1.0
334.961	0.0	stopsuccess	0.0	Go_X	1.0
337.518	0.05	stopsuccess	0.0	Go_O	1.0
340.043	1.0	go	0.271	Go_O	1.0
342.584	1.0	go	0.383	Go_O	1.0
345.108	1.0	go	0.349	Go_X	1.0
347.632	1.0	go	0.362	Go_O	1.0
350.156	0.1	stopsuccess	0.0	Go_X	1.0
352.68	1.0	go	0.34	Go_X	1.0
355.204	0.15	stopsuccess	0.0	Go_O	1.0
357.729	1.0	go	0.268	Go_X	1.0
360.253	1.0	go	0.366	Go_O	1.0
362.777	1.0	go	0.316	Go_O	1.0
365.301	1.0	go	0.287	Go_X	1.0
367.825	1.0	go	0.393	Go_X	1.0
370.35	1.0	go	0.256	Go_O	1.0
372.874	1.0	go	0.419	Go_O	1.0
375.398	1.0	go	0.413	Go_X	1.0
377.922	1.0	go	0.328	Go_O	0.0
380.446	0.2	stopfail	0.233	Go_X	0.0
382.987	1.0	go	0.335	Go_X	1.0
385.513	1.0	go	0.213	Go_O	1.0
388.036	1.0	go	0.282	Go_X	1.0
390.56	0.15	stopfail	0.203	Go_O	0.0
393.084	1.0	go	0.357	Go_O	1.0
395.625	1.0	go	0.261	Go_X	1.0
398.149	1.0	go	0.274	Go_O	1.0
400.673	1.0	go	0.371	Go_X	1.0
403.198	1.0	go	0.293	Go_O	1.0
405.722	1.0	go	0.427	Go_X	1.0
408.246	0.1	stopfail	0.357	Go_X	0.0
410.77	1.0	go	0.492	Go_O	1.0
413.294	1.0	go	0.249	Go_X	1.0
415.819	0.05	stopsuccess	0.0	Go_O	1.0
418.359	1.0	go	0.346	Go_O	1.0
420.884	1.0	go	0.363	Go_X	1.0
423.425	0.1	stopsuccess	0.0	Go_X	1.0
425.949	1.0	go	0.309	Go_O	0.0
428.473	0.15	stopsuccess	0.0	Go_O	1.0
431.014	1.0	go	0.295	Go_X	1.0
433.538	1.0	go	0.262	Go_O	1.0
436.062	1.0	go	0.34	Go_X	1.0
438.586	1.0	go	0.398	Go_O	1.0
441.111	1.0	go	0.364	Go_X	1.0
443.652	0.2	stopsuccess	0.0	Go_X	1.0
446.192	0.25	stopfail	0.441	Go_O	0.0
448.717	1.0	go	0.291	Go_X	1.0
451.241	1.0	go	0.298	Go_O	1.0
453.765	0.2	stopfail	0.252	Go_X	0.0
456.289	1.0	go	0.385	Go_X	1.0
458.813	1.0	go	0.248	Go_O	1.0
461.354	1.0	go	0.391	Go_O	1.0
463.879	1.0	go	0.301	Go_X	1.0
466.403	1.0	go	0.341	Go_O	1.0
468.927	1.0	go	0.279	Go_X	1.0
471.468	0.15	stopfail	0.32	Go_O	0.0
473.994	1.0	go	0.269	Go_X	1.0
476.516	1.0	go	0.266	Go_O	1.0
479.04	1.0	go	0.233	Go_X	1.0
481.565	1.0	go	0.321	Go_O	1.0
484.089	1.0	go	0.245	Go_X	1.0
486.613	0.1	stopsuccess	0.0	Go_X	1.0
489.137	1.0	go	0.286	Go_O	1.0
491.661	1.0	go	0.245	Go_X	1.0
494.186	1.0	go	0.319	Go_O	1.0
496.71	1.0	go	0.499	Go_X	1.0
499.234	0.15	stopsuccess	0.0	Go_O	1.0
501.775	1.0	go	0.406	Go_O	1.0
504.299	1.0	go	0.463	Go_O	1.0
506.823	0.2	stopfail	0.319	Go_X	0.0
509.347	1.0	go	0.367	Go_X	1.0
511.872	0.15	stopfail	0.253	Go_O	0.0
514.413	1.0	go	0.378	Go_X	0.0
516.937	1.0	go	0.281	Go_O	1.0
519.461	1.0	go	0.323	Go_X	1.0
521.985	1.0	go	0.308	Go_O	1.0
524.509	1.0	go	0.226	Go_X	1.0
527.033	1.0	go	0.252	Go_O	1.0
529.558	1.0	go	0.431	Go_O	1.0
532.099	0.1	stopfail	0.303	Go_X	0.0
534.623	1.0	go	0.359	Go_X	1.0
537.147	1.0	go	0.239	Go_O	1.0
539.671	1.0	go	0.336	Go_X	1.0
542.195	0.05	stopsuccess	0.0	Go_O	1.0
544.719	1.0	go	0.452	Go_X	1.0
547.244	1.0	go	0.537	Go_O	1.0
549.768	1.0	go	0.398	Go_X	1.0
552.292	1.0	go	0.591	Go_O	1.0
554.816	0.1	stopsuccess	0.0	Go_X	1.0
557.34	1.0	go	0.318	Go_O	1.0
559.865	1.0	go	0.231	Go_X	1.0
562.406	0.15	stopfail	0.06	Go_O	0.0
564.93	1.0	go	0.441	Go_O	1.0
567.454	1.0	go	0.171	Go_X	1.0
569.978	0.1	stopsuccess	0.0	Go_X	1.0
572.502	1.0	go	0.228	Go_O	1.0
575.027	1.0	go	0.24	Go_X	1.0
577.551	0.15	stopsuccess	0.0	Go_O	1.0
580.092	1.0	go	0.402	Go_O	1.0
582.616	1.0	go	0.168	Go_X	1.0
585.14	1.0	go	0.336	Go_O	1.0
587.664	1.0	go	0.343	Go_X	1.0
590.188	1.0	go	0.281	Go_O	1.0
592.713	1.0	go	0.198	Go_X	1.0
595.237	0.2	stopfail	0.318	Go_X	0.0
597.778	1.0	go	0.469	Go_X	1.0
600.302	0.15	stopfail	0.21	Go_O	0.0
602.843	1.0	go	0.281	Go_O	0.0
605.384	1.0	go	0.399	Go_O	1.0
607.925	1.0	go	0.254	Go_X	1.0
610.449	1.0	go	0.393	Go_O	1.0
612.973	1.0	go	0.331	Go_X	1.0
615.497	0.1	stopfail	0.193	Go_X	0.0
618.021	1.0	go	0.393	Go_X	1.0
620.546	1.0	go	0.165	Go_O	1.0
623.086	1.0	go	0.308	Go_O	1.0
625.611	0.05	stopsuccess	0.0	Go_O	1.0
628.135	0.1	stopfail	0.284	Go_X	0.0
630.659	0.05	stopsuccess	0.0	Go_O	1.0
633.183	1.0	go	0.314	Go_X	1.0
635.707	0.1	stopsuccess	0.0	Go_X	1.0
638.232	1.0	go	0.382	Go_X	1.0
640.756	1.0	go	0.437	Go_O	1.0
643.28	1.0	go	0.312	Go_O	0.0
645.804	1.0	go	0.393	Go_X	1.0
648.328	1.0	go	0.339	Go_X	1.0
650.853	1.0	go	0.295	Go_O	1.0
653.377	1.0	go	0.355	Go_O	1.0
655.901	1.0	go	0.263	Go_X	1.0
658.425	0.15	stopfail	0.393	Go_O	0.0
660.949	1.0	go	0.354	Go_O	1.0
663.474	1.0	go	0.282	Go_X	1.0
666.014	0.1	stopsuccess	0.0	Go_X	1.0
668.539	1.0	go	0.371	Go_X	1.0
671.063	1.0	go	0.423	Go_O	1.0
673.587	1.0	go	0.521	Go_O	1.0
676.111	1.0	go	0.271	Go_X	1.0
678.635	1.0	go	0.341	Go_X	1.0
681.16	0.15	stopfail	0.303	Go_O	0.0
683.701	1.0	go	0.401	Go_O	1.0
686.225	1.0	go	0.178	Go_O	0.0
688.749	1.0	go	0.341	Go_X	1.0
691.273	0.1	stopsuccess	0.0	Go_X	1.0
693.814	1.0	go	0.384	Go_X	1.0
696.338	0.15	stopsuccess	0.0	Go_O	1.0
698.862	1.0	go	0.311	Go_O	1.0
701.387	1.0	go	0.416	Go_X	1.0
703.928	1.0	go	0.367	Go_O	1.0
706.452	1.0	go	0.373	Go_O	1.0
708.976	1.0	go	0.302	Go_X	1.0
711.517	1.0	go	0.351	Go_O	1.0
714.041	1.0	go	0.299	Go_X	0.0
716.565	0.2	stopfail	0.326	Go_X	0.0
719.089	1.0	go	0.401	Go_X	1.0
721.614	1.0	go	0.217	Go_O	1.0
724.154	1.0	go	0.324	Go_O	1.0
726.679	1.0	go	0.311	Go_X	1.0
729.203	0.15	stopfail	0.336	Go_O	0.0
731.744	1.0	go	0.495	Go_O	1.0
734.268	0.1	stopsuccess	0.0	Go_X	1.0
736.809	1.0	go	0.343	Go_X	1.0
739.333	1.0	go	0.267	Go_O	1.0
741.857	0.15	stopfail	0.321	Go_O	0.0
744.381	1.0	go	0.282	Go_X	1.0
746.906	1.0	go	0.362	Go_X	1.0
749.447	1.0	go	0.191	Go_O	1.0
751.971	1.0	go	0.225	Go_X	1.0
754.495	1.0	go	0.254	Go_O	1.0
757.019	1.0	go	0.299	Go_X	1.0
759.543	1.0	go	0.193	Go_O	1.0
762.067	1.0	go	0.443	Go_O	1.0
764.592	1.0	go	0.237	Go_X	1.0
767.133	1.0	go	0.251	Go_O	1.0
769.674	0.1	stopfail	0.211	Go_X	0.0
772.198	1.0	go	0.084	Go_X	0.0
774.722	1.0	go	0.431	Go_X	1.0
777.263	0.05	stopfail	0.21	Go_O	0.0
779.787	1.0	go	0.335	Go_O	1.0
782.313	0.0	stopsuccess	0.0	Go_X	1.0
784.852	1.0	go	0.448	Go_X	1.0
787.376	1.0	go	0.386	Go_O	1.0
789.9	0.05	stopsuccess	0.0	Go_O	1.0
792.441	1.0	go	0.347	Go_O	1.0
794.966	0.1	stopfail	0.279	Go_X	0.0
797.506	1.0	go	0.393	Go_X	1.0
800.031	1.0	go	0.21	Go_O	1.0
802.555	1.0	go	0.197	Go_X	1.0
805.079	0.05	stopfail	0.191	Go_O	0.0
807.603	1.0	go	0.282	Go_O	1.0
810.127	1.0	go	0.237	Go_X	1.0
812.652	1.0	go	0.154	Go_X	0.0
815.176	1.0	go	0.328	Go_O	1.0
817.7	0.0	stopsuccess	0.0	Go_X	1.0
820.241	1.0	go	0.312	Go_O	0.0
822.765	1.0	go	0.385	Go_X	1.0
825.289	0.05	stopsuccess	0.0	Go_O	1.0
827.83	1.0	go	0.386	Go_O	1.0
830.354	1.0	go	0.416	Go_X	1.0
832.879	1.0	go	0.427	Go_O	1.0
835.403	1.0	go	0.277	Go_X	1.0
837.927	0.1	stopsuccess	0.0	Go_X	1.0
840.451	1.0	go	0.404	Go_X	1.0
842.975	0.15	stopfail	0.254	Go_O	0.0
845.5	1.0	go	0.442	Go_O	1.0
848.024	1.0	go	0.255	Go_X	1.0
850.548	0.1	stopsuccess	0.0	Go_X	1.0
853.072	1.0	go	0.252	Go_O	1.0
855.596	1.0	go	0.424	Go_O	1.0
858.121	1.0	go	0.342	Go_X	1.0
860.645	1.0	go	0.29	Go_X	1.0
863.169	0.15	stopfail	0.321	Go_O	0.0
865.693	1.0	go	0.291	Go_O	0.0
868.234	0.1	stopfail	0.309	Go_X	0.0
870.758	1.0	go	0.388	Go_X	1.0
873.299	1.0	go	0.301	Go_O	1.0
875.823	1.0	go	0.275	Go_X	1.0
878.348	1.0	go	0.1	Go_O	1.0
880.872	1.0	go	0.334	Go_X	1.0
883.396	1.0	go	0.243	Go_O	1.0
885.92	0.05	stopfail	0.178	Go_O	0.0
888.444	1.0	go	0.382	Go_O	1.0
890.969	1.0	go	0.291	Go_X	1.0
893.493	0.0	stopsuccess	0.0	Go_X	1.0
896.05	1.0	go	0.447	Go_X	1.0
898.575	1.0	go	0.267	Go_O	1.0
901.099	0.05	stopsuccess	0.0	Go_O	1.0
903.623	1.0	go	0.296	Go_X	1.0
906.147	1.0	go	0.4	Go_O	1.0
908.671	1.0	go	0.359	Go_O	1.0
911.195	1.0	go	0.324	Go_X	1.0
913.72	0.1	stopsuccess	0.0	Go_X	1.0
916.245	1.0	go	0.382	Go_X	1.0
918.768	0.15	stopsuccess	0.0	Go_O	1.0
921.292	1.0	go	0.423	Go_O	1.0
923.816	1.0	go	0.355	Go_X	1.0
926.341	1.0	go	0.445	Go_O	0.0
928.865	1.0	go	0.446	Go_O	1.0
931.389	1.0	go	0.275	Go_X	1.0
933.913	0.2	stopfail	0.373	Go_X	0.0
936.437	1.0	go	0.37	Go_X	1.0
938.962	1.0	go	0.237	Go_O	1.0
941.486	0.15	stopfail	0.3	Go_O	0.0
944.01	0.1	stopfail	0.25	Go_X	0.0
946.534	1.0	go	0.38	Go_X	1.0
949.058	1.0	go	0.269	Go_O	1.0
951.583	1.0	go	0.214	Go_O	0.0
954.107	1.0	go	0.234	Go_X	1.0
956.648	0.05	stopsuccess	0.0	Go_O	1.0
959.189	1.0	go	0.287	Go_O	1.0
