onset	duration	trial_type	response_time	stim_file	accuracy
102.042	1.0	go	0.623	Go_O	1.0
104.567	1.0	go	0.44	Go_X	1.0
107.091	1.0	go	0.43	Go_X	1.0
109.615	1.0	go	0.478	Go_O	1.0
112.139	1.0	go	0.426	Go_X	1.0
114.663	1.0	go	0.471	Go_O	1.0
117.187	0.25	stopsuccess	0.0	Go_O	1.0
119.712	1.0	go	0.413	Go_O	1.0
122.236	0.3	stopfail	0.424	Go_X	0.0
124.76	1.0	go	0.523	Go_X	1.0
127.284	1.0	go	0.351	Go_X	1.0
129.808	1.0	go	0.409	Go_O	1.0
132.332	0.25	stopsuccess	0.0	Go_O	1.0
134.857	1.0	go	0.442	Go_O	1.0
137.381	1.0	go	0.393	Go_X	1.0
139.905	0.3	stopfail	0.405	Go_X	0.0
142.429	0.25	stopfail	0.37	Go_O	0.0
144.953	1.0	go	0.484	Go_X	1.0
147.477	1.0	go	0.374	Go_O	1.0
150.002	0.2	stopfail	0.645	Go_X	0.0
152.526	1.0	go	0.356	Go_X	1.0
155.05	1.0	go	0.335	Go_O	1.0
157.574	0.15	stopsuccess	0.0	Go_O	1.0
160.098	1.0	go	0.428	Go_O	1.0
162.622	1.0	go	0.358	Go_X	1.0
165.147	0.2	stopsuccess	0.0	Go_X	1.0
167.671	1.0	go	0.459	Go_O	1.0
170.195	1.0	go	0.315	Go_X	1.0
172.719	0.25	stopfail	0.221	Go_O	0.0
175.243	1.0	go	0.261	Go_X	1.0
177.768	1.0	go	0.224	Go_O	1.0
180.292	1.0	go	0.37	Go_O	0.0
182.816	1.0	go	0.328	Go_X	1.0
185.34	1.0	go	0.262	Go_O	1.0
187.864	0.2	stopfail	0.341	Go_X	0.0
190.388	1.0	go	0.359	Go_X	1.0
192.913	1.0	go	0.33	Go_O	1.0
195.437	1.0	go	0.358	Go_X	1.0
197.961	1.0	go	0.199	Go_O	1.0
200.485	1.0	go	0.285	Go_X	1.0
203.009	0.15	stopfail	0.266	Go_O	0.0
205.533	1.0	go	0.309	Go_O	1.0
208.058	1.0	go	0.382	Go_X	1.0
210.582	1.0	go	0.352	Go_O	1.0
213.106	1.0	go	0.301	Go_X	1.0
215.63	1.0	go	0.357	Go_X	1.0
218.154	1.0	go	0.36	Go_O	1.0
220.678	0.1	stopfail	0.354	Go_X	0.0
223.203	1.0	go	0.498	Go_O	1.0
225.727	1.0	go	0.277	Go_X	1.0
228.251	0.05	stopfail	0.332	Go_O	0.0
230.775	1.0	go	0.292	Go_X	1.0
233.299	0.0	stopsuccess	0.0	Go_X	1.0
235.84	0.05	stopfail	0.267	Go_O	0.0
238.364	1.0	go	0.441	Go_O	0.0
240.888	1.0	go	0.382	Go_O	1.0
243.413	1.0	go	0.305	Go_X	1.0
245.937	1.0	go	0.236	Go_O	1.0
248.461	0.0	stopsuccess	0.0	Go_X	1.0
251.019	1.0	go	0.399	Go_X	1.0
253.543	0.05	stopsuccess	0.0	Go_O	1.0
256.067	1.0	go	0.353	Go_X	1.0
258.591	1.0	go	0.45	Go_O	1.0
261.115	1.0	go	0.393	Go_O	1.0
263.639	1.0	go	0.307	Go_X	1.0
266.164	1.0	go	0.35	Go_O	1.0
268.688	1.0	go	0.309	Go_X	1.0
271.212	1.0	go	0.353	Go_O	1.0
273.736	1.0	go	0.318	Go_X	1.0
276.26	1.0	go	0.245	Go_O	1.0
278.785	0.1	stopfail	0.231	Go_X	0.0
281.309	1.0	go	0.364	Go_X	1.0
283.833	1.0	go	0.353	Go_X	1.0
286.357	1.0	go	0.269	Go_O	1.0
288.881	0.05	stopsuccess	0.0	Go_O	1.0
291.405	1.0	go	0.346	Go_X	1.0
293.93	1.0	go	0.37	Go_O	1.0
296.454	1.0	go	0.26	Go_X	1.0
298.978	1.0	go	0.251	Go_O	1.0
301.502	1.0	go	0.2	Go_X	1.0
304.026	1.0	go	0.226	Go_O	1.0
306.55	0.1	stopfail	0.16	Go_X	0.0
309.075	1.0	go	0.262	Go_O	1.0
311.599	1.0	go	0.303	Go_X	1.0
314.123	0.05	stopfail	0.167	Go_O	0.0
316.647	1.0	go	0.221	Go_O	0.0
319.171	1.0	go	0.281	Go_X	1.0
321.695	0.0	stopsuccess	0.0	Go_X	1.0
324.236	1.0	go	0.388	Go_X	1.0
326.76	0.05	stopfail	0.225	Go_O	0.0
329.285	1.0	go	0.358	Go_O	1.0
331.809	1.0	go	0.349	Go_O	1.0
334.333	1.0	go	0.414	Go_X	1.0
336.857	1.0	go	0.234	Go_O	1.0
339.381	1.0	go	0.258	Go_X	1.0
341.906	0.0	stopsuccess	0.0	Go_X	1.0
344.446	0.05	stopsuccess	0.0	Go_O	1.0
346.971	1.0	go	0.237	Go_O	1.0
349.495	1.0	go	0.227	Go_X	1.0
352.019	0.1	stopfail	0.368	Go_X	0.0
354.543	1.0	go	0.382	Go_O	1.0
357.067	1.0	go	0.355	Go_X	0.0
359.591	1.0	go	0.511	Go_X	1.0
362.116	1.0	go	0.293	Go_O	1.0
364.64	1.0	go	0.215	Go_X	1.0
367.164	1.0	go	0.212	Go_O	1.0
369.688	0.05	stopsuccess	0.0	Go_O	1.0
372.212	1.0	go	0.383	Go_X	1.0
374.736	1.0	go	0.26	Go_O	0.0
377.261	1.0	go	0.31	Go_X	1.0
379.785	1.0	go	0.253	Go_O	1.0
382.309	1.0	go	0.457	Go_O	1.0
384.833	0.1	stopfail	0.298	Go_X	0.0
387.357	1.0	go	0.35	Go_X	1.0
389.882	1.0	go	0.305	Go_X	1.0
392.406	1.0	go	0.263	Go_O	1.0
394.93	1.0	go	0.416	Go_O	1.0
397.454	0.05	stopsuccess	0.0	Go_O	1.0
399.978	1.0	go	0.274	Go_X	1.0
402.502	1.0	go	0.377	Go_X	1.0
405.027	0.1	stopfail	0.391	Go_X	0.0
407.567	1.0	go	0.251	Go_O	1.0
410.092	0.05	stopsuccess	0.0	Go_O	1.0
412.616	1.0	go	0.347	Go_X	1.0
415.14	1.0	go	0.364	Go_O	1.0
417.664	1.0	go	0.277	Go_X	1.0
420.188	1.0	go	0.275	Go_O	1.0
422.712	1.0	go	0.263	Go_O	0.0
425.237	1.0	go	0.343	Go_X	0.0
427.761	1.0	go	0.366	Go_X	1.0
430.285	0.1	stopsuccess	0.0	Go_X	1.0
432.809	1.0	go	0.374	Go_O	1.0
435.333	1.0	go	0.246	Go_X	1.0
437.857	1.0	go	0.439	Go_O	1.0
440.382	0.15	stopfail	0.431	Go_O	0.0
442.906	1.0	go	0.38	Go_O	1.0
445.43	1.0	go	0.321	Go_X	1.0
447.954	1.0	go	0.285	Go_O	1.0
450.478	1.0	go	0.372	Go_X	1.0
453.003	0.1	stopsuccess	0.0	Go_X	1.0
455.543	1.0	go	0.362	Go_O	1.0
458.068	1.0	go	0.341	Go_X	1.0
460.592	0.15	stopsuccess	0.0	Go_O	1.0
463.116	1.0	go	0.312	Go_O	1.0
465.64	1.0	go	0.503	Go_X	1.0
468.164	0.2	stopfail	0.353	Go_X	0.0
470.688	1.0	go	0.259	Go_O	1.0
473.213	1.0	go	0.314	Go_X	1.0
475.737	0.15	stopfail	0.307	Go_O	0.0
478.261	1.0	go	0.353	Go_O	1.0
480.785	1.0	go	0.412	Go_X	1.0
483.309	1.0	go	0.263	Go_X	0.0
485.833	1.0	go	0.417	Go_O	1.0
488.358	1.0	go	0.297	Go_X	1.0
490.882	1.0	go	0.433	Go_O	1.0
493.406	0.1	stopfail	0.292	Go_X	0.0
495.93	1.0	go	0.434	Go_O	1.0
498.454	0.05	stopsuccess	0.0	Go_O	1.0
500.978	1.0	go	0.321	Go_X	1.0
503.503	1.0	go	0.406	Go_X	1.0
506.027	1.0	go	0.366	Go_O	1.0
508.551	1.0	go	0.242	Go_X	1.0
511.075	1.0	go	0.355	Go_O	1.0
513.599	0.1	stopsuccess	0.0	Go_X	1.0
516.124	1.0	go	0.352	Go_O	1.0
518.648	1.0	go	0.262	Go_X	1.0
521.172	1.0	go	0.409	Go_O	1.0
523.696	0.15	stopsuccess	0.0	Go_O	1.0
526.22	0.2	stopfail	0.467	Go_X	0.0
528.744	0.15	stopsuccess	0.0	Go_O	1.0
531.269	1.0	go	0.497	Go_X	1.0
533.793	0.2	stopsuccess	0.0	Go_X	1.0
536.317	1.0	go	0.48	Go_O	1.0
538.841	1.0	go	0.471	Go_X	1.0
541.365	1.0	go	0.404	Go_X	1.0
543.889	1.0	go	0.405	Go_O	1.0
546.414	1.0	go	0.401	Go_O	1.0
548.938	1.0	go	0.442	Go_X	1.0
551.462	1.0	go	0.462	Go_O	1.0
553.986	1.0	go	0.362	Go_X	1.0
556.51	0.25	stopsuccess	0.0	Go_O	1.0
559.034	1.0	go	0.524	Go_O	1.0
561.559	1.0	go	0.36	Go_X	1.0
564.083	0.3	stopfail	0.407	Go_X	0.0
566.607	1.0	go	0.387	Go_O	1.0
569.131	1.0	go	0.527	Go_X	1.0
571.655	1.0	go	0.447	Go_O	1.0
574.179	1.0	go	0.537	Go_X	1.0
576.704	1.0	go	0.373	Go_X	1.0
579.228	0.25	stopfail	0.427	Go_O	0.0
581.752	1.0	go	0.513	Go_O	1.0
584.276	1.0	go	0.44	Go_O	1.0
586.8	1.0	go	0.403	Go_X	1.0
589.325	0.2	stopfail	0.32	Go_X	0.0
591.849	1.0	go	0.364	Go_O	1.0
594.373	0.15	stopsuccess	0.0	Go_O	1.0
596.898	1.0	go	0.267	Go_X	1.0
599.421	1.0	go	0.38	Go_X	1.0
601.945	1.0	go	0.254	Go_O	1.0
604.47	1.0	go	0.327	Go_X	1.0
606.994	1.0	go	0.365	Go_O	1.0
609.518	1.0	go	0.363	Go_O	1.0
612.042	1.0	go	0.304	Go_X	1.0
614.566	0.2	stopfail	0.324	Go_X	0.0
617.09	1.0	go	0.56	Go_X	1.0
619.615	1.0	go	0.454	Go_O	1.0
622.139	1.0	go	0.651	Go_X	1.0
624.663	1.0	go	0.36	Go_O	1.0
627.187	0.15	stopsuccess	0.0	Go_O	1.0
629.711	1.0	go	0.465	Go_O	1.0
632.235	0.2	stopfail	0.266	Go_X	0.0
634.76	1.0	go	0.494	Go_X	1.0
637.284	1.0	go	0.438	Go_O	1.0
639.808	0.15	stopsuccess	0.0	Go_O	1.0
642.332	1.0	go	0.483	Go_X	1.0
644.856	1.0	go	0.413	Go_X	1.0
647.38	1.0	go	0.639	Go_O	1.0
649.905	1.0	go	0.435	Go_X	1.0
652.429	1.0	go	0.438	Go_O	1.0
654.953	1.0	go	0.722	Go_O	1.0
657.477	1.0	go	0.55	Go_X	1.0
660.001	1.0	go	0.486	Go_X	1.0
662.525	1.0	go	0.513	Go_O	1.0
665.05	1.0	go	0.495	Go_X	1.0
667.574	0.2	stopfail	0.322	Go_X	0.0
670.098	1.0	go	0.492	Go_O	1.0
672.622	1.0	go	0.393	Go_X	1.0
675.146	0.15	stopsuccess	0.0	Go_O	1.0
677.671	1.0	go	0.511	Go_O	1.0
680.195	0.2	stopfail	0.296	Go_X	0.0
682.719	1.0	go	0.663	Go_X	1.0
685.243	1.0	go	0.589	Go_O	1.0
687.767	0.15	stopsuccess	0.0	Go_O	1.0
690.291	1.0	go	0.582	Go_O	1.0
692.816	0.2	stopsuccess	0.0	Go_X	1.0
695.356	1.0	go	0.51	Go_X	1.0
697.881	1.0	go	0.509	Go_O	1.0
700.405	1.0	go	0.382	Go_X	1.0
702.929	0.25	stopfail	0.323	Go_O	0.0
705.453	1.0	go	0.421	Go_X	1.0
707.977	1.0	go	0.461	Go_O	1.0
710.501	1.0	go	0.395	Go_X	1.0
713.026	1.0	go	0.359	Go_O	1.0
715.55	0.2	stopfail	0.37	Go_X	0.0
718.074	1.0	go	0.455	Go_O	1.0
720.598	1.0	go	0.368	Go_X	1.0
723.122	0.15	stopsuccess	0.0	Go_O	1.0
725.646	1.0	go	0.369	Go_X	1.0
728.171	1.0	go	0.417	Go_O	1.0
730.695	1.0	go	0.297	Go_X	1.0
733.219	1.0	go	0.397	Go_O	0.0
735.743	0.2	stopfail	0.368	Go_X	0.0
738.267	1.0	go	0.542	Go_X	1.0
740.792	0.15	stopsuccess	0.0	Go_O	1.0
743.316	1.0	go	0.0	Go_O	0.0
745.84	1.0	go	0.466	Go_O	1.0
748.364	0.2	stopsuccess	0.0	Go_X	1.0
750.888	1.0	go	0.582	Go_X	1.0
753.412	1.0	go	0.458	Go_X	1.0
755.937	1.0	go	0.695	Go_O	1.0
758.461	1.0	go	0.572	Go_X	1.0
760.985	0.25	stopfail	0.435	Go_O	0.0
763.509	1.0	go	0.455	Go_O	1.0
766.033	0.2	stopsuccess	0.0	Go_X	1.0
768.557	1.0	go	0.584	Go_X	1.0
771.082	1.0	go	0.51	Go_O	1.0
773.622	1.0	go	0.434	Go_O	1.0
776.147	1.0	go	0.353	Go_X	1.0
778.671	1.0	go	0.44	Go_O	1.0
781.195	1.0	go	0.315	Go_X	1.0
783.719	0.25	stopfail	0.396	Go_O	0.0
786.243	1.0	go	0.617	Go_O	1.0
788.768	1.0	go	0.445	Go_X	1.0
791.292	0.2	stopsuccess	0.0	Go_X	1.0
793.816	1.0	go	0.364	Go_O	1.0
796.34	1.0	go	0.574	Go_X	1.0
798.864	0.25	stopsuccess	0.0	Go_O	1.0
801.388	1.0	go	0.419	Go_X	1.0
803.913	1.0	go	0.475	Go_O	1.0
806.437	1.0	go	0.535	Go_O	1.0
808.961	1.0	go	0.494	Go_X	1.0
811.485	0.3	stopfail	0.353	Go_X	0.0
814.009	1.0	go	0.434	Go_X	1.0
816.533	0.25	stopsuccess	0.0	Go_O	1.0
819.058	1.0	go	0.41	Go_O	1.0
821.582	1.0	go	0.638	Go_O	1.0
824.106	1.0	go	0.349	Go_X	1.0
826.63	1.0	go	0.418	Go_O	1.0
829.154	1.0	go	0.401	Go_X	1.0
831.678	0.3	stopfail	0.386	Go_X	0.0
834.203	1.0	go	0.365	Go_X	1.0
836.727	1.0	go	0.403	Go_O	1.0
839.251	0.25	stopsuccess	0.0	Go_O	1.0
841.775	0.3	stopfail	0.537	Go_X	0.0
844.299	1.0	go	0.594	Go_O	1.0
846.823	1.0	go	0.374	Go_X	1.0
849.348	1.0	go	0.467	Go_X	0.0
851.872	1.0	go	0.691	Go_O	1.0
854.396	0.25	stopfail	0.436	Go_O	0.0
856.92	1.0	go	0.547	Go_O	1.0
