onset	duration	trial_type	response_time	stim_file	accuracy
62.273	1.0	go	0.444	Go_O	1.0
64.83	1.0	go	0.376	Go_X	1.0
67.354	1.0	go	0.368	Go_X	1.0
69.879	1.0	go	0.311	Go_O	1.0
72.403	1.0	go	0.359	Go_X	1.0
74.927	1.0	go	0.239	Go_O	1.0
77.451	0.25	stopfail	0.36	Go_O	0.0
79.975	1.0	go	0.251	Go_O	1.0
82.499	0.2	stopfail	0.311	Go_X	0.0
85.024	1.0	go	0.266	Go_X	0.0
87.548	1.0	go	0.301	Go_O	1.0
90.072	1.0	go	0.323	Go_X	1.0
92.596	0.15	stopfail	0.231	Go_O	0.0
95.12	1.0	go	0.293	Go_X	1.0
97.644	1.0	go	0.242	Go_O	0.0
100.169	0.1	stopfail	0.263	Go_X	0.0
102.693	0.05	stopfail	0.182	Go_O	0.0
105.217	1.0	go	0.753	Go_X	1.0
107.741	1.0	go	0.281	Go_O	1.0
110.265	0.0	stopsuccess	0.0	Go_X	1.0
112.806	1.0	go	0.419	Go_O	1.0
115.33	1.0	go	0.297	Go_X	1.0
117.854	0.05	stopfail	0.233	Go_O	0.0
120.379	1.0	go	0.465	Go_O	1.0
122.903	1.0	go	0.289	Go_X	1.0
125.427	0.0	stopsuccess	0.0	Go_X	1.0
127.968	1.0	go	0.238	Go_O	1.0
130.492	1.0	go	0.332	Go_X	0.0
133.016	0.05	stopfail	0.237	Go_O	0.0
135.54	1.0	go	0.298	Go_X	1.0
138.064	1.0	go	0.248	Go_O	1.0
140.589	1.0	go	0.357	Go_X	1.0
143.113	1.0	go	0.324	Go_O	1.0
145.637	1.0	go	0.348	Go_X	1.0
148.161	0.0	stopsuccess	0.0	Go_X	1.0
150.702	1.0	go	0.272	Go_O	1.0
153.226	1.0	go	0.398	Go_O	1.0
155.75	1.0	go	0.392	Go_X	1.0
158.274	1.0	go	0.392	Go_O	1.0
160.799	1.0	go	0.361	Go_X	1.0
163.323	0.05	stopsuccess	0.0	Go_O	1.0
165.847	1.0	go	0.381	Go_O	1.0
168.371	1.0	go	0.35	Go_X	1.0
170.895	1.0	go	0.296	Go_X	1.0
173.419	1.0	go	0.331	Go_O	1.0
175.944	1.0	go	0.328	Go_O	1.0
178.468	1.0	go	0.46	Go_X	1.0
180.992	0.1	stopsuccess	0.0	Go_X	1.0
183.516	1.0	go	0.345	Go_O	1.0
186.04	1.0	go	0.346	Go_X	1.0
188.564	0.15	stopsuccess	0.0	Go_O	1.0
191.088	1.0	go	0.357	Go_O	1.0
193.613	0.2	stopsuccess	0.0	Go_X	1.0
196.137	0.25	stopfail	0.306	Go_O	0.0
198.661	1.0	go	0.352	Go_X	1.0
201.185	1.0	go	0.41	Go_X	1.0
203.709	1.0	go	0.379	Go_O	1.0
206.233	1.0	go	0.389	Go_O	1.0
208.758	0.2	stopfail	0.316	Go_X	0.0
211.282	1.0	go	0.335	Go_X	1.0
213.806	0.15	stopsuccess	0.0	Go_O	1.0
216.33	1.0	go	0.38	Go_O	1.0
218.854	1.0	go	0.357	Go_X	1.0
221.378	1.0	go	0.331	Go_O	1.0
223.903	1.0	go	0.482	Go_X	1.0
226.427	1.0	go	0.343	Go_O	1.0
228.951	1.0	go	0.311	Go_X	1.0
231.475	1.0	go	0.304	Go_O	1.0
233.999	1.0	go	0.307	Go_X	0.0
236.523	1.0	go	0.408	Go_X	1.0
239.048	0.2	stopfail	0.292	Go_X	0.0
241.572	1.0	go	0.362	Go_O	1.0
244.096	1.0	go	0.284	Go_O	0.0
246.62	1.0	go	0.372	Go_X	1.0
249.144	0.15	stopfail	0.326	Go_O	0.0
251.668	1.0	go	0.308	Go_X	1.0
254.193	1.0	go	0.269	Go_O	1.0
256.717	1.0	go	0.406	Go_X	1.0
259.241	1.0	go	0.386	Go_O	1.0
261.765	1.0	go	0.362	Go_O	1.0
264.289	1.0	go	0.258	Go_X	1.0
266.813	0.1	stopsuccess	0.0	Go_X	1.0
269.337	1.0	go	0.324	Go_O	1.0
271.862	1.0	go	0.342	Go_X	1.0
274.386	0.15	stopfail	0.282	Go_O	0.0
276.91	1.0	go	0.314	Go_O	1.0
279.434	1.0	go	0.396	Go_X	1.0
281.958	0.1	stopsuccess	0.0	Go_X	1.0
284.482	1.0	go	0.386	Go_X	1.0
287.007	0.15	stopsuccess	0.0	Go_O	1.0
289.531	1.0	go	0.404	Go_O	1.0
292.055	1.0	go	0.33	Go_X	1.0
294.579	1.0	go	0.465	Go_O	1.0
297.103	1.0	go	0.451	Go_X	1.0
299.627	1.0	go	0.245	Go_O	1.0
302.152	0.2	stopsuccess	0.0	Go_X	1.0
304.676	0.25	stopfail	0.364	Go_O	0.0
307.2	1.0	go	0.421	Go_X	1.0
309.724	1.0	go	0.37	Go_O	1.0
312.248	0.2	stopsuccess	0.0	Go_X	1.0
314.772	1.0	go	0.395	Go_X	1.0
317.297	1.0	go	0.322	Go_O	1.0
319.821	1.0	go	0.289	Go_X	1.0
322.345	1.0	go	0.309	Go_O	1.0
324.869	1.0	go	0.472	Go_X	1.0
327.393	1.0	go	0.31	Go_O	1.0
329.917	0.25	stopfail	0.294	Go_O	0.0
332.441	1.0	go	0.334	Go_O	1.0
334.966	1.0	go	0.284	Go_X	1.0
337.49	1.0	go	0.229	Go_O	1.0
340.014	1.0	go	0.375	Go_X	1.0
342.538	1.0	go	0.288	Go_O	1.0
345.062	0.2	stopfail	0.297	Go_X	0.0
347.586	1.0	go	0.463	Go_X	1.0
350.111	1.0	go	0.31	Go_X	1.0
352.635	1.0	go	0.292	Go_O	0.0
355.159	1.0	go	0.443	Go_X	1.0
357.683	0.15	stopsuccess	0.0	Go_O	1.0
360.207	1.0	go	0.373	Go_O	1.0
362.731	1.0	go	0.36	Go_O	1.0
365.256	0.2	stopsuccess	0.0	Go_X	1.0
367.78	1.0	go	0.449	Go_X	1.0
370.304	0.25	stopsuccess	0.0	Go_O	1.0
372.828	1.0	go	0.351	Go_O	1.0
375.352	1.0	go	0.36	Go_X	1.0
377.876	1.0	go	0.409	Go_X	1.0
380.401	1.0	go	0.397	Go_O	1.0
382.925	1.0	go	0.432	Go_O	1.0
385.449	1.0	go	0.646	Go_X	1.0
387.973	1.0	go	0.38	Go_X	1.0
390.497	0.3	stopfail	0.387	Go_X	0.0
393.021	1.0	go	0.441	Go_O	1.0
395.546	1.0	go	0.504	Go_O	1.0
398.07	1.0	go	0.525	Go_X	1.0
400.594	0.25	stopfail	0.403	Go_O	0.0
403.118	1.0	go	0.426	Go_O	1.0
405.642	1.0	go	0.285	Go_X	1.0
408.166	1.0	go	0.266	Go_X	1.0
410.69	1.0	go	0.347	Go_O	1.0
413.215	0.2	stopfail	0.342	Go_X	0.0
415.739	1.0	go	0.44	Go_O	1.0
418.263	1.0	go	0.429	Go_X	1.0
420.787	0.15	stopsuccess	0.0	Go_O	1.0
423.311	1.0	go	0.368	Go_X	1.0
425.835	1.0	go	0.376	Go_O	1.0
428.36	0.2	stopsuccess	0.0	Go_X	1.0
430.884	1.0	go	0.325	Go_O	1.0
433.408	1.0	go	0.361	Go_X	1.0
435.932	0.25	stopsuccess	0.0	Go_O	1.0
438.456	1.0	go	0.431	Go_X	1.0
440.98	1.0	go	0.33	Go_O	1.0
443.505	1.0	go	0.462	Go_X	1.0
446.029	1.0	go	0.653	Go_O	1.0
448.553	1.0	go	0.468	Go_X	1.0
451.077	1.0	go	0.397	Go_O	1.0
453.601	0.3	stopfail	0.424	Go_X	0.0
456.125	1.0	go	0.363	Go_O	1.0
458.65	0.25	stopfail	0.388	Go_O	0.0
461.174	1.0	go	0.348	Go_X	1.0
463.698	1.0	go	0.488	Go_O	1.0
466.222	1.0	go	0.424	Go_X	1.0
468.746	1.0	go	0.388	Go_O	1.0
471.27	1.0	go	0.444	Go_X	1.0
473.794	0.2	stopsuccess	0.0	Go_X	1.0
476.319	1.0	go	0.358	Go_O	1.0
478.843	1.0	go	0.334	Go_X	1.0
481.367	1.0	go	0.39	Go_O	1.0
483.891	0.25	stopsuccess	0.0	Go_O	1.0
486.415	0.3	stopfail	0.447	Go_X	0.0
488.939	0.25	stopfail	0.313	Go_O	0.0
491.464	1.0	go	0.506	Go_X	1.0
493.988	0.2	stopfail	0.373	Go_X	0.0
496.512	1.0	go	0.531	Go_X	1.0
499.036	1.0	go	0.208	Go_O	1.0
501.56	1.0	go	0.264	Go_O	0.0
504.084	1.0	go	0.282	Go_X	1.0
506.609	1.0	go	0.157	Go_O	1.0
509.133	1.0	go	0.183	Go_X	0.0
511.657	1.0	go	0.391	Go_O	1.0
514.181	1.0	go	0.302	Go_X	1.0
516.705	0.15	stopfail	0.391	Go_O	0.0
519.229	1.0	go	0.581	Go_X	1.0
521.754	1.0	go	0.28	Go_O	1.0
524.278	0.1	stopsuccess	0.0	Go_X	1.0
526.819	1.0	go	0.412	Go_X	1.0
529.343	1.0	go	0.29	Go_O	1.0
531.9	1.0	go	0.401	Go_X	1.0
534.425	1.0	go	0.27	Go_O	1.0
536.949	1.0	go	0.425	Go_X	1.0
539.473	0.15	stopfail	0.216	Go_O	0.0
541.997	1.0	go	0.425	Go_O	1.0
544.521	1.0	go	0.429	Go_O	1.0
547.045	1.0	go	0.401	Go_X	1.0
549.569	0.1	stopsuccess	0.0	Go_X	1.0
552.094	1.0	go	0.27	Go_O	1.0
554.618	0.15	stopsuccess	0.0	Go_O	1.0
557.142	1.0	go	0.363	Go_X	1.0
559.666	1.0	go	0.362	Go_X	1.0
562.19	1.0	go	0.303	Go_O	1.0
564.714	1.0	go	0.48	Go_O	1.0
567.239	1.0	go	0.36	Go_X	1.0
569.763	1.0	go	0.595	Go_O	1.0
572.287	1.0	go	0.517	Go_X	1.0
574.811	0.2	stopsuccess	0.0	Go_X	1.0
577.335	1.0	go	0.426	Go_X	1.0
579.859	1.0	go	0.456	Go_O	1.0
582.384	1.0	go	0.554	Go_X	1.0
584.908	1.0	go	0.451	Go_O	1.0
587.432	0.25	stopsuccess	0.0	Go_O	1.0
589.956	1.0	go	0.366	Go_O	1.0
592.48	0.3	stopfail	0.385	Go_X	0.0
595.004	1.0	go	0.164	Go_X	0.0
597.529	1.0	go	0.378	Go_O	1.0
600.053	0.25	stopfail	0.329	Go_O	0.0
602.577	1.0	go	0.243	Go_X	1.0
605.101	1.0	go	0.382	Go_X	1.0
607.625	1.0	go	0.328	Go_O	1.0
610.149	1.0	go	0.304	Go_X	1.0
612.674	1.0	go	0.332	Go_O	1.0
615.198	1.0	go	0.345	Go_X	1.0
617.722	1.0	go	0.298	Go_O	1.0
620.246	1.0	go	0.347	Go_X	1.0
622.77	1.0	go	0.447	Go_O	1.0
625.294	1.0	go	0.391	Go_O	1.0
627.818	0.2	stopsuccess	0.0	Go_X	1.0
630.343	1.0	go	0.539	Go_X	1.0
632.867	1.0	go	0.465	Go_X	1.0
635.391	0.25	stopfail	0.413	Go_O	0.0
637.915	1.0	go	0.442	Go_O	1.0
640.439	0.2	stopsuccess	0.0	Go_X	1.0
642.963	1.0	go	0.606	Go_O	1.0
645.488	1.0	go	0.421	Go_X	1.0
648.012	0.25	stopfail	0.407	Go_O	0.0
650.536	1.0	go	0.43	Go_O	1.0
653.06	0.2	stopsuccess	0.0	Go_X	1.0
655.584	1.0	go	0.405	Go_X	1.0
658.108	1.0	go	0.341	Go_O	1.0
660.633	1.0	go	0.52	Go_X	1.0
663.157	0.25	stopfail	0.435	Go_O	0.0
665.681	1.0	go	0.481	Go_X	1.0
668.205	1.0	go	0.424	Go_O	1.0
670.729	1.0	go	0.361	Go_O	1.0
673.253	1.0	go	0.36	Go_X	1.0
675.778	0.2	stopfail	0.288	Go_X	0.0
678.302	1.0	go	0.295	Go_O	1.0
680.826	1.0	go	0.557	Go_X	1.0
683.35	0.15	stopsuccess	0.0	Go_O	1.0
685.874	1.0	go	0.42	Go_X	1.0
688.398	1.0	go	0.576	Go_O	1.0
690.922	1.0	go	0.561	Go_X	1.0
693.447	1.0	go	0.328	Go_O	1.0
695.971	0.2	stopfail	0.335	Go_X	0.0
698.495	1.0	go	0.703	Go_X	1.0
701.019	0.15	stopfail	0.246	Go_O	0.0
703.543	1.0	go	0.331	Go_O	1.0
706.067	1.0	go	0.322	Go_X	1.0
708.592	0.1	stopsuccess	0.0	Go_X	1.0
711.116	1.0	go	0.311	Go_O	1.0
713.64	1.0	go	0.322	Go_O	1.0
716.164	1.0	go	0.244	Go_X	1.0
718.688	1.0	go	0.255	Go_O	1.0
721.212	0.15	stopfail	0.26	Go_O	0.0
723.737	1.0	go	0.42	Go_X	1.0
726.261	0.1	stopfail	0.187	Go_X	0.0
728.785	1.0	go	0.193	Go_O	1.0
731.309	1.0	go	0.315	Go_X	1.0
733.833	1.0	go	0.237	Go_O	1.0
736.357	1.0	go	0.301	Go_X	1.0
738.882	1.0	go	0.285	Go_O	1.0
741.406	1.0	go	0.369	Go_X	1.0
743.93	0.05	stopsuccess	0.0	Go_O	1.0
746.454	1.0	go	0.316	Go_O	1.0
748.978	1.0	go	0.235	Go_X	1.0
751.502	0.1	stopfail	0.294	Go_X	0.0
754.027	1.0	go	0.412	Go_X	1.0
756.551	1.0	go	0.294	Go_O	1.0
759.075	0.05	stopsuccess	0.0	Go_O	1.0
761.599	1.0	go	0.383	Go_O	1.0
764.123	1.0	go	0.305	Go_X	1.0
766.647	1.0	go	0.315	Go_X	1.0
769.171	1.0	go	0.27	Go_O	1.0
771.696	0.1	stopsuccess	0.0	Go_X	1.0
774.22	1.0	go	0.268	Go_O	1.0
776.744	0.15	stopfail	0.324	Go_O	0.0
779.268	1.0	go	0.534	Go_X	1.0
781.792	1.0	go	0.288	Go_O	1.0
784.316	1.0	go	0.256	Go_X	1.0
786.841	1.0	go	0.207	Go_O	1.0
789.365	1.0	go	0.282	Go_X	1.0
791.889	0.1	stopsuccess	0.0	Go_X	1.0
794.413	1.0	go	0.388	Go_O	1.0
796.937	1.0	go	0.332	Go_X	1.0
799.461	0.15	stopsuccess	0.0	Go_O	1.0
801.986	0.2	stopfail	0.237	Go_X	0.0
804.51	1.0	go	0.462	Go_X	1.0
807.034	1.0	go	0.338	Go_O	1.0
809.558	1.0	go	0.335	Go_X	1.0
812.082	1.0	go	0.311	Go_O	1.0
814.606	0.15	stopsuccess	0.0	Go_O	1.0
817.131	1.0	go	0.293	Go_O	1.0
