onset	duration	trial_type	response_time	stim_file	accuracy
60.649	1.0	go	0.826	Go_X	1.0
63.173	1.0	go	0.52	Go_O	1.0
65.697	1.0	go	0.502	Go_O	1.0
68.222	1.0	go	0.379	Go_X	1.0
70.746	1.0	go	0.666	Go_X	1.0
73.27	1.0	go	0.642	Go_O	1.0
75.794	0.25	stopsuccess	0.0	Go_O	1.0
78.318	1.0	go	0.495	Go_O	1.0
80.842	0.3	stopfail	0.529	Go_X	0.0
83.367	1.0	go	0.493	Go_X	1.0
85.891	1.0	go	0.651	Go_O	1.0
88.415	1.0	go	0.617	Go_X	1.0
90.939	0.25	stopsuccess	0.0	Go_O	1.0
93.463	1.0	go	0.465	Go_O	1.0
95.987	1.0	go	0.344	Go_X	1.0
98.512	0.3	stopsuccess	0.0	Go_X	1.0
101.036	0.35	stopfail	0.483	Go_O	0.0
103.56	1.0	go	0.569	Go_X	1.0
106.084	1.0	go	0.586	Go_O	1.0
108.608	0.3	stopsuccess	0.0	Go_X	1.0
111.132	1.0	go	0.586	Go_O	1.0
113.657	1.0	go	0.929	Go_X	1.0
116.181	0.35	stopsuccess	0.0	Go_O	1.0
118.705	1.0	go	0.77	Go_O	1.0
121.229	1.0	go	0.692	Go_X	1.0
123.753	0.4	stopsuccess	0.0	Go_X	1.0
126.277	1.0	go	0.373	Go_O	1.0
128.802	1.0	go	0.437	Go_X	1.0
131.326	0.45	stopsuccess	0.0	Go_O	1.0
133.85	1.0	go	0.48	Go_X	1.0
136.374	1.0	go	0.431	Go_O	1.0
138.898	1.0	go	0.684	Go_O	1.0
141.423	1.0	go	0.503	Go_X	1.0
143.947	1.0	go	0.486	Go_X	1.0
146.471	0.5	stopfail	0.444	Go_X	0.0
148.995	1.0	go	0.53	Go_O	1.0
151.519	1.0	go	0.658	Go_O	1.0
154.043	1.0	go	0.605	Go_X	1.0
156.568	1.0	go	0.562	Go_X	1.0
159.092	1.0	go	0.754	Go_O	1.0
161.616	0.45	stopfail	0.493	Go_O	0.0
164.14	1.0	go	0.585	Go_X	1.0
166.664	1.0	go	0.55	Go_O	1.0
169.188	1.0	go	0.782	Go_X	1.0
171.713	1.0	go	0.626	Go_O	1.0
174.237	1.0	go	0.759	Go_O	1.0
176.761	1.0	go	0.528	Go_X	1.0
179.285	0.4	stopfail	0.384	Go_X	0.0
181.809	1.0	go	0.596	Go_X	1.0
184.333	1.0	go	0.494	Go_O	1.0
186.858	0.35	stopsuccess	0.0	Go_O	1.0
189.382	1.0	go	0.49	Go_O	1.0
191.906	0.4	stopsuccess	0.0	Go_X	1.0
194.43	0.45	stopsuccess	0.0	Go_O	1.0
196.954	1.0	go	0.7	Go_X	1.0
199.478	1.0	go	0.548	Go_X	1.0
202.003	1.0	go	0.601	Go_O	1.0
204.527	1.0	go	0.495	Go_O	1.0
207.051	0.5	stopfail	0.42	Go_X	0.0
209.575	1.0	go	0.591	Go_X	1.0
212.099	0.45	stopsuccess	0.0	Go_O	1.0
214.624	1.0	go	0.635	Go_X	1.0
217.148	1.0	go	0.574	Go_O	1.0
219.672	1.0	go	0.752	Go_O	1.0
222.196	1.0	go	0.39	Go_X	1.0
224.72	1.0	go	0.552	Go_X	1.0
227.244	1.0	go	0.352	Go_O	1.0
229.769	1.0	go	0.544	Go_O	1.0
232.293	1.0	go	0.658	Go_X	1.0
234.817	1.0	go	0.463	Go_O	1.0
237.341	0.5	stopfail	0.695	Go_X	0.0
239.865	1.0	go	0.929	Go_X	1.0
242.389	1.0	go	0.878	Go_O	1.0
244.914	1.0	go	0.666	Go_X	1.0
247.438	0.45	stopfail	0.394	Go_O	0.0
249.962	1.0	go	0.724	Go_O	1.0
252.486	1.0	go	0.559	Go_X	1.0
255.01	1.0	go	0.582	Go_X	1.0
257.534	1.0	go	0.597	Go_O	1.0
260.059	1.0	go	0.56	Go_X	0.0
262.583	1.0	go	0.526	Go_O	1.0
265.107	0.4	stopsuccess	0.0	Go_X	1.0
267.631	1.0	go	0.346	Go_O	1.0
270.155	1.0	go	0.516	Go_X	1.0
272.679	0.45	stopsuccess	0.0	Go_O	1.0
275.204	1.0	go	0.462	Go_X	1.0
277.728	1.0	go	0.647	Go_O	1.0
280.252	0.5	stopfail	0.305	Go_X	0.0
282.776	1.0	go	0.572	Go_O	1.0
285.3	0.45	stopsuccess	0.0	Go_O	1.0
287.824	1.0	go	0.67	Go_X	1.0
290.349	1.0	go	0.663	Go_O	1.0
292.873	1.0	go	0.452	Go_X	1.0
295.397	1.0	go	0.48	Go_X	1.0
297.921	1.0	go	0.631	Go_O	1.0
300.445	0.5	stopfail	0.53	Go_X	0.0
302.97	0.45	stopsuccess	0.0	Go_O	1.0
305.494	1.0	go	0.671	Go_O	1.0
308.018	1.0	go	0.586	Go_X	1.0
310.542	0.5	stopfail	0.645	Go_X	0.0
313.066	1.0	go	0.617	Go_X	1.0
315.59	1.0	go	0.672	Go_O	1.0
318.115	1.0	go	0.682	Go_X	1.0
320.639	1.0	go	0.614	Go_O	1.0
323.163	1.0	go	0.675	Go_X	1.0
325.687	1.0	go	0.586	Go_O	1.0
328.211	0.45	stopfail	0.546	Go_O	0.0
330.735	1.0	go	0.673	Go_X	1.0
333.26	1.0	go	0.515	Go_O	1.0
335.784	1.0	go	0.848	Go_X	1.0
338.308	1.0	go	0.639	Go_O	1.0
340.832	1.0	go	0.563	Go_O	1.0
343.356	0.4	stopfail	0.366	Go_X	0.0
345.88	1.0	go	0.692	Go_X	1.0
348.405	1.0	go	0.555	Go_O	1.0
350.929	1.0	go	0.619	Go_X	1.0
353.453	1.0	go	0.421	Go_X	1.0
355.977	0.35	stopfail	0.408	Go_O	0.0
358.501	1.0	go	0.798	Go_O	1.0
361.025	1.0	go	0.996	Go_X	1.0
363.55	0.3	stopfail	0.402	Go_X	0.0
366.074	1.0	go	0.85	Go_O	1.0
368.598	0.25	stopsuccess	0.0	Go_O	1.0
371.122	1.0	go	0.752	Go_O	1.0
373.646	1.0	go	0.647	Go_X	1.0
376.17	1.0	go	0.576	Go_X	1.0
378.695	1.0	go	0.629	Go_O	1.0
381.219	1.0	go	0.518	Go_X	1.0
383.743	1.0	go	0.644	Go_O	1.0
386.267	1.0	go	0.0	Go_O	0.0
388.791	0.3	stopfail	0.432	Go_X	0.0
391.316	1.0	go	0.776	Go_X	1.0
393.84	1.0	go	0.468	Go_X	1.0
396.364	1.0	go	0.54	Go_O	1.0
398.888	0.25	stopsuccess	0.0	Go_O	1.0
401.412	1.0	go	0.63	Go_X	1.0
403.936	1.0	go	0.675	Go_O	1.0
406.461	1.0	go	0.576	Go_O	1.0
408.985	1.0	go	0.34	Go_X	1.0
411.509	0.3	stopsuccess	0.0	Go_X	1.0
414.033	1.0	go	0.591	Go_X	1.0
416.557	1.0	go	0.473	Go_O	1.0
419.081	0.35	stopfail	0.492	Go_O	0.0
421.606	1.0	go	0.571	Go_O	1.0
424.13	1.0	go	0.423	Go_X	1.0
426.654	0.3	stopsuccess	0.0	Go_X	1.0
429.178	1.0	go	0.415	Go_X	1.0
431.702	1.0	go	0.401	Go_O	1.0
434.226	0.35	stopsuccess	0.0	Go_O	1.0
436.751	1.0	go	0.949	Go_X	1.0
439.275	1.0	go	0.355	Go_O	1.0
441.799	1.0	go	0.397	Go_X	1.0
444.323	1.0	go	0.399	Go_O	1.0
446.847	1.0	go	0.307	Go_O	0.0
449.371	1.0	go	0.363	Go_X	1.0
451.896	0.4	stopfail	0.437	Go_X	0.0
454.42	1.0	go	0.95	Go_O	1.0
456.944	0.35	stopfail	0.475	Go_O	0.0
459.468	1.0	go	0.634	Go_X	1.0
461.992	1.0	go	0.513	Go_X	1.0
464.516	1.0	go	0.518	Go_O	1.0
467.041	1.0	go	0.628	Go_X	1.0
469.565	1.0	go	0.552	Go_O	1.0
472.089	0.3	stopfail	0.317	Go_X	0.0
474.613	1.0	go	0.331	Go_O	1.0
477.137	1.0	go	0.429	Go_X	1.0
479.662	1.0	go	0.643	Go_X	1.0
482.186	0.25	stopsuccess	0.0	Go_O	1.0
484.71	0.3	stopsuccess	0.0	Go_X	1.0
487.234	0.35	stopsuccess	0.0	Go_O	1.0
489.758	1.0	go	0.0	Go_O	0.0
492.282	0.4	stopfail	0.38	Go_X	0.0
494.807	1.0	go	0.743	Go_X	1.0
497.331	1.0	go	0.822	Go_O	1.0
499.855	1.0	go	0.368	Go_X	1.0
502.379	1.0	go	0.509	Go_O	1.0
504.903	1.0	go	0.539	Go_O	1.0
507.427	1.0	go	0.505	Go_X	1.0
509.952	1.0	go	0.582	Go_X	1.0
512.476	1.0	go	0.587	Go_O	1.0
515.0	0.35	stopsuccess	0.0	Go_O	1.0
517.524	1.0	go	0.469	Go_X	1.0
520.048	1.0	go	0.638	Go_O	1.0
522.572	0.4	stopsuccess	0.0	Go_X	1.0
525.097	1.0	go	0.521	Go_X	1.0
527.621	1.0	go	0.544	Go_O	1.0
530.145	1.0	go	0.446	Go_X	1.0
532.669	1.0	go	0.337	Go_O	1.0
535.193	1.0	go	0.519	Go_O	1.0
537.717	0.45	stopfail	0.462	Go_O	0.0
540.242	1.0	go	0.668	Go_X	1.0
542.766	1.0	go	0.466	Go_X	1.0
545.29	1.0	go	0.584	Go_O	1.0
547.814	0.4	stopfail	0.283	Go_X	0.0
550.338	1.0	go	0.668	Go_X	1.0
552.863	0.35	stopsuccess	0.0	Go_O	1.0
555.387	1.0	go	0.576	Go_O	1.0
557.911	1.0	go	0.507	Go_O	1.0
560.435	1.0	go	0.859	Go_X	1.0
562.959	1.0	go	0.652	Go_X	1.0
565.483	1.0	go	0.443	Go_O	1.0
568.008	1.0	go	0.0	Go_X	0.0
570.532	1.0	go	0.416	Go_O	1.0
573.056	0.4	stopfail	0.937	Go_X	0.0
575.58	1.0	go	0.533	Go_O	1.0
578.104	1.0	go	0.386	Go_X	1.0
580.628	1.0	go	0.404	Go_X	1.0
583.153	1.0	go	0.733	Go_O	1.0
585.677	0.35	stopfail	0.429	Go_O	0.0
588.201	1.0	go	0.739	Go_X	1.0
590.725	0.3	stopsuccess	0.0	Go_X	1.0
593.249	1.0	go	0.73	Go_O	1.0
595.773	1.0	go	0.602	Go_O	1.0
598.298	0.35	stopsuccess	0.0	Go_O	1.0
600.822	1.0	go	0.504	Go_X	1.0
603.346	1.0	go	0.56	Go_O	1.0
605.87	1.0	go	0.489	Go_X	1.0
608.394	1.0	go	0.484	Go_X	1.0
610.918	1.0	go	0.482	Go_O	1.0
613.443	1.0	go	0.403	Go_O	1.0
615.967	1.0	go	0.662	Go_X	1.0
618.491	1.0	go	0.718	Go_X	1.0
621.015	1.0	go	0.512	Go_O	1.0
623.539	1.0	go	0.527	Go_X	1.0
626.063	0.4	stopfail	0.772	Go_X	0.0
628.588	1.0	go	0.45	Go_O	1.0
631.112	1.0	go	0.504	Go_O	1.0
633.636	0.35	stopsuccess	0.0	Go_O	1.0
636.16	1.0	go	0.498	Go_X	1.0
638.684	0.4	stopsuccess	0.0	Go_X	1.0
641.209	1.0	go	0.401	Go_O	1.0
643.733	1.0	go	0.969	Go_X	1.0
646.257	0.45	stopfail	0.261	Go_O	0.0
648.781	1.0	go	0.259	Go_O	0.0
651.305	0.4	stopfail	0.495	Go_X	0.0
653.829	1.0	go	0.813	Go_X	1.0
656.354	1.0	go	0.487	Go_X	1.0
658.878	1.0	go	0.392	Go_O	1.0
661.402	0.35	stopsuccess	0.0	Go_O	1.0
663.926	1.0	go	0.488	Go_X	1.0
666.45	1.0	go	0.458	Go_O	1.0
668.974	1.0	go	0.451	Go_O	1.0
671.499	1.0	go	0.472	Go_X	1.0
674.023	0.4	stopfail	0.499	Go_X	0.0
676.547	1.0	go	0.58	Go_O	1.0
679.071	1.0	go	0.415	Go_X	1.0
681.595	0.35	stopfail	0.344	Go_O	0.0
684.119	1.0	go	0.611	Go_O	1.0
686.644	1.0	go	0.808	Go_X	1.0
689.168	1.0	go	0.625	Go_O	1.0
691.692	1.0	go	0.56	Go_X	1.0
694.216	0.3	stopsuccess	0.0	Go_X	1.0
696.74	1.0	go	0.53	Go_X	1.0
699.264	0.35	stopsuccess	0.0	Go_O	1.0
701.789	1.0	go	0.885	Go_O	1.0
704.313	1.0	go	0.531	Go_O	1.0
706.837	0.4	stopfail	0.69	Go_X	0.0
709.361	1.0	go	0.695	Go_X	1.0
711.885	1.0	go	0.86	Go_O	1.0
714.409	1.0	go	0.699	Go_X	1.0
716.934	1.0	go	0.441	Go_X	1.0
719.458	0.35	stopfail	0.413	Go_O	0.0
721.982	1.0	go	0.423	Go_O	1.0
724.506	0.3	stopsuccess	0.0	Go_X	1.0
727.03	1.0	go	0.415	Go_X	1.0
729.555	1.0	go	0.403	Go_O	1.0
732.079	1.0	go	0.611	Go_X	1.0
734.603	1.0	go	0.501	Go_O	1.0
737.127	1.0	go	0.59	Go_O	1.0
739.651	1.0	go	0.434	Go_X	1.0
742.175	0.35	stopfail	0.334	Go_O	0.0
744.7	1.0	go	0.493	Go_O	1.0
747.224	1.0	go	0.685	Go_X	1.0
749.748	0.3	stopsuccess	0.0	Go_X	1.0
752.272	1.0	go	0.557	Go_X	1.0
754.796	1.0	go	0.507	Go_O	1.0
757.32	0.35	stopsuccess	0.0	Go_O	1.0
759.845	1.0	go	0.368	Go_O	1.0
762.369	1.0	go	0.569	Go_X	0.0
764.893	1.0	go	0.593	Go_O	1.0
767.417	1.0	go	0.543	Go_X	1.0
769.941	0.4	stopfail	0.492	Go_X	0.0
772.465	1.0	go	0.712	Go_O	1.0
774.99	0.35	stopfail	0.475	Go_O	0.0
777.514	1.0	go	0.62	Go_X	1.0
780.038	1.0	go	0.606	Go_X	1.0
782.562	1.0	go	0.921	Go_O	1.0
785.086	1.0	go	0.436	Go_X	1.0
787.61	1.0	go	0.713	Go_O	1.0
790.135	0.3	stopfail	0.415	Go_X	0.0
792.659	1.0	go	0.637	Go_X	1.0
795.183	1.0	go	0.565	Go_O	1.0
797.707	0.25	stopsuccess	0.0	Go_O	1.0
800.231	0.3	stopsuccess	0.0	Go_X	1.0
802.756	1.0	go	0.812	Go_O	1.0
805.28	1.0	go	0.618	Go_X	1.0
807.804	1.0	go	0.424	Go_X	0.0
810.328	1.0	go	0.363	Go_O	1.0
812.852	0.35	stopsuccess	0.0	Go_O	1.0
815.376	1.0	go	0.552	Go_O	1.0
