onset	duration	trial_type	response_time	stim_file	accuracy
41.236	1.0	go	0.547	Go_X	1.0
43.827	1.0	go	0.264	Go_O	1.0
46.351	1.0	go	0.357	Go_X	1.0
48.875	1.0	go	0.274	Go_O	1.0
51.399	1.0	go	0.368	Go_X	1.0
53.924	1.0	go	0.313	Go_O	1.0
56.448	0.25	stopfail	0.351	Go_O	0.0
58.972	1.0	go	0.408	Go_O	1.0
61.496	0.2	stopfail	0.309	Go_X	0.0
64.02	1.0	go	0.411	Go_X	1.0
66.545	1.0	go	0.247	Go_O	1.0
69.069	1.0	go	0.36	Go_X	1.0
71.593	0.15	stopfail	0.263	Go_O	0.0
74.117	1.0	go	0.374	Go_X	1.0
76.641	1.0	go	0.278	Go_O	1.0
79.166	0.1	stopfail	0.306	Go_X	0.0
81.69	0.05	stopsuccess	0.0	Go_O	1.0
84.214	1.0	go	0.454	Go_X	1.0
86.738	1.0	go	0.232	Go_O	1.0
89.262	0.1	stopsuccess	0.0	Go_X	1.0
91.787	1.0	go	0.331	Go_X	1.0
94.311	1.0	go	0.236	Go_O	1.0
96.835	0.15	stopfail	0.249	Go_O	0.0
99.359	1.0	go	0.402	Go_O	1.0
101.883	1.0	go	0.343	Go_X	1.0
104.407	0.1	stopsuccess	0.0	Go_X	1.0
106.932	1.0	go	0.277	Go_X	0.0
109.456	1.0	go	0.297	Go_O	1.0
111.98	0.15	stopsuccess	0.0	Go_O	1.0
114.504	1.0	go	0.342	Go_X	1.0
117.028	1.0	go	0.367	Go_O	1.0
119.553	1.0	go	0.422	Go_X	1.0
122.077	1.0	go	0.321	Go_O	1.0
124.601	1.0	go	0.349	Go_X	1.0
127.125	0.2	stopsuccess	0.0	Go_X	1.0
129.649	1.0	go	0.347	Go_O	1.0
132.174	1.0	go	0.301	Go_X	1.0
134.698	1.0	go	0.336	Go_O	1.0
137.222	1.0	go	0.375	Go_O	1.0
139.746	1.0	go	0.273	Go_X	1.0
142.27	0.25	stopfail	0.279	Go_O	0.0
144.795	1.0	go	0.326	Go_X	1.0
147.319	1.0	go	0.257	Go_O	1.0
149.843	1.0	go	0.343	Go_O	1.0
152.367	1.0	go	0.359	Go_X	1.0
154.891	1.0	go	0.348	Go_O	1.0
157.415	1.0	go	0.301	Go_X	0.0
159.94	0.2	stopfail	0.347	Go_X	0.0
162.464	1.0	go	0.544	Go_X	1.0
164.988	1.0	go	0.639	Go_O	1.0
167.512	0.15	stopsuccess	0.0	Go_O	1.0
170.036	1.0	go	0.382	Go_O	1.0
172.561	0.2	stopfail	0.33	Go_X	0.0
175.085	0.15	stopfail	0.303	Go_O	0.0
177.609	1.0	go	0.304	Go_X	1.0
180.133	1.0	go	0.393	Go_X	1.0
182.657	1.0	go	0.328	Go_O	1.0
185.182	1.0	go	0.362	Go_X	1.0
187.706	0.1	stopsuccess	0.0	Go_X	1.0
190.23	1.0	go	0.274	Go_O	1.0
192.754	0.15	stopfail	0.283	Go_O	0.0
195.278	1.0	go	0.411	Go_O	1.0
197.803	1.0	go	0.361	Go_X	1.0
200.327	1.0	go	0.559	Go_X	1.0
202.851	1.0	go	0.31	Go_O	1.0
205.375	1.0	go	0.368	Go_O	1.0
207.899	1.0	go	0.435	Go_X	1.0
210.424	1.0	go	0.392	Go_X	1.0
212.948	1.0	go	0.269	Go_O	1.0
215.472	1.0	go	0.326	Go_O	1.0
217.996	0.1	stopsuccess	0.0	Go_X	1.0
220.52	1.0	go	0.349	Go_X	1.0
223.044	1.0	go	0.31	Go_O	1.0
225.569	1.0	go	0.356	Go_X	1.0
228.093	0.15	stopfail	0.302	Go_O	0.0
230.617	1.0	go	0.319	Go_X	1.0
233.141	1.0	go	0.422	Go_O	1.0
235.665	1.0	go	0.34	Go_X	1.0
238.19	1.0	go	0.34	Go_O	1.0
240.714	1.0	go	0.311	Go_X	1.0
243.238	1.0	go	0.339	Go_O	1.0
245.762	0.1	stopsuccess	0.0	Go_X	1.0
248.286	1.0	go	0.371	Go_O	1.0
250.811	1.0	go	0.279	Go_X	1.0
253.335	0.15	stopfail	0.278	Go_O	0.0
255.876	1.0	go	0.285	Go_X	1.0
258.4	1.0	go	0.275	Go_O	1.0
260.924	0.1	stopfail	0.256	Go_X	0.0
263.448	1.0	go	0.326	Go_O	1.0
265.972	0.05	stopsuccess	0.0	Go_O	1.0
268.497	1.0	go	0.36	Go_X	1.0
271.021	1.0	go	0.426	Go_O	1.0
273.545	1.0	go	0.373	Go_X	1.0
276.069	1.0	go	0.486	Go_X	1.0
278.593	1.0	go	0.414	Go_O	1.0
281.118	0.1	stopsuccess	0.0	Go_X	1.0
283.642	0.15	stopsuccess	0.0	Go_O	1.0
286.166	1.0	go	0.325	Go_X	1.0
288.69	1.0	go	0.288	Go_O	1.0
291.214	0.2	stopfail	0.343	Go_X	0.0
293.739	1.0	go	0.31	Go_O	1.0
296.263	1.0	go	0.329	Go_X	1.0
298.787	1.0	go	0.299	Go_X	0.0
301.311	1.0	go	0.317	Go_O	1.0
303.835	1.0	go	0.272	Go_X	1.0
306.36	1.0	go	0.279	Go_O	1.0
308.884	0.15	stopsuccess	0.0	Go_O	1.0
311.408	1.0	go	0.301	Go_X	1.0
313.932	1.0	go	0.311	Go_O	1.0
316.456	1.0	go	0.41	Go_X	1.0
318.981	1.0	go	0.321	Go_O	1.0
321.505	1.0	go	0.381	Go_O	1.0
324.029	0.2	stopfail	0.284	Go_X	0.0
326.553	1.0	go	0.39	Go_X	1.0
329.077	1.0	go	0.31	Go_O	1.0
331.601	1.0	go	0.266	Go_X	1.0
334.126	1.0	go	0.34	Go_X	1.0
336.65	0.15	stopfail	0.262	Go_O	0.0
339.174	1.0	go	0.452	Go_O	1.0
341.698	1.0	go	0.325	Go_X	1.0
344.222	0.1	stopsuccess	0.0	Go_X	1.0
346.747	1.0	go	0.381	Go_O	1.0
349.271	0.15	stopsuccess	0.0	Go_O	1.0
351.795	1.0	go	0.448	Go_X	1.0
354.319	1.0	go	0.27	Go_O	1.0
356.843	1.0	go	0.346	Go_X	1.0
359.368	1.0	go	0.24	Go_O	1.0
361.892	1.0	go	0.416	Go_O	1.0
364.416	1.0	go	0.32	Go_X	1.0
366.94	1.0	go	0.351	Go_X	1.0
369.464	0.2	stopfail	0.386	Go_X	0.0
371.989	1.0	go	0.336	Go_O	1.0
374.513	1.0	go	0.294	Go_X	1.0
377.037	1.0	go	0.259	Go_O	1.0
379.561	0.15	stopsuccess	0.0	Go_O	1.0
382.085	1.0	go	0.29	Go_O	1.0
384.61	1.0	go	0.375	Go_X	1.0
387.134	1.0	go	0.267	Go_O	1.0
389.658	1.0	go	0.368	Go_X	1.0
392.182	0.2	stopsuccess	0.0	Go_X	1.0
394.706	1.0	go	0.286	Go_O	1.0
397.23	1.0	go	0.302	Go_X	1.0
399.755	0.25	stopfail	0.283	Go_O	0.0
402.279	1.0	go	0.296	Go_X	1.0
404.803	1.0	go	0.262	Go_O	1.0
407.327	0.2	stopfail	0.245	Go_X	0.0
409.851	1.0	go	0.294	Go_O	1.0
412.376	1.0	go	0.287	Go_X	1.0
414.9	0.15	stopfail	0.246	Go_O	0.0
417.424	1.0	go	0.357	Go_X	1.0
419.948	1.0	go	0.252	Go_O	1.0
422.472	1.0	go	0.274	Go_X	1.0
424.997	1.0	go	0.237	Go_O	1.0
427.521	1.0	go	0.505	Go_X	1.0
430.045	1.0	go	0.475	Go_O	1.0
432.569	0.1	stopfail	0.226	Go_X	0.0
435.093	1.0	go	0.273	Go_O	1.0
437.618	0.05	stopfail	0.213	Go_O	0.0
440.142	1.0	go	0.285	Go_X	1.0
442.666	1.0	go	0.254	Go_O	1.0
445.19	1.0	go	0.403	Go_X	1.0
447.714	1.0	go	0.315	Go_X	0.0
450.239	1.0	go	0.258	Go_O	1.0
452.763	0.0	stopsuccess	0.0	Go_X	1.0
455.304	1.0	go	0.276	Go_X	1.0
457.828	1.0	go	0.315	Go_O	1.0
460.352	1.0	go	0.292	Go_X	1.0
462.876	0.05	stopsuccess	0.0	Go_O	1.0
465.4	0.1	stopsuccess	0.0	Go_X	1.0
467.925	0.15	stopfail	0.271	Go_O	0.0
470.449	1.0	go	0.368	Go_O	1.0
472.973	0.1	stopsuccess	0.0	Go_X	1.0
475.497	1.0	go	0.402	Go_X	1.0
478.021	1.0	go	0.307	Go_O	1.0
480.546	1.0	go	0.284	Go_X	1.0
483.07	1.0	go	0.274	Go_O	1.0
485.594	1.0	go	0.254	Go_X	1.0
488.118	1.0	go	0.455	Go_O	1.0
490.642	1.0	go	0.235	Go_O	0.0
493.166	1.0	go	0.26	Go_X	1.0
495.691	0.15	stopfail	0.251	Go_O	0.0
498.215	1.0	go	0.379	Go_X	1.0
500.739	1.0	go	0.311	Go_O	1.0
503.263	0.1	stopsuccess	0.0	Go_X	1.0
505.787	1.0	go	0.362	Go_O	1.0
508.312	1.0	go	0.314	Go_X	1.0
510.836	1.0	go	0.346	Go_X	1.0
513.36	1.0	go	0.43	Go_O	1.0
515.884	1.0	go	0.322	Go_X	1.0
518.408	0.15	stopfail	0.328	Go_O	0.0
520.933	1.0	go	0.52	Go_O	1.0
523.457	1.0	go	0.36	Go_X	1.0
525.981	1.0	go	0.299	Go_O	1.0
528.505	0.1	stopfail	0.296	Go_X	0.0
531.029	1.0	go	0.312	Go_X	1.0
533.554	0.05	stopsuccess	0.0	Go_O	1.0
536.078	1.0	go	0.32	Go_O	1.0
538.602	1.0	go	0.289	Go_X	1.0
541.126	1.0	go	0.532	Go_O	1.0
543.65	1.0	go	0.489	Go_O	1.0
546.175	1.0	go	0.295	Go_X	1.0
548.699	1.0	go	0.296	Go_O	1.0
551.223	1.0	go	0.241	Go_X	1.0
553.747	0.1	stopfail	0.272	Go_X	0.0
556.271	1.0	go	0.39	Go_X	1.0
558.795	1.0	go	0.426	Go_O	1.0
561.32	1.0	go	0.339	Go_X	1.0
563.844	1.0	go	0.31	Go_O	1.0
566.368	0.05	stopsuccess	0.0	Go_O	1.0
568.892	1.0	go	0.306	Go_O	1.0
571.416	0.1	stopsuccess	0.0	Go_X	1.0
573.941	1.0	go	0.375	Go_X	1.0
576.465	1.0	go	0.286	Go_O	1.0
578.989	0.15	stopsuccess	0.0	Go_O	1.0
581.513	1.0	go	0.414	Go_X	1.0
584.037	1.0	go	0.461	Go_X	1.0
586.562	1.0	go	0.338	Go_O	1.0
589.086	1.0	go	0.44	Go_O	1.0
591.61	1.0	go	0.42	Go_X	1.0
594.134	1.0	go	0.444	Go_X	1.0
596.658	1.0	go	0.354	Go_O	1.0
599.183	1.0	go	0.391	Go_O	1.0
601.707	1.0	go	0.488	Go_X	1.0
604.231	1.0	go	0.317	Go_O	1.0
606.755	0.2	stopfail	0.426	Go_X	0.0
609.279	1.0	go	0.263	Go_X	1.0
611.804	1.0	go	0.301	Go_X	0.0
614.328	0.15	stopsuccess	0.0	Go_O	1.0
616.852	1.0	go	0.433	Go_O	1.0
619.376	0.2	stopfail	0.398	Go_X	0.0
621.9	1.0	go	0.357	Go_O	1.0
624.425	1.0	go	0.41	Go_X	1.0
626.949	0.15	stopfail	0.255	Go_O	0.0
629.473	1.0	go	0.322	Go_O	1.0
631.997	0.1	stopfail	0.293	Go_X	0.0
634.521	1.0	go	0.582	Go_X	1.0
637.045	1.0	go	0.388	Go_X	1.0
639.57	1.0	go	0.332	Go_O	1.0
642.094	0.05	stopsuccess	0.0	Go_O	1.0
644.618	1.0	go	0.461	Go_O	1.0
647.142	1.0	go	0.278	Go_X	1.0
649.666	1.0	go	0.351	Go_X	1.0
652.191	1.0	go	0.463	Go_O	1.0
654.715	0.1	stopsuccess	0.0	Go_X	1.0
657.239	1.0	go	0.317	Go_X	1.0
659.763	1.0	go	0.713	Go_O	1.0
662.287	0.15	stopfail	0.329	Go_O	0.0
664.812	1.0	go	0.262	Go_X	1.0
667.336	1.0	go	0.381	Go_O	1.0
669.86	1.0	go	0.371	Go_X	1.0
672.384	1.0	go	0.339	Go_O	1.0
674.908	0.1	stopsuccess	0.0	Go_X	1.0
677.433	1.0	go	0.359	Go_O	1.0
679.957	0.15	stopsuccess	0.0	Go_O	1.0
682.481	1.0	go	0.362	Go_X	1.0
685.005	1.0	go	0.34	Go_O	1.0
687.529	0.2	stopfail	0.243	Go_X	0.0
690.054	1.0	go	0.276	Go_X	0.0
692.578	1.0	go	0.381	Go_X	1.0
695.102	1.0	go	0.396	Go_O	1.0
697.626	1.0	go	0.374	Go_X	1.0
700.15	0.15	stopsuccess	0.0	Go_O	1.0
702.674	1.0	go	0.371	Go_O	1.0
705.199	0.2	stopfail	0.265	Go_X	0.0
707.723	1.0	go	0.4	Go_X	1.0
710.247	1.0	go	0.309	Go_O	1.0
712.771	1.0	go	0.35	Go_O	1.0
715.295	1.0	go	0.383	Go_X	1.0
717.82	1.0	go	0.448	Go_X	1.0
720.344	1.0	go	0.303	Go_O	1.0
722.868	0.15	stopsuccess	0.0	Go_O	1.0
725.392	1.0	go	0.4	Go_X	1.0
727.916	1.0	go	0.291	Go_O	1.0
730.441	0.2	stopfail	0.301	Go_X	0.0
732.965	1.0	go	0.227	Go_O	1.0
735.489	1.0	go	0.296	Go_X	1.0
738.013	0.15	stopfail	0.333	Go_O	0.0
740.537	1.0	go	0.296	Go_X	1.0
743.062	1.0	go	0.276	Go_O	0.0
745.586	1.0	go	0.242	Go_O	1.0
748.11	1.0	go	0.208	Go_X	1.0
750.634	0.1	stopfail	0.186	Go_X	0.0
753.158	1.0	go	0.329	Go_O	1.0
755.682	0.05	stopsuccess	0.0	Go_O	1.0
758.207	1.0	go	0.466	Go_X	1.0
760.731	1.0	go	0.311	Go_O	1.0
763.255	1.0	go	0.329	Go_X	1.0
765.779	1.0	go	0.29	Go_O	1.0
768.303	1.0	go	0.394	Go_X	1.0
770.828	0.1	stopsuccess	0.0	Go_X	1.0
773.352	1.0	go	0.473	Go_X	1.0
775.876	1.0	go	0.391	Go_O	1.0
778.4	0.15	stopsuccess	0.0	Go_O	1.0
780.924	0.2	stopfail	0.389	Go_X	0.0
783.449	1.0	go	0.519	Go_X	1.0
785.973	1.0	go	0.371	Go_O	1.0
788.497	1.0	go	0.365	Go_O	1.0
791.021	1.0	go	0.455	Go_X	1.0
793.545	0.15	stopfail	0.324	Go_O	0.0
796.086	1.0	go	0.346	Go_O	1.0
