frame	onset	duration	trial_type	event_type	response_type	response_time	stim_file	accuracy
0	52.52		win-reward	ImageDisplay1		0.0		
0	54.743	0.75	win-reward	StartDisplay				
0	55.496		win-reward	ImageDisplay2		0.0		
0	58.505	1.6	win-reward	ChoiceDisplay	1	0.708	1	1
0	59.24	0.892	win-reward	ChosenDisplay		0.0		
0	60.109	0.25	win-reward	TurnDisplay				
0	60.36	0.75	win-reward	OutcomeDisplay				
1	61.112		loss-reward	ImageDisplay1		0.0		
1	63.352	0.75	loss-reward	StartDisplay				
1	64.105		loss-reward	ImageDisplay2		0.0		
1	67.114	1.6	loss-reward	ChoiceDisplay	1	0.44	1	1
1	67.582	1.16	loss-reward	ChosenDisplay		0.0		
1	68.718	0.25	loss-reward	TurnDisplay				
1	69.003	0.75	loss-reward	OutcomeDisplay				
2	69.721		win-noreward	ImageDisplay1		0.0		
2	71.727	0.75	win-noreward	StartDisplay				
2	72.463		win-noreward	ImageDisplay2		0.0		
2	75.723	1.6	win-noreward	ChoiceDisplay	1	0.408	1	1
2	76.157	1.192	win-noreward	ChosenDisplay		0.0		
2	77.327	0.25	win-noreward	TurnDisplay				
2	77.578	0.75	win-noreward	OutcomeDisplay				
3	78.33		win-reward	ImageDisplay1		0.0		
3	80.57	0.75	win-reward	StartDisplay				
3	81.323		win-reward	ImageDisplay2		0.0		
3	84.332	1.6	win-reward	ChoiceDisplay	1	0.597	1	1
3	84.95	1.003	win-reward	ChosenDisplay		0.0		
3	85.937	0.25	win-reward	TurnDisplay				
3	86.187	0.75	win-reward	OutcomeDisplay				
4	86.94		win-noreward	ImageDisplay1		0.0		
4	88.946	0.75	win-noreward	StartDisplay				
4	89.681		win-noreward	ImageDisplay2		0.0		
4	92.941	1.6	win-noreward	ChoiceDisplay	1	0.537	1	1
4	93.492	1.063	win-noreward	ChosenDisplay		0.0		
4	94.546	0.25	win-noreward	TurnDisplay				
4	94.796	0.75	win-noreward	OutcomeDisplay				
5	95.549		control-reward	ImageDisplay1		0.0		
5	97.538	0.75	control-reward	StartDisplay				
5	98.29		control-reward	ImageDisplay2		0.0		
5	101.55	1.6	control-reward	ChoiceDisplay	1	0.44	1	1
5	102.018	1.16	control-reward	ChosenDisplay		0.0		
5	103.155	0.25	control-reward	TurnDisplay				
5	103.405	0.75	control-reward	OutcomeDisplay				
6	104.158		win-reward	ImageDisplay1		0.0		
6	106.398	0.75	win-reward	StartDisplay				
6	107.15		win-reward	ImageDisplay2		0.0		
6	110.159	1.6	win-reward	ChoiceDisplay	1	0.36	1	1
6	110.543	1.24	win-reward	ChosenDisplay		0.0		
6	111.764	0.25	win-reward	TurnDisplay				
6	112.015	0.75	win-reward	OutcomeDisplay				
7	112.767		loss-reward	ImageDisplay1		0.0		
7	115.007	0.75	loss-reward	StartDisplay				
7	115.759		loss-reward	ImageDisplay2		0.0		
7	118.768	1.6	loss-reward	ChoiceDisplay	1	0.407	1	1
7	119.203	1.193	loss-reward	ChosenDisplay		0.0		
7	120.373	0.25	loss-reward	TurnDisplay				
7	120.624	0.75	loss-reward	OutcomeDisplay				
8	121.376		control-reward	ImageDisplay1		0.0		
8	123.365	0.75	control-reward	StartDisplay				
8	124.117		control-reward	ImageDisplay2		0.0		
8	127.377	1.6	control-reward	ChoiceDisplay	1	0.314	1	1
8	127.711	1.286	control-reward	ChosenDisplay		0.0		
8	128.982	0.25	control-reward	TurnDisplay				
8	129.233	0.75	control-reward	OutcomeDisplay				
9	129.985		win-noreward	ImageDisplay1		0.0		
9	132.225	0.75	win-noreward	StartDisplay				
9	132.977		win-noreward	ImageDisplay2		0.0		
9	135.986	1.6	win-noreward	ChoiceDisplay	1	0.284	1	1
9	136.287	1.316	win-noreward	ChosenDisplay		0.0		
9	137.591	0.25	win-noreward	TurnDisplay				
9	137.842	0.75	win-noreward	OutcomeDisplay				
10	138.594		control-reward	ImageDisplay1		0.0		
10	140.834	0.75	control-reward	StartDisplay				
10	141.586		control-reward	ImageDisplay2		0.0		
10	144.595	1.6	control-reward	ChoiceDisplay	1	0.593	1	1
10	145.214	1.007	control-reward	ChosenDisplay		0.0		
10	146.2	0.25	control-reward	TurnDisplay				
10	146.451	0.75	control-reward	OutcomeDisplay				
11	147.203		loss-reward	ImageDisplay1		0.0		
11	149.192	0.75	loss-reward	StartDisplay				
11	149.945		loss-reward	ImageDisplay2		0.0		
11	153.204	1.6	loss-reward	ChoiceDisplay	1	0.419	1	1
11	153.639	1.181	loss-reward	ChosenDisplay		0.0		
11	154.809	0.25	loss-reward	TurnDisplay				
11	155.06	0.75	loss-reward	OutcomeDisplay				
12	155.812		loss-noreward	ImageDisplay1		0.0		
12	158.052	0.75	loss-noreward	StartDisplay				
12	158.804		loss-noreward	ImageDisplay2		0.0		
12	161.813	1.6	loss-noreward	ChoiceDisplay	1	0.403	1	1
12	162.231	1.197	loss-noreward	ChosenDisplay		0.0		
12	163.418	0.25	loss-noreward	TurnDisplay				
12	163.669	0.75	loss-noreward	OutcomeDisplay				
13	164.421		loss-reward	ImageDisplay1		0.0		
13	166.41	0.75	loss-reward	StartDisplay				
13	167.163		loss-reward	ImageDisplay2		0.0		
13	170.422	1.6	loss-reward	ChoiceDisplay	1	0.462	1	1
13	170.907	1.138	loss-reward	ChosenDisplay		0.0		
13	172.027	0.25	loss-reward	TurnDisplay				
13	172.278	0.75	loss-reward	OutcomeDisplay				
14	173.03		loss-reward	ImageDisplay1		0.0		
14	175.27	0.75	loss-reward	StartDisplay				
14	176.023		loss-reward	ImageDisplay2		0.0		
14	179.032	1.6	loss-reward	ChoiceDisplay	1	0.594	1	1
14	179.65	1.006	loss-reward	ChosenDisplay		0.0		
14	180.636	0.25	loss-reward	TurnDisplay				
14	180.887	0.75	loss-reward	OutcomeDisplay				
15	181.639		control-reward	ImageDisplay1		0.0		
15	183.879	0.75	control-reward	StartDisplay				
15	184.632		control-reward	ImageDisplay2		0.0		
15	187.641	1.6	control-reward	ChoiceDisplay	1	0.383	1	1
15	188.042	1.217	control-reward	ChosenDisplay		0.0		
15	189.245	0.25	control-reward	TurnDisplay				
15	189.496	0.75	control-reward	OutcomeDisplay				
16	190.248		win-reward	ImageDisplay1		0.0		
16	192.254	0.75	win-reward	StartDisplay				
16	192.99		win-reward	ImageDisplay2		0.0		
16	196.25	1.6	win-reward	ChoiceDisplay	1	0.374	1	1
16	196.651	1.226	win-reward	ChosenDisplay		0.0		
16	197.855	0.25	win-reward	TurnDisplay				
16	198.105	0.75	win-reward	OutcomeDisplay				
17	198.857		loss-reward	ImageDisplay1		0.0		
17	200.863	0.75	loss-reward	StartDisplay				
17	201.599		loss-reward	ImageDisplay2		0.0		
17	204.859	1.6	loss-reward	ChoiceDisplay	1	0.515	1	1
17	205.394	1.085	loss-reward	ChosenDisplay		0.0		
17	206.464	0.25	loss-reward	TurnDisplay				
17	206.714	0.75	loss-reward	OutcomeDisplay				
18	207.467		win-noreward	ImageDisplay1		0.0		
18	209.456	0.75	win-noreward	StartDisplay				
18	210.208		win-noreward	ImageDisplay2		0.0		
18	213.468	1.6	win-noreward	ChoiceDisplay	1	0.35	1	1
18	213.836	1.25	win-noreward	ChosenDisplay		0.0		
18	215.073	0.25	win-noreward	TurnDisplay				
18	215.323	0.75	win-noreward	OutcomeDisplay				
19	216.076		control-reward	ImageDisplay1		0.0		
19	218.316	0.75	control-reward	StartDisplay				
19	219.068		control-reward	ImageDisplay2		0.0		
19	222.077	1.6	control-reward	ChoiceDisplay	1	0.618	1	1
19	222.712	0.982	control-reward	ChosenDisplay		0.0		
19	223.682	0.25	control-reward	TurnDisplay				
19	223.932	0.75	control-reward	OutcomeDisplay				
20	224.685		loss-reward	ImageDisplay1		0.0		
20	226.925	0.75	loss-reward	StartDisplay				
20	227.677		loss-reward	ImageDisplay2		0.0		
20	230.686	1.6	loss-reward	ChoiceDisplay	1	0.369	1	1
20	231.07	1.231	loss-reward	ChosenDisplay		0.0		
20	232.291	0.25	loss-reward	TurnDisplay				
20	232.542	0.75	loss-reward	OutcomeDisplay				
21	233.294		control-noreward	ImageDisplay1		0.0		
21	235.283	0.75	control-noreward	StartDisplay				
21	236.035		control-noreward	ImageDisplay2		0.0		
21	239.295	1.6	control-noreward	ChoiceDisplay	1	0.476	1	1
21	239.797	1.124	control-noreward	ChosenDisplay		0.0		
21	240.9	0.25	control-noreward	TurnDisplay				
21	241.151	0.75	control-noreward	OutcomeDisplay				
22	241.903		control-noreward	ImageDisplay1		0.0		
22	243.892	0.75	control-noreward	StartDisplay				
22	244.644		control-noreward	ImageDisplay2		0.0		
22	247.904	1.6	control-noreward	ChoiceDisplay	1	0.43	1	1
22	248.355	1.17	control-noreward	ChosenDisplay		0.0		
22	249.509	0.25	control-noreward	TurnDisplay				
22	249.76	0.75	control-noreward	OutcomeDisplay				
23	250.512		loss-reward	ImageDisplay1		0.0		
23	252.501	0.75	loss-reward	StartDisplay				
23	253.253		loss-reward	ImageDisplay2		0.0		
23	256.513	1.6	loss-reward	ChoiceDisplay	1	0.855	1	1
23	257.382	0.745	loss-reward	ChosenDisplay		0.0		
23	258.118	0.25	loss-reward	TurnDisplay				
23	258.369	0.75	loss-reward	OutcomeDisplay				
24	259.121		win-noreward	ImageDisplay1		0.0		
24	261.11	0.75	win-noreward	StartDisplay				
24	261.863		win-noreward	ImageDisplay2		0.0		
24	265.122	1.6	win-noreward	ChoiceDisplay	1	0.703	1	1
24	265.841	0.897	win-noreward	ChosenDisplay		0.0		
24	266.727	0.25	win-noreward	TurnDisplay				
24	266.978	0.75	win-noreward	OutcomeDisplay				
25	267.73		control-noreward	ImageDisplay1		0.0		
25	269.719	0.75	control-noreward	StartDisplay				
25	270.472		control-noreward	ImageDisplay2		0.0		
25	273.731	1.6	control-noreward	ChoiceDisplay	1	0.588	1	1
25	274.333	1.012	control-noreward	ChosenDisplay		0.0		
25	275.336	0.25	control-noreward	TurnDisplay				
25	275.587	0.75	control-noreward	OutcomeDisplay				
26	276.339		control-noreward	ImageDisplay1		0.0		
26	278.328	0.75	control-noreward	StartDisplay				
26	279.081		control-noreward	ImageDisplay2		0.0		
26	282.34	1.6	control-noreward	ChoiceDisplay	1	0.45	1	1
26	282.809	1.15	control-noreward	ChosenDisplay		0.0		
26	283.945	0.25	control-noreward	TurnDisplay				
26	284.196	0.75	control-noreward	OutcomeDisplay				
27	284.948		control-noreward	ImageDisplay1		0.0		
27	286.938	0.75	control-noreward	StartDisplay				
27	287.69		control-noreward	ImageDisplay2		0.0		
27	290.95	1.6	control-noreward	ChoiceDisplay	1	0.57	1	1
27	291.535	1.03	control-noreward	ChosenDisplay		0.0		
27	292.554	0.25	control-noreward	TurnDisplay				
27	292.805	0.75	control-noreward	OutcomeDisplay				
28	293.557		win-noreward	ImageDisplay1		0.0		
28	295.797	0.75	win-noreward	StartDisplay				
28	296.55		win-noreward	ImageDisplay2		0.0		
28	299.559	1.6	win-noreward	ChoiceDisplay	1	0.511	1	1
28	300.094	1.089	win-noreward	ChosenDisplay		0.0		
28	301.163	0.25	win-noreward	TurnDisplay				
28	301.414	0.75	win-noreward	OutcomeDisplay				
29	302.166		win-noreward	ImageDisplay1		0.0		
29	304.406	0.75	win-noreward	StartDisplay				
29	305.159		win-noreward	ImageDisplay2		0.0		
29	308.168	1.6	win-noreward	ChoiceDisplay	1	0.39	1	1
29	308.586	1.21	win-noreward	ChosenDisplay		0.0		
29	309.772	0.25	win-noreward	TurnDisplay				
29	310.023	0.75	win-noreward	OutcomeDisplay				
30	310.775		win-reward	ImageDisplay1		0.0		
30	313.015	0.75	win-reward	StartDisplay				
30	313.768		win-reward	ImageDisplay2		0.0		
30	316.777	1.6	win-reward	ChoiceDisplay	1	0.438	1	1
30	317.228	1.162	win-reward	ChosenDisplay		0.0		
30	318.382	0.25	win-reward	TurnDisplay				
30	318.632	0.75	win-reward	OutcomeDisplay				
31	319.385		win-reward	ImageDisplay1		0.0		
31	321.374	0.75	win-reward	StartDisplay				
31	322.126		win-reward	ImageDisplay2		0.0		
31	325.386	1.6	win-reward	ChoiceDisplay	1	0.542	1	1
31	325.954	1.058	win-reward	ChosenDisplay		0.0		
31	326.991	0.25	win-reward	TurnDisplay				
31	327.241	0.75	win-reward	OutcomeDisplay				
32	327.994		loss-noreward	ImageDisplay1		0.0		
32	330.0	0.75	loss-noreward	StartDisplay				
32	330.735		loss-noreward	ImageDisplay2		0.0		
32	333.995	1.6	loss-noreward	ChoiceDisplay	1	0.384	1	1
32	334.396	1.216	loss-noreward	ChosenDisplay		0.0		
32	335.6	0.25	loss-noreward	TurnDisplay				
32	335.85	0.75	loss-noreward	OutcomeDisplay				
33	336.603		control-reward	ImageDisplay1		0.0		
33	338.592	0.75	control-reward	StartDisplay				
33	339.344		control-reward	ImageDisplay2		0.0		
33	342.604	1.6	control-reward	ChoiceDisplay	1	0.398	1	1
33	343.022	1.202	control-reward	ChosenDisplay		0.0		
33	344.209	0.25	control-reward	TurnDisplay				
33	344.46	0.75	control-reward	OutcomeDisplay				
34	345.212		loss-noreward	ImageDisplay1		0.0		
34	347.452	0.75	loss-noreward	StartDisplay				
34	348.204		loss-noreward	ImageDisplay2		0.0		
34	351.213	1.6	loss-noreward	ChoiceDisplay	1	0.444	1	1
34	351.681	1.156	loss-noreward	ChosenDisplay		0.0		
34	352.818	0.25	loss-noreward	TurnDisplay				
34	353.069	0.75	loss-noreward	OutcomeDisplay				
35	353.821		win-reward	ImageDisplay1		0.0		
35	355.81	0.75	win-reward	StartDisplay				
35	356.562		win-reward	ImageDisplay2		0.0		
35	359.822	1.6	win-reward	ChoiceDisplay	1	0.557	1	1
35	360.407	1.043	win-reward	ChosenDisplay		0.0		
35	361.427	0.25	win-reward	TurnDisplay				
35	361.678	0.75	win-reward	OutcomeDisplay				
36	362.43		loss-reward	ImageDisplay1		0.0		
36	364.419	0.75	loss-reward	StartDisplay				
36	365.171		loss-reward	ImageDisplay2		0.0		
36	368.431	1.6	loss-reward	ChoiceDisplay	1	0.579	1	1
36	369.033	1.021	loss-reward	ChosenDisplay		0.0		
36	370.036	0.25	loss-reward	TurnDisplay				
36	370.287	0.75	loss-reward	OutcomeDisplay				
37	371.039		control-reward	ImageDisplay1		0.0		
37	373.279	0.75	control-reward	StartDisplay				
37	374.031		control-reward	ImageDisplay2		0.0		
37	377.04	1.6	control-reward	ChoiceDisplay	1	0.592	1	1
37	377.659	1.008	control-reward	ChosenDisplay		0.0		
37	378.645	0.25	control-reward	TurnDisplay				
37	378.896	0.75	control-reward	OutcomeDisplay				
38	379.648		control-reward	ImageDisplay1		0.0		
38	381.637	0.75	control-reward	StartDisplay				
38	382.39		control-reward	ImageDisplay2		0.0		
38	385.649	1.6	control-reward	ChoiceDisplay	1	0.701	1	1
38	386.368	0.899	control-reward	ChosenDisplay		0.0		
38	387.254	0.25	control-reward	TurnDisplay				
38	387.505	0.75	control-reward	OutcomeDisplay				
39	388.257		loss-noreward	ImageDisplay1		0.0		
39	390.497	0.75	loss-noreward	StartDisplay				
39	391.249		loss-noreward	ImageDisplay2		0.0		
39	394.258	1.6	loss-noreward	ChoiceDisplay	1	0.579	1	1
39	394.86	1.021	loss-noreward	ChosenDisplay		0.0		
39	395.863	0.25	loss-noreward	TurnDisplay				
39	396.114	0.75	loss-noreward	OutcomeDisplay				
40	396.866		control-reward	ImageDisplay1		0.0		
40	399.106	0.75	control-reward	StartDisplay				
40	399.858		control-reward	ImageDisplay2		0.0		
40	402.867	1.6	control-reward	ChoiceDisplay	1	0.649	1	1
40	403.536	0.951	control-reward	ChosenDisplay		0.0		
40	404.472	0.25	control-reward	TurnDisplay				
40	404.723	0.75	control-reward	OutcomeDisplay				
41	405.475		control-noreward	ImageDisplay1		0.0		
41	407.715	0.75	control-noreward	StartDisplay				
41	408.468		control-noreward	ImageDisplay2		0.0		
41	411.477	1.6	control-noreward	ChoiceDisplay	1	0.757	1	1
41	412.246	0.843	control-noreward	ChosenDisplay		0.0		
41	413.081	0.25	control-noreward	TurnDisplay				
41	413.332	0.75	control-noreward	OutcomeDisplay				
42	414.084		control-noreward	ImageDisplay1		0.0		
42	416.09	0.75	control-noreward	StartDisplay				
42	416.826		control-noreward	ImageDisplay2		0.0		
42	420.086	1.6	control-noreward	ChoiceDisplay	1	0.55	1	1
42	420.654	1.05	control-noreward	ChosenDisplay		0.0		
42	421.69	0.25	control-noreward	TurnDisplay				
42	421.941	0.75	control-noreward	OutcomeDisplay				
43	422.693		win-noreward	ImageDisplay1		0.0		
43	424.933	0.75	win-noreward	StartDisplay				
43	425.686		win-noreward	ImageDisplay2		0.0		
43	428.695	1.6	win-noreward	ChoiceDisplay	1	0.562	1	1
43	429.28	1.038	win-noreward	ChosenDisplay		0.0		
43	430.299	0.25	win-noreward	TurnDisplay				
43	430.55	0.75	win-noreward	OutcomeDisplay				
44	431.302		loss-reward	ImageDisplay1		0.0		
44	433.308	0.75	loss-reward	StartDisplay				
44	434.044		loss-reward	ImageDisplay2		0.0		
44	437.304	1.6	loss-reward	ChoiceDisplay	1	0.616	1	1
44	437.939	0.984	loss-reward	ChosenDisplay		0.0		
44	438.909	0.25	loss-reward	TurnDisplay				
44	439.159	0.75	loss-reward	OutcomeDisplay				
45	439.912		win-noreward	ImageDisplay1		0.0		
45	441.901	0.75	win-noreward	StartDisplay				
45	442.653		win-noreward	ImageDisplay2		0.0		
45	445.913	1.6	win-noreward	ChoiceDisplay	1	0.641	1	1
45	446.582	0.959	win-noreward	ChosenDisplay		0.0		
45	447.518	0.25	win-noreward	TurnDisplay				
45	447.768	0.75	win-noreward	OutcomeDisplay				
46	448.521		win-reward	ImageDisplay1		0.0		
46	450.761	0.75	win-reward	StartDisplay				
46	451.513		win-reward	ImageDisplay2		0.0		
46	454.522	1.6	win-reward	ChoiceDisplay	1	0.758	1	1
46	455.308	0.842	win-reward	ChosenDisplay		0.0		
46	456.127	0.25	win-reward	TurnDisplay				
46	456.377	0.75	win-reward	OutcomeDisplay				
47	457.13		loss-reward	ImageDisplay1		0.0		
47	459.119	0.75	loss-reward	StartDisplay				
47	459.871		loss-reward	ImageDisplay2		0.0		
47	463.131	1.6	loss-reward	ChoiceDisplay	1	0.774	1	1
47	463.917	0.826	loss-reward	ChosenDisplay		0.0		
47	464.736	0.25	loss-reward	TurnDisplay				
47	464.987	0.75	loss-reward	OutcomeDisplay				
48	465.739		control-noreward	ImageDisplay1		0.0		
48	467.979	0.75	control-noreward	StartDisplay				
48	468.731		control-noreward	ImageDisplay2		0.0		
48	471.74	1.6	control-noreward	ChoiceDisplay	1	0.699	1	1
48	472.459	0.901	control-noreward	ChosenDisplay		0.0		
48	473.345	0.25	control-noreward	TurnDisplay				
48	473.596	0.75	control-noreward	OutcomeDisplay				
49	474.348		win-reward	ImageDisplay1		0.0		
49	476.588	0.75	win-reward	StartDisplay				
49	477.34		win-reward	ImageDisplay2		0.0		
49	480.349	1.6	win-reward	ChoiceDisplay	1	0.748	1	1
49	481.118	0.852	win-reward	ChosenDisplay		0.0		
49	481.954	0.25	win-reward	TurnDisplay				
49	482.205	0.75	win-reward	OutcomeDisplay				
50	482.957		win-reward	ImageDisplay1		0.0		
50	484.946	0.75	win-reward	StartDisplay				
50	485.698		win-reward	ImageDisplay2		0.0		
50	488.958	1.6	win-reward	ChoiceDisplay	1	0.809	1	1
50	489.794	0.791	win-reward	ChosenDisplay		0.0		
50	490.563	0.25	win-reward	TurnDisplay				
50	490.814	0.75	win-reward	OutcomeDisplay				
51	491.566		loss-reward	ImageDisplay1		0.0		
51	493.806	0.75	loss-reward	StartDisplay				
51	494.558		loss-reward	ImageDisplay2		0.0		
51	497.567	1.6	loss-reward	ChoiceDisplay	1	0.801	1	1
51	498.386	0.799	loss-reward	ChosenDisplay		0.0		
51	499.172	0.25	loss-reward	TurnDisplay				
51	499.423	0.75	loss-reward	OutcomeDisplay				
52	500.175		loss-reward	ImageDisplay1		0.0		
52	502.415	0.75	loss-reward	StartDisplay				
52	503.167		loss-reward	ImageDisplay2		0.0		
52	506.176	1.6	loss-reward	ChoiceDisplay	1	0.817	1	1
52	507.012	0.783	loss-reward	ChosenDisplay		0.0		
52	507.781	0.25	loss-reward	TurnDisplay				
52	508.032	0.75	loss-reward	OutcomeDisplay				
53	508.784		control-noreward	ImageDisplay1		0.0		
53	511.024	0.75	control-noreward	StartDisplay				
53	511.776		control-noreward	ImageDisplay2		0.0		
53	514.785	1.6	control-noreward	ChoiceDisplay	1	0.73	1	1
53	515.538	0.87	control-noreward	ChosenDisplay		0.0		
53	516.39	0.25	control-noreward	TurnDisplay				
53	516.641	0.75	control-noreward	OutcomeDisplay				
54	517.393		control-noreward	ImageDisplay1		0.0		
54	519.633	0.75	control-noreward	StartDisplay				
54	520.385		control-noreward	ImageDisplay2		0.0		
54	523.395	1.6	control-noreward	ChoiceDisplay	1	1.126	1	1
54	524.548	0.474	control-noreward	ChosenDisplay		0.0		
54	524.999	0.25	control-noreward	TurnDisplay				
54	525.25	0.75	control-noreward	OutcomeDisplay				
55	526.002		loss-noreward	ImageDisplay1		0.0		
55	527.992	0.75	loss-noreward	StartDisplay				
55	528.744		loss-noreward	ImageDisplay2		0.0		
55	532.004	1.6	loss-noreward	ChoiceDisplay	1	0.644	1	1
55	532.672	0.956	loss-noreward	ChosenDisplay		0.0		
55	533.608	0.25	loss-noreward	TurnDisplay				
55	533.859	0.75	loss-noreward	OutcomeDisplay				
56	534.611		control-reward	ImageDisplay1		0.0		
56	536.851	0.75	control-reward	StartDisplay				
56	537.604		control-reward	ImageDisplay2		0.0		
56	540.613	1.6	control-reward	ChoiceDisplay	1	0.895	1	1
56	541.532	0.705	control-reward	ChosenDisplay		0.0		
56	542.217	0.25	control-reward	TurnDisplay				
56	542.468	0.75	control-reward	OutcomeDisplay				
57	543.22		win-reward	ImageDisplay1		0.0		
57	545.226	0.75	win-reward	StartDisplay				
57	545.962		win-reward	ImageDisplay2		0.0		
57	549.222	1.6	win-reward	ChoiceDisplay	1	0.72	1	1
57	549.957	0.88	win-reward	ChosenDisplay		0.0		
57	550.827	0.25	win-reward	TurnDisplay				
57	551.077	0.75	win-reward	OutcomeDisplay				
58	551.83		control-noreward	ImageDisplay1		0.0		
58	554.07	0.75	control-noreward	StartDisplay				
58	554.822		control-noreward	ImageDisplay2		0.0		
58	557.831	1.6	control-noreward	ChoiceDisplay	1	0.833	1	1
58	558.683	0.767	control-noreward	ChosenDisplay		0.0		
58	559.436	0.25	control-noreward	TurnDisplay				
58	559.686	0.75	control-noreward	OutcomeDisplay				
59	560.439		win-reward	ImageDisplay1		0.0		
59	562.679	0.75	win-reward	StartDisplay				
59	563.431		win-reward	ImageDisplay2		0.0		
59	566.44	1.6	win-reward	ChoiceDisplay	1	0.915	1	1
59	567.376	0.685	win-reward	ChosenDisplay		0.0		
59	568.045	0.25	win-reward	TurnDisplay				
59	568.295	0.75	win-reward	OutcomeDisplay				
60	569.048		loss-noreward	ImageDisplay1		0.0		
60	571.037	0.75	loss-noreward	StartDisplay				
60	571.789		loss-noreward	ImageDisplay2		0.0		
60	575.049	1.6	loss-noreward	ChoiceDisplay	1	0.705	1	1
60	575.768	0.895	loss-noreward	ChosenDisplay		0.0		
60	576.654	0.25	loss-noreward	TurnDisplay				
60	576.904	0.75	loss-noreward	OutcomeDisplay				
61	577.657		win-reward	ImageDisplay1		0.0		
61	579.897	0.75	win-reward	StartDisplay				
61	580.649		win-reward	ImageDisplay2		0.0		
61	583.658	1.6	win-reward	ChoiceDisplay	1	0.783	1	1
61	584.46	0.817	win-reward	ChosenDisplay		0.0		
61	585.263	0.25	win-reward	TurnDisplay				
61	585.514	0.75	win-reward	OutcomeDisplay				
62	586.266		win-reward	ImageDisplay1		0.0		
62	588.255	0.75	win-reward	StartDisplay				
62	589.007		win-reward	ImageDisplay2		0.0		
62	592.267	1.6	win-reward	ChoiceDisplay	1	0.809	1	1
62	593.103	0.791	win-reward	ChosenDisplay		0.0		
62	593.872	0.25	win-reward	TurnDisplay				
62	594.123	0.75	win-reward	OutcomeDisplay				
63	594.875		win-reward	ImageDisplay1		0.0		
63	597.115	0.75	win-reward	StartDisplay				
63	597.867		win-reward	ImageDisplay2		0.0		
63	600.876	1.6	win-reward	ChoiceDisplay	1	0.88	1	1
63	601.779	0.72	win-reward	ChosenDisplay		0.0		
63	602.481	0.25	win-reward	TurnDisplay				
63	602.732	0.75	win-reward	OutcomeDisplay				
64	603.484		control-reward	ImageDisplay1		0.0		
64	605.473	0.75	control-reward	StartDisplay				
64	606.225		control-reward	ImageDisplay2		0.0		
64	609.485	1.6	control-reward	ChoiceDisplay	1	0.518	1	1
64	610.02	1.082	control-reward	ChosenDisplay		0.0		
64	611.09	0.25	control-reward	TurnDisplay				
64	611.341	0.75	control-reward	OutcomeDisplay				
65	612.093		control-noreward	ImageDisplay1		0.0		
65	614.082	0.75	control-noreward	StartDisplay				
65	614.835		control-noreward	ImageDisplay2		0.0		
65	618.094	1.6	control-noreward	ChoiceDisplay	1	0.806	1	1
65	618.913	0.794	control-noreward	ChosenDisplay		0.0		
65	619.699	0.25	control-noreward	TurnDisplay				
65	619.95	0.75	control-noreward	OutcomeDisplay				
66	620.702		win-reward	ImageDisplay1		0.0		
66	622.691	0.75	win-reward	StartDisplay				
66	623.444		win-reward	ImageDisplay2		0.0		
66	626.703	1.6	win-reward	ChoiceDisplay	1	0.772	1	1
66	627.489	0.828	win-reward	ChosenDisplay		0.0		
66	628.308	0.25	win-reward	TurnDisplay				
66	628.559	0.75	win-reward	OutcomeDisplay				
67	629.311		loss-noreward	ImageDisplay1		0.0		
67	631.551	0.75	loss-noreward	StartDisplay				
67	632.303		loss-noreward	ImageDisplay2		0.0		
67	635.312	1.6	loss-noreward	ChoiceDisplay	1	0.779	1	1
67	636.115	0.821	loss-noreward	ChosenDisplay		0.0		
67	636.917	0.25	loss-noreward	TurnDisplay				
67	637.168	0.75	loss-noreward	OutcomeDisplay				
68	637.92		loss-reward	ImageDisplay1		0.0		
68	640.16	0.75	loss-reward	StartDisplay				
68	640.913		loss-reward	ImageDisplay2		0.0		
68	643.922	1.6	loss-reward	ChoiceDisplay	1	1.018	1	1
68	644.958	0.582	loss-reward	ChosenDisplay		0.0		
68	645.526	0.25	loss-reward	TurnDisplay				
68	645.777	0.75	loss-reward	OutcomeDisplay				
69	646.529		control-reward	ImageDisplay1		0.0		
69	648.535	0.75	control-reward	StartDisplay				
69	649.271		control-reward	ImageDisplay2		0.0		
69	652.531	1.6	control-reward	ChoiceDisplay	1	0.771	1	1
69	653.316	0.829	control-reward	ChosenDisplay		0.0		
69	654.135	0.25	control-reward	TurnDisplay				
69	654.386	0.75	control-reward	OutcomeDisplay				
70	655.138		win-noreward	ImageDisplay1		0.0		
70	657.378	0.75	win-noreward	StartDisplay				
70	658.131		win-noreward	ImageDisplay2		0.0		
70	661.14	1.6	win-noreward	ChoiceDisplay	1	0.917	1	1
70	662.076	0.683	win-noreward	ChosenDisplay		0.0		
70	662.745	0.25	win-noreward	TurnDisplay				
70	662.995	0.75	win-noreward	OutcomeDisplay				
71	663.747		loss-noreward	ImageDisplay1		0.0		
71	665.987	0.75	loss-noreward	StartDisplay				
71	666.74		loss-noreward	ImageDisplay2		0.0		
71	669.749	1.6	loss-noreward	ChoiceDisplay	1	0.905	1	1
71	670.668	0.695	loss-noreward	ChosenDisplay		0.0		
71	671.354	0.25	loss-noreward	TurnDisplay				
71	671.604	0.75	loss-noreward	OutcomeDisplay				
72	672.357		loss-reward	ImageDisplay1		0.0		
72	674.363	0.75	loss-reward	StartDisplay				
72	675.098		loss-reward	ImageDisplay2		0.0		
72	678.358	1.6	loss-reward	ChoiceDisplay	1	1.005	1	1
72	679.378	0.595	loss-reward	ChosenDisplay		0.0		
72	679.963	0.25	loss-reward	TurnDisplay				
72	680.213	0.75	loss-reward	OutcomeDisplay				
73	680.966		control-reward	ImageDisplay1		0.0		
73	683.206	0.75	control-reward	StartDisplay				
73	683.958		control-reward	ImageDisplay2		0.0		
73	686.967	1.6	control-reward	ChoiceDisplay	1	1.004	1	1
73	687.987	0.596	control-reward	ChosenDisplay		0.0		
73	688.572	0.25	control-reward	TurnDisplay				
73	688.822	0.75	control-reward	OutcomeDisplay				
74	689.575		win-noreward	ImageDisplay1		0.0		
74	691.815	0.75	win-noreward	StartDisplay				
74	692.567		win-noreward	ImageDisplay2		0.0		
74	695.576	1.6	win-noreward	ChoiceDisplay	1	0.991	1	1
74	696.579	0.609	win-noreward	ChosenDisplay		0.0		
74	697.181	0.25	win-noreward	TurnDisplay				
74	697.432	0.75	win-noreward	OutcomeDisplay				
75	698.184		loss-noreward	ImageDisplay1		0.0		
75	700.173	0.75	loss-noreward	StartDisplay				
75	700.925		loss-noreward	ImageDisplay2		0.0		
75	704.185	1.6	loss-noreward	ChoiceDisplay	1	0.95	1	1
75	705.155	0.65	loss-noreward	ChosenDisplay		0.0		
75	705.79	0.25	loss-noreward	TurnDisplay				
75	706.041	0.75	loss-noreward	OutcomeDisplay				
76	706.793		control-noreward	ImageDisplay1		0.0		
76	709.033	0.75	control-noreward	StartDisplay				
76	709.785		control-noreward	ImageDisplay2		0.0		
76	712.794	1.6	control-noreward	ChoiceDisplay	1	0.894	1	1
76	713.714	0.706	control-noreward	ChosenDisplay		0.0		
76	714.399	0.25	control-noreward	TurnDisplay				
76	714.65	0.75	control-noreward	OutcomeDisplay				
77	715.402		loss-reward	ImageDisplay1		0.0		
77	717.642	0.75	loss-reward	StartDisplay				
77	718.394		loss-reward	ImageDisplay2		0.0		
77	721.403	1.6	loss-reward	ChoiceDisplay	1	0.839	1	1
77	722.256	0.761	loss-reward	ChosenDisplay		0.0		
77	723.008	0.25	loss-reward	TurnDisplay				
77	723.259	0.75	loss-reward	OutcomeDisplay				
78	724.011		control-noreward	ImageDisplay1		0.0		
78	726.251	0.75	control-noreward	StartDisplay				
78	727.003		control-noreward	ImageDisplay2		0.0		
78	730.012	1.6	control-noreward	ChoiceDisplay	1	0.616	1	1
78	730.648	0.984	control-noreward	ChosenDisplay		0.0		
78	731.617	0.25	control-noreward	TurnDisplay				
78	731.868	0.75	control-noreward	OutcomeDisplay				
79	732.62		win-noreward	ImageDisplay1		0.0		
79	734.609	0.75	win-noreward	StartDisplay				
79	735.362		win-noreward	ImageDisplay2		0.0		
79	738.621	1.6	win-noreward	ChoiceDisplay	1	0.853	1	1
79	739.491	0.747	win-noreward	ChosenDisplay		0.0		
79	740.226	0.25	win-noreward	TurnDisplay				
79	740.477	0.75	win-noreward	OutcomeDisplay				
80	741.229		win-noreward	ImageDisplay1		0.0		
80	743.469	0.75	win-noreward	StartDisplay				
80	744.221		win-noreward	ImageDisplay2		0.0		
80	747.23	1.6	win-noreward	ChoiceDisplay	1	0.714	1	1
80	747.966	0.886	win-noreward	ChosenDisplay		0.0		
80	748.835	0.25	win-noreward	TurnDisplay				
80	749.086	0.75	win-noreward	OutcomeDisplay				
81	749.838		control-reward	ImageDisplay1		0.0		
81	751.827	0.75	control-reward	StartDisplay				
81	752.58		control-reward	ImageDisplay2		0.0		
81	755.839	1.6	control-reward	ChoiceDisplay	1	0.726	1	1
81	756.592	0.874	control-reward	ChosenDisplay		0.0		
81	757.444	0.25	control-reward	TurnDisplay				
81	757.695	0.75	control-reward	OutcomeDisplay				
82	758.447		win-reward	ImageDisplay1		0.0		
82	760.437	0.75	win-reward	StartDisplay				
82	761.189		win-reward	ImageDisplay2		0.0		
82	764.449	1.6	win-reward	ChoiceDisplay	1	0.632	1	1
82	765.101	0.968	win-reward	ChosenDisplay		0.0		
82	766.053	0.25	win-reward	TurnDisplay				
82	766.304	0.75	win-reward	OutcomeDisplay				
83	767.056		win-noreward	ImageDisplay1		0.0		
83	769.062	0.75	win-noreward	StartDisplay				
83	769.798		win-noreward	ImageDisplay2		0.0		
83	773.058	1.6	win-noreward	ChoiceDisplay	1	0.789	1	1
83	773.86	0.811	win-noreward	ChosenDisplay		0.0		
83	774.662	0.25	win-noreward	TurnDisplay				
83	774.913	0.75	win-noreward	OutcomeDisplay				
84	775.665		loss-reward	ImageDisplay1		0.0		
84	777.905	0.75	loss-reward	StartDisplay				
84	778.658		loss-reward	ImageDisplay2		0.0		
84	781.667	1.6	loss-reward	ChoiceDisplay	1	0.647	1	1
84	782.335	0.953	loss-reward	ChosenDisplay		0.0		
84	783.272	0.25	loss-reward	TurnDisplay				
84	783.522	0.75	loss-reward	OutcomeDisplay				
85	784.275		loss-noreward	ImageDisplay1		0.0		
85	786.264	0.75	loss-noreward	StartDisplay				
85	787.016		loss-noreward	ImageDisplay2		0.0		
85	790.276	1.6	loss-noreward	ChoiceDisplay	1	0.498	1	1
85	790.794	1.102	loss-noreward	ChosenDisplay		0.0		
85	791.881	0.25	loss-noreward	TurnDisplay				
85	792.131	0.75	loss-noreward	OutcomeDisplay				
86	792.884		loss-noreward	ImageDisplay1		0.0		
86	794.89	0.75	loss-noreward	StartDisplay				
86	795.625		loss-noreward	ImageDisplay2		0.0		
86	798.885	1.6	loss-noreward	ChoiceDisplay	1	0.801	1	1
86	799.704	0.799	loss-noreward	ChosenDisplay		0.0		
86	800.49	0.25	loss-noreward	TurnDisplay				
86	800.74	0.75	loss-noreward	OutcomeDisplay				
87	801.493		loss-reward	ImageDisplay1		0.0		
87	803.482	0.75	loss-reward	StartDisplay				
87	804.234		loss-reward	ImageDisplay2		0.0		
87	807.494	1.6	loss-reward	ChoiceDisplay	1	0.687	1	1
87	808.196	0.913	loss-reward	ChosenDisplay		0.0		
87	809.099	0.25	loss-reward	TurnDisplay				
87	809.349	0.75	loss-reward	OutcomeDisplay				
88	810.102		loss-noreward	ImageDisplay1		0.0		
88	812.342	0.75	loss-noreward	StartDisplay				
88	813.094		loss-noreward	ImageDisplay2		0.0		
88	816.103	1.6	loss-noreward	ChoiceDisplay	1	0.993	1	1
88	817.123	0.607	loss-noreward	ChosenDisplay		0.0		
88	817.708	0.25	loss-noreward	TurnDisplay				
88	817.959	0.75	loss-noreward	OutcomeDisplay				
89	818.711		control-noreward	ImageDisplay1		0.0		
89	820.951	0.75	control-noreward	StartDisplay				
89	821.703		control-noreward	ImageDisplay2		0.0		
89	824.712	1.6	control-noreward	ChoiceDisplay	1	0.657	1	1
89	825.381	0.943	control-noreward	ChosenDisplay		0.0		
89	826.317	0.25	control-noreward	TurnDisplay				
89	826.568	0.75	control-noreward	OutcomeDisplay				
90	827.32		control-reward	ImageDisplay1		0.0		
90	829.309	0.75	control-reward	StartDisplay				
90	830.061		control-reward	ImageDisplay2		0.0		
90	833.321	1.6	control-reward	ChoiceDisplay	1	0.924	1	1
90	834.257	0.676	control-reward	ChosenDisplay		0.0		
90	834.926	0.25	control-reward	TurnDisplay				
90	835.177	0.75	control-reward	OutcomeDisplay				
91	835.929		loss-noreward	ImageDisplay1		0.0		
91	838.169	0.75	loss-noreward	StartDisplay				
91	838.921		loss-noreward	ImageDisplay2		0.0		
91	841.93	1.6	loss-noreward	ChoiceDisplay	1	0.651	1	1
91	842.599	0.949	loss-noreward	ChosenDisplay		0.0		
91	843.535	0.25	loss-noreward	TurnDisplay				
91	843.786	0.75	loss-noreward	OutcomeDisplay				
92	844.538		control-reward	ImageDisplay1		0.0		
92	846.778	0.75	control-reward	StartDisplay				
92	847.53		control-reward	ImageDisplay2		0.0		
92	850.539	1.6	control-reward	ChoiceDisplay	1	0.989	1	1
92	851.542	0.611	control-reward	ChosenDisplay		0.0		
92	852.144	0.25	control-reward	TurnDisplay				
92	852.395	0.75	control-reward	OutcomeDisplay				
93	853.147		control-noreward	ImageDisplay1		0.0		
93	855.136	0.75	control-noreward	StartDisplay				
93	855.889		control-noreward	ImageDisplay2		0.0		
93	859.148	1.6	control-noreward	ChoiceDisplay	1	0.839	1	1
93	860.001	0.761	control-noreward	ChosenDisplay		0.0		
93	860.753	0.25	control-noreward	TurnDisplay				
93	861.004	0.75	control-noreward	OutcomeDisplay				
94	861.756		win-reward	ImageDisplay1		0.0		
94	863.745	0.75	win-reward	StartDisplay				
94	864.498		win-reward	ImageDisplay2		0.0		
94	867.757	1.6	win-reward	ChoiceDisplay	1	0.891	1	1
94	868.66	0.709	win-reward	ChosenDisplay		0.0		
94	869.362	0.25	win-reward	TurnDisplay				
94	869.613	0.75	win-reward	OutcomeDisplay				
95	870.365		loss-noreward	ImageDisplay1		0.0		
95	872.355	0.75	loss-noreward	StartDisplay				
95	873.107		loss-noreward	ImageDisplay2		0.0		
95	876.367	1.6	loss-noreward	ChoiceDisplay	1	0.832	1	1
95	877.219	0.768	loss-noreward	ChosenDisplay		0.0		
95	877.971	0.25	loss-noreward	TurnDisplay				
95	878.222	0.75	loss-noreward	OutcomeDisplay				
