onset	duration	trial_type	response_time	stim_file	accuracy
263.112	1.0	go	0.873	Go_X	1.0
265.636	1.0	go	0.307	Go_O	1.0
268.16	1.0	go	0.375	Go_X	1.0
270.685	1.0	go	0.251	Go_O	1.0
273.209	1.0	go	0.341	Go_X	1.0
275.733	1.0	go	0.191	Go_O	1.0
278.257	0.25	stop	0.217	Go_O	0.0
280.798	1.0	go	0.336	Go_X	1.0
283.339	0.2	stop	0.0	Go_X	1.0
285.863	1.0	go	0.393	Go_O	1.0
288.387	1.0	go	0.343	Go_O	1.0
290.911	1.0	go	0.337	Go_X	1.0
293.436	0.25	stop	0.284	Go_O	0.0
295.977	1.0	go	0.359	Go_X	1.0
298.501	1.0	go	0.377	Go_O	0.0
301.025	0.2	stop	0.317	Go_X	0.0
303.549	0.15	stop	0.0	Go_O	1.0
306.073	1.0	go	0.321	Go_X	1.0
308.598	1.0	go	0.251	Go_O	1.0
311.122	0.2	stop	0.306	Go_X	0.0
313.646	1.0	go	0.324	Go_O	1.0
316.17	1.0	go	0.361	Go_X	1.0
318.694	0.15	stop	0.0	Go_O	1.0
321.235	1.0	go	0.344	Go_O	1.0
323.759	1.0	go	0.275	Go_X	1.0
326.284	0.2	stop	0.0	Go_X	1.0
328.808	1.0	go	0.271	Go_X	0.0
331.332	1.0	go	0.458	Go_O	1.0
333.856	0.25	stop	0.376	Go_O	0.0
336.397	1.0	go	0.42	Go_X	1.0
338.921	1.0	go	0.505	Go_O	1.0
341.445	1.0	go	0.371	Go_O	1.0
343.97	1.0	go	0.482	Go_X	1.0
346.494	1.0	go	0.528	Go_O	1.0
349.018	0.2	stop	0.278	Go_X	0.0
351.542	1.0	go	0.435	Go_X	1.0
354.066	1.0	go	0.411	Go_O	1.0
356.591	1.0	go	0.316	Go_X	1.0
359.115	1.0	go	0.494	Go_X	1.0
361.639	1.0	go	0.455	Go_O	1.0
364.163	0.15	stop	0.0	Go_O	1.0
366.687	1.0	go	0.462	Go_O	1.0
369.212	1.0	go	0.331	Go_X	1.0
371.736	1.0	go	0.355	Go_O	1.0
374.26	1.0	go	0.251	Go_X	1.0
376.784	1.0	go	0.347	Go_X	1.0
379.308	1.0	go	0.239	Go_O	1.0
381.849	0.2	stop	0.268	Go_X	0.0
384.373	1.0	go	0.36	Go_X	1.0
386.898	1.0	go	0.402	Go_O	1.0
389.422	0.15	stop	0.267	Go_O	0.0
391.946	1.0	go	0.439	Go_O	1.0
394.47	0.1	stop	0.0	Go_X	1.0
396.994	0.15	stop	0.0	Go_O	1.0
399.519	1.0	go	0.27	Go_X	1.0
402.043	1.0	go	0.396	Go_X	1.0
404.567	1.0	go	0.298	Go_O	1.0
407.091	1.0	go	0.415	Go_O	1.0
409.615	0.2	stop	0.287	Go_X	0.0
412.14	1.0	go	0.367	Go_X	1.0
414.664	0.15	stop	0.212	Go_O	0.0
417.188	1.0	go	0.331	Go_X	1.0
419.712	1.0	go	0.424	Go_O	1.0
422.236	1.0	go	0.328	Go_X	1.0
424.76	1.0	go	0.247	Go_O	1.0
427.285	1.0	go	0.314	Go_X	1.0
429.809	1.0	go	0.36	Go_O	1.0
432.333	1.0	go	0.321	Go_X	1.0
434.857	1.0	go	0.363	Go_O	1.0
437.381	1.0	go	0.373	Go_X	1.0
439.906	0.1	stop	0.0	Go_X	1.0
442.447	1.0	go	0.335	Go_O	1.0
444.971	1.0	go	0.296	Go_O	1.0
447.495	1.0	go	0.507	Go_X	1.0
450.019	0.15	stop	0.0	Go_O	1.0
452.543	1.0	go	0.355	Go_X	1.0
455.068	1.0	go	0.369	Go_O	1.0
457.592	1.0	go	0.418	Go_O	1.0
460.116	1.0	go	0.535	Go_X	1.0
462.64	1.0	go	0.429	Go_O	1.0
465.164	1.0	go	0.406	Go_X	1.0
467.688	0.2	stop	0.0	Go_X	1.0
470.213	1.0	go	0.359	Go_O	1.0
472.737	1.0	go	0.341	Go_X	1.0
475.261	0.25	stop	0.0	Go_O	1.0
477.785	1.0	go	0.357	Go_X	1.0
480.309	1.0	go	0.296	Go_O	1.0
482.834	0.3	stop	0.364	Go_X	0.0
485.358	1.0	go	0.384	Go_O	1.0
487.882	0.25	stop	0.336	Go_O	0.0
490.406	1.0	go	0.487	Go_X	1.0
492.93	1.0	go	0.407	Go_X	1.0
495.455	1.0	go	0.432	Go_O	1.0
497.979	1.0	go	0.398	Go_X	1.0
500.503	1.0	go	0.377	Go_O	1.0
503.027	0.2	stop	0.313	Go_X	0.0
505.551	0.15	stop	0.379	Go_O	0.0
508.076	1.0	go	0.311	Go_X	1.0
510.6	1.0	go	0.39	Go_O	1.0
513.124	0.1	stop	0.288	Go_X	0.0
515.648	1.0	go	0.554	Go_O	1.0
518.172	1.0	go	0.349	Go_X	1.0
520.697	1.0	go	0.39	Go_O	1.0
523.221	1.0	go	0.279	Go_X	1.0
525.745	1.0	go	0.6	Go_O	1.0
528.269	1.0	go	0.259	Go_X	1.0
530.793	0.05	stop	0.0	Go_O	1.0
533.334	1.0	go	0.424	Go_O	1.0
535.858	1.0	go	0.325	Go_X	1.0
538.383	1.0	go	0.51	Go_O	1.0
540.907	1.0	go	0.343	Go_X	1.0
543.431	1.0	go	0.479	Go_X	1.0
545.955	0.1	stop	0.0	Go_X	1.0
548.479	1.0	go	0.335	Go_O	1.0
551.004	1.0	go	0.391	Go_X	1.0
553.528	1.0	go	0.332	Go_O	1.0
556.052	1.0	go	0.425	Go_O	1.0
558.576	0.15	stop	0.0	Go_O	1.0
561.1	1.0	go	0.372	Go_X	1.0
563.625	1.0	go	0.383	Go_O	1.0
566.149	0.2	stop	0.345	Go_X	0.0
568.673	1.0	go	0.525	Go_X	1.0
571.198	0.15	stop	0.0	Go_O	1.0
573.721	1.0	go	0.358	Go_O	1.0
576.245	1.0	go	0.407	Go_X	1.0
578.77	1.0	go	0.534	Go_X	1.0
581.294	1.0	go	0.441	Go_O	1.0
583.818	1.0	go	0.409	Go_O	1.0
586.342	1.0	go	0.363	Go_X	1.0
588.866	1.0	go	0.353	Go_X	1.0
591.391	0.2	stop	0.0	Go_X	1.0
593.932	1.0	go	0.406	Go_O	1.0
596.456	1.0	go	0.346	Go_O	1.0
598.98	1.0	go	0.366	Go_X	1.0
601.504	0.25	stop	0.0	Go_O	1.0
604.028	1.0	go	0.381	Go_X	1.0
606.552	1.0	go	0.427	Go_O	1.0
609.077	1.0	go	0.427	Go_O	1.0
611.601	1.0	go	0.517	Go_X	1.0
614.125	0.3	stop	0.376	Go_X	0.0
616.649	1.0	go	0.516	Go_O	1.0
619.173	1.0	go	0.428	Go_X	1.0
621.698	0.25	stop	0.374	Go_O	0.0
624.239	1.0	go	0.374	Go_X	1.0
626.763	1.0	go	0.442	Go_O	1.0
629.287	0.2	stop	0.0	Go_X	1.0
631.811	1.0	go	0.442	Go_O	1.0
634.335	1.0	go	0.428	Go_X	1.0
636.86	0.25	stop	0.0	Go_O	1.0
639.4	1.0	go	0.351	Go_X	1.0
641.925	1.0	go	0.419	Go_O	1.0
644.449	1.0	go	0.303	Go_X	1.0
646.973	1.0	go	0.37	Go_O	1.0
649.497	1.0	go	0.461	Go_O	1.0
652.021	1.0	go	0.34	Go_X	1.0
654.562	0.3	stop	0.361	Go_X	0.0
657.086	1.0	go	0.503	Go_X	1.0
659.611	0.25	stop	0.366	Go_O	0.0
662.135	1.0	go	0.317	Go_O	1.0
664.659	1.0	go	0.36	Go_O	1.0
667.183	1.0	go	0.283	Go_X	1.0
669.707	1.0	go	0.437	Go_O	1.0
672.232	1.0	go	0.325	Go_X	1.0
674.756	0.2	stop	0.0	Go_X	1.0
677.28	1.0	go	0.503	Go_X	1.0
679.804	1.0	go	0.339	Go_O	1.0
682.328	1.0	go	0.335	Go_O	1.0
684.853	0.25	stop	0.365	Go_O	0.0
687.377	0.2	stop	0.388	Go_X	0.0
689.901	0.15	stop	0.0	Go_O	1.0
692.425	1.0	go	0.469	Go_X	1.0
694.949	0.2	stop	0.0	Go_X	1.0
697.474	1.0	go	0.444	Go_O	1.0
699.998	1.0	go	0.423	Go_X	1.0
702.522	1.0	go	0.44	Go_X	1.0
705.046	1.0	go	0.39	Go_O	1.0
707.57	1.0	go	0.45	Go_X	1.0
710.095	1.0	go	0.394	Go_O	1.0
712.619	1.0	go	0.4	Go_X	1.0
715.143	1.0	go	0.488	Go_O	1.0
717.667	0.25	stop	0.316	Go_O	0.0
720.191	1.0	go	0.643	Go_O	1.0
722.715	1.0	go	0.366	Go_X	1.0
725.24	0.2	stop	0.0	Go_X	1.0
727.764	1.0	go	0.402	Go_X	1.0
730.288	1.0	go	0.389	Go_O	1.0
732.812	1.0	go	0.531	Go_X	1.0
735.336	1.0	go	0.477	Go_O	1.0
737.861	1.0	go	0.368	Go_X	1.0
740.385	0.25	stop	0.464	Go_O	0.0
742.909	1.0	go	0.433	Go_O	1.0
745.433	1.0	go	0.483	Go_O	1.0
747.957	1.0	go	0.339	Go_X	1.0
750.482	0.2	stop	0.0	Go_X	1.0
753.006	1.0	go	0.274	Go_O	1.0
755.547	0.25	stop	0.528	Go_O	0.0
758.074	1.0	go	0.554	Go_X	1.0
760.595	1.0	go	0.416	Go_X	1.0
763.119	1.0	go	0.488	Go_O	1.0
765.644	1.0	go	0.395	Go_X	1.0
768.168	1.0	go	0.47	Go_O	1.0
770.692	1.0	go	0.5	Go_X	1.0
773.216	1.0	go	0.363	Go_O	1.0
775.74	0.2	stop	0.0	Go_X	1.0
778.264	1.0	go	0.421	Go_X	1.0
780.789	1.0	go	0.379	Go_O	1.0
783.313	1.0	go	0.403	Go_O	1.0
785.837	1.0	go	0.315	Go_X	1.0
788.361	0.25	stop	0.425	Go_O	0.0
790.902	1.0	go	0.606	Go_X	1.0
793.426	0.2	stop	0.355	Go_X	0.0
795.951	1.0	go	0.302	Go_O	1.0
798.475	1.0	go	0.388	Go_O	1.0
801.016	0.15	stop	0.0	Go_O	1.0
803.54	1.0	go	0.468	Go_X	1.0
806.064	1.0	go	0.545	Go_X	1.0
808.588	1.0	go	0.443	Go_O	1.0
811.112	1.0	go	0.516	Go_X	1.0
813.637	1.0	go	0.431	Go_O	1.0
816.161	1.0	go	0.357	Go_X	1.0
818.685	1.0	go	0.422	Go_O	1.0
821.209	1.0	go	0.358	Go_X	1.0
823.733	1.0	go	0.354	Go_O	1.0
826.258	1.0	go	0.415	Go_X	1.0
828.782	0.2	stop	0.392	Go_X	0.0
831.306	1.0	go	0.358	Go_O	1.0
833.83	1.0	go	0.389	Go_O	1.0
836.354	0.15	stop	0.447	Go_O	0.0
838.878	1.0	go	0.333	Go_X	1.0
841.403	0.1	stop	0.0	Go_X	1.0
843.927	1.0	go	0.619	Go_O	1.0
846.451	1.0	go	0.5	Go_X	1.0
848.975	0.15	stop	0.0	Go_O	1.0
851.499	1.0	go	0.322	Go_X	1.0
854.024	0.2	stop	0.0	Go_X	1.0
856.548	1.0	go	0.444	Go_O	1.0
859.072	1.0	go	0.365	Go_O	1.0
861.596	1.0	go	0.344	Go_X	1.0
864.12	0.25	stop	0.3	Go_O	0.0
866.645	1.0	go	0.322	Go_O	1.0
869.169	1.0	go	0.35	Go_X	1.0
871.693	1.0	go	0.358	Go_O	1.0
874.217	1.0	go	0.529	Go_X	1.0
876.741	0.2	stop	0.0	Go_X	1.0
879.266	1.0	go	0.342	Go_X	1.0
881.79	1.0	go	0.43	Go_O	1.0
884.314	0.25	stop	0.0	Go_O	1.0
886.838	1.0	go	0.37	Go_X	1.0
889.362	1.0	go	0.461	Go_O	1.0
891.887	1.0	go	0.406	Go_O	1.0
894.411	1.0	go	0.712	Go_X	1.0
896.952	0.3	stop	0.309	Go_X	0.0
899.476	1.0	go	0.376	Go_X	1.0
902.0	0.25	stop	0.403	Go_O	0.0
904.541	1.0	go	0.448	Go_O	1.0
907.065	1.0	go	0.398	Go_X	1.0
909.589	0.2	stop	0.389	Go_X	0.0
912.114	1.0	go	0.383	Go_O	1.0
914.654	1.0	go	0.375	Go_O	1.0
917.179	1.0	go	0.317	Go_X	1.0
919.703	1.0	go	0.423	Go_O	1.0
922.227	0.15	stop	0.0	Go_O	1.0
924.751	1.0	go	0.402	Go_X	1.0
927.275	0.2	stop	0.406	Go_X	0.0
929.8	1.0	go	0.536	Go_X	1.0
932.324	1.0	go	0.582	Go_O	1.0
934.848	1.0	go	0.394	Go_O	1.0
937.372	1.0	go	0.585	Go_X	1.0
939.896	1.0	go	0.436	Go_X	1.0
942.42	1.0	go	0.418	Go_O	1.0
944.945	0.15	stop	0.0	Go_O	1.0
947.469	1.0	go	0.303	Go_O	1.0
949.993	1.0	go	0.372	Go_X	1.0
952.517	0.2	stop	0.0	Go_X	1.0
955.042	1.0	go	0.296	Go_O	1.0
957.566	1.0	go	0.352	Go_X	1.0
960.09	0.25	stop	0.371	Go_O	0.0
962.614	1.0	go	0.437	Go_O	1.0
965.138	1.0	go	0.436	Go_X	1.0
967.662	1.0	go	0.612	Go_X	1.0
970.187	1.0	go	0.421	Go_O	1.0
972.711	0.2	stop	0.0	Go_X	1.0
975.235	1.0	go	0.449	Go_O	1.0
977.776	0.25	stop	0.0	Go_O	1.0
980.3	1.0	go	0.474	Go_X	1.0
982.824	1.0	go	0.45	Go_X	1.0
985.349	1.0	go	0.384	Go_O	1.0
987.873	1.0	go	0.458	Go_O	1.0
990.397	1.0	go	0.452	Go_X	1.0
992.921	0.3	stop	0.44	Go_X	0.0
995.445	1.0	go	0.476	Go_X	1.0
997.969	1.0	go	0.447	Go_O	1.0
1000.494	0.25	stop	0.388	Go_O	0.0
1003.018	0.2	stop	0.33	Go_X	0.0
1005.542	1.0	go	0.391	Go_X	1.0
1008.066	1.0	go	0.449	Go_O	1.0
1010.59	1.0	go	0.481	Go_X	1.0
1013.115	1.0	go	0.446	Go_O	1.0
1015.656	0.15	stop	0.0	Go_O	1.0
1018.18	1.0	go	0.477	Go_O	1.0
