onset	duration	trial_type	response_time	stim_file	accuracy
0.5289999999999964	1.0	go	0.852	Go_O	0.0
3.0529999999999973	1.0	go	0.412	Go_X	0.0
5.577999999999996	1.0	go	0.358	Go_X	0.0
8.101999999999997	1.0	go	0.302	Go_O	0.0
10.625999999999998	1.0	go	0.905	Go_O	1.0
13.149999999999999	1.0	go	0.508	Go_X	0.0
15.674	0.25	stopsuccess	0.0	Go_O	1.0
18.198999999999998	1.0	go	0.217	Go_X	1.0
20.723	0.3	stopfail	0.329	Go_X	0.0
23.247	1.0	go	0.598	Go_O	0.0
25.770999999999994	1.0	go	0.44	Go_O	1.0
28.294999999999995	1.0	go	0.398	Go_X	1.0
30.82	0.25	stopsuccess	0.0	Go_O	1.0
33.344	1.0	go	0.679	Go_X	1.0
35.868	1.0	go	0.545	Go_O	1.0
38.392	0.3	stopsuccess	0.0	Go_X	1.0
40.91599999999999	0.35	stopfail	0.413	Go_O	0.0
43.43999999999999	1.0	go	0.572	Go_X	1.0
45.964999999999996	1.0	go	0.505	Go_O	1.0
48.489	0.3	stopsuccess	0.0	Go_X	1.0
51.013	1.0	go	0.405	Go_O	1.0
53.538999999999994	1.0	go	0.53	Go_X	1.0
56.061	0.35	stopfail	0.508	Go_O	0.0
58.58599999999999	1.0	go	0.499	Go_X	1.0
61.10999999999999	1.0	go	0.566	Go_O	1.0
63.63399999999999	0.3	stopsuccess	0.0	Go_X	1.0
66.15799999999999	1.0	go	0.583	Go_X	1.0
68.68199999999999	1.0	go	0.575	Go_O	1.0
71.207	0.35	stopsuccess	0.0	Go_O	1.0
73.731	1.0	go	0.6	Go_O	1.0
76.255	1.0	go	0.544	Go_X	1.0
78.779	1.0	go	0.587	Go_X	1.0
81.303	1.0	go	0.4	Go_O	1.0
83.828	1.0	go	0.544	Go_X	1.0
86.352	0.4	stopsuccess	0.0	Go_X	1.0
88.876	1.0	go	0.565	Go_O	1.0
91.4	1.0	go	0.558	Go_O	1.0
93.924	1.0	go	0.62	Go_X	1.0
96.44800000000001	1.0	go	0.814	Go_X	1.0
98.97300000000001	1.0	go	0.811	Go_O	1.0
101.49700000000001	0.45	stopfail	0.526	Go_O	0.0
104.02100000000002	1.0	go	0.492	Go_X	1.0
106.54500000000002	1.0	go	0.588	Go_O	1.0
109.06900000000002	1.0	go	0.844	Go_O	1.0
111.594	1.0	go	0.319	Go_X	1.0
114.118	1.0	go	0.7	Go_O	1.0
116.642	1.0	go	0.718	Go_X	1.0
119.166	0.4	stopsuccess	0.0	Go_X	1.0
121.69	1.0	go	0.622	Go_X	1.0
124.215	1.0	go	0.518	Go_O	1.0
126.739	0.45	stopsuccess	0.0	Go_O	1.0
129.263	1.0	go	0.566	Go_O	1.0
131.787	0.5	stopfail	0.521	Go_X	0.0
134.311	0.45	stopsuccess	0.0	Go_O	1.0
136.836	1.0	go	0.749	Go_X	1.0
139.36	1.0	go	0.578	Go_O	1.0
141.88400000000001	1.0	go	0.387	Go_X	1.0
144.40800000000002	1.0	go	0.481	Go_X	0.0
146.93200000000002	0.5	stopfail	0.421	Go_X	0.0
149.457	1.0	go	0.581	Go_O	1.0
151.981	0.45	stopfail	0.503	Go_O	0.0
154.505	1.0	go	0.556	Go_O	1.0
157.029	1.0	go	0.391	Go_X	1.0
159.553	1.0	go	0.542	Go_X	1.0
162.077	1.0	go	0.609	Go_O	1.0
164.602	1.0	go	0.589	Go_X	1.0
167.126	1.0	go	0.63	Go_O	1.0
169.65	1.0	go	0.765	Go_O	1.0
172.174	1.0	go	0.669	Go_X	1.0
174.698	1.0	go	0.677	Go_O	1.0
177.223	0.4	stopfail	0.54	Go_X	0.0
179.747	1.0	go	0.531	Go_X	1.0
182.27100000000002	1.0	go	0.407	Go_O	1.0
184.79500000000002	1.0	go	0.544	Go_X	1.0
187.31900000000002	0.35	stopsuccess	0.0	Go_O	1.0
189.844	1.0	go	0.529	Go_X	1.0
192.368	1.0	go	0.59	Go_O	1.0
194.892	1.0	go	0.597	Go_O	1.0
197.416	1.0	go	0.599	Go_X	1.0
199.94	1.0	go	0.721	Go_X	1.0
202.465	1.0	go	0.708	Go_O	1.0
204.989	0.4	stopfail	0.492	Go_X	0.0
207.513	1.0	go	0.537	Go_X	1.0
210.037	1.0	go	0.424	Go_O	1.0
212.561	0.35	stopsuccess	0.0	Go_O	1.0
215.085	1.0	go	0.521	Go_O	1.0
217.61	1.0	go	0.548	Go_X	1.0
220.134	0.4	stopsuccess	0.0	Go_X	1.0
222.658	1.0	go	0.421	Go_X	1.0
225.182	0.45	stopfail	0.512	Go_O	0.0
227.706	1.0	go	0.511	Go_O	1.0
230.23100000000002	1.0	go	0.49	Go_O	1.0
232.75500000000002	1.0	go	0.58	Go_X	1.0
235.27900000000002	1.0	go	0.583	Go_X	1.0
237.80300000000003	1.0	go	0.475	Go_O	1.0
240.32700000000003	0.4	stopfail	0.599	Go_X	0.0
242.852	0.35	stopsuccess	0.0	Go_O	1.0
245.376	1.0	go	0.492	Go_O	1.0
247.9	1.0	go	0.434	Go_X	1.0
250.424	0.4	stopsuccess	0.0	Go_X	1.0
252.965	1.0	go	0.493	Go_X	1.0
255.489	1.0	go	0.834	Go_O	1.0
258.013	1.0	go	0.67	Go_X	1.0
260.53799999999995	1.0	go	0.486	Go_O	1.0
263.06199999999995	1.0	go	0.551	Go_O	1.0
265.58599999999996	1.0	go	0.492	Go_X	1.0
268.10999999999996	0.45	stopsuccess	0.0	Go_O	1.0
270.63399999999996	1.0	go	0.478	Go_X	1.0
273.159	1.0	go	0.615	Go_O	1.0
275.683	1.0	go	0.553	Go_X	1.0
278.207	1.0	go	0.532	Go_O	1.0
280.731	1.0	go	0.673	Go_O	1.0
283.255	0.5	stopfail	0.572	Go_X	0.0
285.78	1.0	go	0.7	Go_X	1.0
288.304	1.0	go	0.616	Go_X	1.0
290.828	1.0	go	0.547	Go_O	1.0
293.352	1.0	go	0.698	Go_O	1.0
295.876	0.45	stopfail	0.487	Go_O	0.0
298.40099999999995	1.0	go	0.552	Go_X	1.0
300.92499999999995	1.0	go	0.66	Go_X	1.0
303.44899999999996	0.4	stopfail	0.473	Go_X	0.0
305.97299999999996	1.0	go	0.569	Go_O	1.0
308.49699999999996	0.35	stopsuccess	0.0	Go_O	1.0
311.022	1.0	go	0.442	Go_X	1.0
313.546	1.0	go	0.444	Go_O	1.0
316.07	1.0	go	0.758	Go_O	1.0
318.594	1.0	go	0.662	Go_X	1.0
321.118	1.0	go	0.585	Go_O	1.0
323.643	1.0	go	0.671	Go_X	1.0
326.167	1.0	go	0.76	Go_X	1.0
328.691	0.4	stopfail	0.547	Go_X	0.0
331.215	1.0	go	0.602	Go_O	1.0
333.739	1.0	go	0.63	Go_X	1.0
336.263	1.0	go	0.617	Go_O	1.0
338.78799999999995	0.35	stopsuccess	0.0	Go_O	1.0
341.31199999999995	1.0	go	0.608	Go_O	1.0
343.83599999999996	1.0	go	0.58	Go_X	1.0
346.35999999999996	1.0	go	0.648	Go_X	1.0
348.88399999999996	1.0	go	0.633	Go_O	1.0
351.409	0.4	stopfail	0.49	Go_X	0.0
353.933	1.0	go	0.715	Go_O	1.0
356.457	1.0	go	0.644	Go_X	1.0
358.981	0.35	stopsuccess	0.0	Go_O	1.0
361.505	1.0	go	0.458	Go_X	1.0
364.03	1.0	go	0.602	Go_O	1.0
366.554	0.4	stopfail	0.541	Go_X	0.0
369.078	1.0	go	0.546	Go_X	1.0
371.602	1.0	go	0.315	Go_O	1.0
374.126	0.35	stopsuccess	0.0	Go_O	1.0
376.65099999999995	1.0	go	0.565	Go_O	1.0
379.17499999999995	1.0	go	0.52	Go_X	1.0
381.69899999999996	1.0	go	0.888	Go_X	1.0
384.22299999999996	1.0	go	0.552	Go_O	1.0
386.74699999999996	1.0	go	0.673	Go_X	1.0
389.272	1.0	go	0.653	Go_O	1.0
391.796	0.4	stopfail	0.463	Go_X	0.0
394.32	1.0	go	0.0	Go_O	0.0
396.844	0.35	stopfail	0.515	Go_O	0.0
399.368	1.0	go	0.557	Go_X	1.0
401.892	1.0	go	0.596	Go_O	1.0
404.417	1.0	go	0.578	Go_X	1.0
406.941	1.0	go	0.708	Go_O	1.0
409.465	1.0	go	0.327	Go_X	1.0
411.989	0.3	stopsuccess	0.0	Go_X	1.0
414.513	1.0	go	0.541	Go_O	1.0
417.03799999999995	1.0	go	0.44	Go_X	1.0
419.56199999999995	1.0	go	0.498	Go_X	1.0
422.08599999999996	0.35	stopsuccess	0.0	Go_O	1.0
424.60999999999996	0.4	stopfail	0.619	Go_X	0.0
427.13399999999996	0.35	stopsuccess	0.0	Go_O	1.0
429.659	1.0	go	0.683	Go_O	1.0
432.183	0.4	stopsuccess	0.0	Go_X	1.0
434.707	1.0	go	0.478	Go_O	1.0
437.231	1.0	go	0.658	Go_X	0.0
439.755	1.0	go	0.618	Go_O	1.0
442.28	1.0	go	0.54	Go_X	1.0
444.804	1.0	go	0.624	Go_O	1.0
447.328	1.0	go	0.612	Go_X	1.0
449.852	1.0	go	0.663	Go_X	1.0
452.376	1.0	go	0.628	Go_O	1.0
454.9	0.45	stopsuccess	0.0	Go_O	1.0
457.42499999999995	1.0	go	0.583	Go_O	1.0
459.94899999999996	1.0	go	0.648	Go_X	1.0
462.47299999999996	0.5	stopsuccess	0.0	Go_X	1.0
464.99699999999996	1.0	go	0.578	Go_X	1.0
467.52099999999996	1.0	go	0.463	Go_O	1.0
470.046	1.0	go	0.716	Go_O	1.0
472.57	1.0	go	0.652	Go_X	1.0
475.09399999999994	1.0	go	0.719	Go_X	1.0
477.61799999999994	0.55	stopfail	0.659	Go_O	0.0
480.14199999999994	1.0	go	0.611	Go_O	1.0
482.66700000000003	1.0	go	0.584	Go_X	1.0
485.19100000000003	1.0	go	0.503	Go_O	1.0
487.71500000000003	0.5	stopfail	0.538	Go_X	0.0
490.2389999999999	1.0	go	0.682	Go_X	1.0
492.7629999999999	0.45	stopsuccess	0.0	Go_O	1.0
495.288	1.0	go	0.659	Go_O	1.0
497.812	1.0	go	0.663	Go_O	1.0
500.336	1.0	go	0.715	Go_X	1.0
502.86	1.0	go	0.687	Go_O	1.0
505.384	1.0	go	0.493	Go_X	1.0
507.909	1.0	go	0.473	Go_O	1.0
510.433	1.0	go	0.596	Go_X	1.0
512.957	0.5	stopsuccess	0.0	Go_X	1.0
515.481	1.0	go	0.731	Go_X	1.0
518.005	1.0	go	0.363	Go_O	1.0
520.529	1.0	go	0.675	Go_X	1.0
523.054	1.0	go	0.663	Go_O	1.0
525.578	0.55	stopfail	0.563	Go_O	0.0
528.102	1.0	go	0.663	Go_O	1.0
530.626	0.5	stopfail	0.583	Go_X	0.0
533.15	1.0	go	0.745	Go_X	1.0
535.675	1.0	go	0.712	Go_X	1.0
538.199	0.45	stopfail	0.428	Go_O	0.0
540.723	1.0	go	0.923	Go_O	1.0
543.247	1.0	go	0.558	Go_O	1.0
545.771	1.0	go	0.667	Go_X	1.0
548.2959999999999	1.0	go	0.828	Go_X	1.0
550.8199999999999	1.0	go	0.658	Go_O	1.0
553.3439999999999	1.0	go	0.748	Go_X	1.0
555.8679999999999	1.0	go	0.758	Go_O	1.0
558.3919999999999	1.0	go	0.65	Go_X	1.0
560.917	1.0	go	0.601	Go_O	1.0
563.441	1.0	go	0.689	Go_O	1.0
565.965	0.4	stopsuccess	0.0	Go_X	1.0
568.4889999999999	1.0	go	0.586	Go_X	1.0
571.0129999999999	1.0	go	0.62	Go_X	1.0
573.538	0.45	stopsuccess	0.0	Go_O	1.0
576.062	1.0	go	0.768	Go_O	1.0
578.586	0.5	stopsuccess	0.0	Go_X	1.0
581.11	1.0	go	0.635	Go_X	1.0
583.634	1.0	go	0.584	Go_O	1.0
586.158	0.55	stopfail	0.749	Go_O	0.0
588.683	1.0	go	0.657	Go_X	1.0
591.207	0.5	stopfail	0.567	Go_X	0.0
593.731	1.0	go	0.647	Go_O	1.0
596.255	1.0	go	0.626	Go_O	1.0
598.779	1.0	go	0.617	Go_X	1.0
601.304	0.45	stopsuccess	0.0	Go_O	1.0
603.828	1.0	go	0.614	Go_X	1.0
606.352	1.0	go	0.855	Go_O	1.0
608.876	1.0	go	0.577	Go_X	1.0
611.4	1.0	go	0.575	Go_O	1.0
613.925	0.5	stopsuccess	0.0	Go_X	1.0
616.449	1.0	go	0.0	Go_O	0.0
618.973	1.0	go	0.469	Go_X	1.0
621.497	0.55	stopfail	0.59	Go_O	0.0
624.021	1.0	go	0.55	Go_O	1.0
626.5459999999999	1.0	go	0.746	Go_X	1.0
629.0699999999999	1.0	go	0.612	Go_X	1.0
631.5939999999999	1.0	go	0.63	Go_O	1.0
634.1179999999999	0.5	stopfail	0.514	Go_X	0.0
636.6419999999999	1.0	go	0.711	Go_O	1.0
639.167	0.45	stopsuccess	0.0	Go_O	1.0
641.691	1.0	go	0.82	Go_X	1.0
644.215	1.0	go	0.695	Go_O	1.0
646.7389999999999	0.5	stopsuccess	0.0	Go_X	1.0
649.2629999999999	1.0	go	0.754	Go_X	1.0
651.7869999999999	1.0	go	0.901	Go_X	1.0
654.312	1.0	go	0.57	Go_O	1.0
656.836	1.0	go	0.514	Go_O	1.0
659.36	0.55	stopfail	0.474	Go_O	0.0
661.884	1.0	go	0.523	Go_X	1.0
664.408	0.5	stopfail	0.511	Go_X	0.0
666.933	1.0	go	0.638	Go_X	1.0
669.457	1.0	go	0.545	Go_O	1.0
671.981	1.0	go	0.339	Go_X	1.0
674.505	1.0	go	0.662	Go_O	1.0
677.029	1.0	go	0.791	Go_X	1.0
679.554	1.0	go	0.403	Go_O	1.0
682.078	0.45	stopfail	0.583	Go_O	0.0
684.602	1.0	go	0.59	Go_O	1.0
687.126	1.0	go	0.557	Go_X	1.0
689.65	0.4	stopsuccess	0.0	Go_X	1.0
692.175	1.0	go	0.57	Go_O	1.0
694.699	1.0	go	0.84	Go_X	1.0
697.223	0.45	stopfail	0.402	Go_O	0.0
699.747	1.0	go	0.0	Go_X	0.0
702.271	1.0	go	0.421	Go_O	1.0
704.7959999999999	1.0	go	0.521	Go_X	1.0
707.3199999999999	1.0	go	0.443	Go_O	1.0
709.8439999999999	0.4	stopfail	0.476	Go_X	0.0
712.3679999999999	1.0	go	0.383	Go_O	1.0
714.8919999999999	0.35	stopsuccess	0.0	Go_O	1.0
717.4159999999999	1.0	go	0.546	Go_X	1.0
719.941	1.0	go	0.642	Go_O	1.0
722.465	1.0	go	0.597	Go_X	1.0
724.9889999999999	1.0	go	0.63	Go_O	1.0
727.5129999999999	1.0	go	0.704	Go_X	1.0
730.0369999999999	0.4	stopsuccess	0.0	Go_X	1.0
732.562	1.0	go	0.654	Go_X	1.0
735.086	1.0	go	0.58	Go_O	1.0
737.61	0.45	stopsuccess	0.0	Go_O	1.0
740.134	0.5	stopfail	0.565	Go_X	0.0
742.658	1.0	go	0.72	Go_O	1.0
745.183	1.0	go	0.63	Go_X	1.0
747.707	1.0	go	0.694	Go_O	1.0
750.231	1.0	go	0.599	Go_X	1.0
752.755	0.45	stopsuccess	0.0	Go_O	1.0
755.279	1.0	go	0.564	Go_O	1.0
