onset	duration	trial_type	response_time	stim_file	accuracy
489.365	1.0	go	0.0	Go_X	0.0
491.889	1.0	go	0.418	Go_O	0.0
494.413	1.0	go	0.26	Go_O	1.0
496.954	1.0	go	0.211	Go_X	1.0
499.495	1.0	go	0.536	Go_X	1.0
502.02	1.0	go	0.271	Go_O	1.0
504.544	0.25	stop	0.411	Go_O	0.0
507.068	1.0	go	0.527	Go_X	1.0
509.592	0.2	stop	0.406	Go_X	0.0
512.133	1.0	go	0.358	Go_O	1.0
514.674	1.0	go	0.558	Go_X	1.0
517.198	1.0	go	0.363	Go_O	1.0
519.722	0.15	stop	0.0	Go_O	1.0
522.263	1.0	go	0.576	Go_O	1.0
524.788	1.0	go	0.409	Go_X	1.0
527.312	0.2	stop	0.36	Go_X	0.0
529.853	0.15	stop	0.0	Go_O	1.0
532.394	1.0	go	0.599	Go_X	1.0
534.918	1.0	go	0.649	Go_O	1.0
537.442	0.2	stop	0.0	Go_X	1.0
539.983	1.0	go	0.365	Go_O	1.0
542.507	1.0	go	0.349	Go_X	1.0
545.031	0.25	stop	0.351	Go_O	0.0
547.572	1.0	go	0.579	Go_X	1.0
550.097	1.0	go	0.698	Go_O	1.0
552.621	0.2	stop	0.0	Go_X	1.0
555.162	1.0	go	0.43	Go_X	1.0
557.703	1.0	go	0.527	Go_O	1.0
560.244	0.25	stop	0.0	Go_O	1.0
562.768	1.0	go	0.455	Go_O	1.0
565.292	1.0	go	0.681	Go_X	1.0
567.816	1.0	go	0.874	Go_X	1.0
570.341	1.0	go	0.411	Go_O	1.0
572.865	1.0	go	0.401	Go_O	1.0
575.406	0.3	stop	0.0	Go_X	1.0
577.947	1.0	go	0.501	Go_X	1.0
580.471	1.0	go	0.478	Go_X	1.0
583.012	1.0	go	0.567	Go_O	1.0
585.553	1.0	go	0.535	Go_X	1.0
588.077	1.0	go	0.347	Go_O	1.0
590.601	0.35	stop	0.0	Go_O	1.0
593.125	1.0	go	0.499	Go_O	1.0
595.666	1.0	go	0.429	Go_X	1.0
598.19	1.0	go	0.402	Go_X	1.0
600.715	1.0	go	0.538	Go_O	1.0
603.256	1.0	go	0.63	Go_O	1.0
605.78	1.0	go	0.514	Go_X	1.0
608.304	0.4	stop	0.451	Go_X	0.0
610.828	1.0	go	0.585	Go_O	1.0
613.352	1.0	go	0.494	Go_X	1.0
615.893	0.35	stop	0.315	Go_O	0.0
618.418	1.0	go	0.552	Go_X	1.0
620.942	0.3	stop	0.439	Go_X	0.0
623.483	0.25	stop	0.0	Go_O	1.0
626.024	1.0	go	0.344	Go_O	1.0
628.548	1.0	go	0.698	Go_O	1.0
631.072	1.0	go	0.555	Go_X	1.0
633.596	1.0	go	0.98	Go_X	1.0
636.12	0.3	stop	0.439	Go_X	0.0
638.645	1.0	go	0.592	Go_O	1.0
641.186	0.25	stop	0.0	Go_O	1.0
643.727	1.0	go	0.539	Go_X	1.0
646.251	1.0	go	0.611	Go_O	1.0
648.775	1.0	go	0.684	Go_O	1.0
651.299	1.0	go	0.476	Go_X	1.0
653.823	1.0	go	0.547	Go_X	1.0
656.348	1.0	go	0.677	Go_O	1.0
658.872	1.0	go	0.692	Go_X	1.0
661.396	1.0	go	0.698	Go_O	1.0
663.92	1.0	go	0.67	Go_O	1.0
666.444	0.3	stop	0.0	Go_X	1.0
668.985	1.0	go	0.458	Go_X	0.0
671.526	1.0	go	0.83	Go_X	1.0
674.051	1.0	go	0.776	Go_O	1.0
676.575	0.35	stop	0.0	Go_O	1.0
679.116	1.0	go	0.287	Go_X	1.0
681.64	1.0	go	0.471	Go_O	1.0
684.181	1.0	go	0.464	Go_X	1.0
686.705	1.0	go	0.58	Go_O	1.0
689.246	1.0	go	0.369	Go_X	1.0
691.787	1.0	go	0.418	Go_O	1.0
694.311	0.4	stop	0.436	Go_X	0.0
696.852	1.0	go	0.43	Go_O	1.0
699.376	1.0	go	0.617	Go_X	1.0
701.9	0.35	stop	0.546	Go_O	0.0
704.441	1.0	go	0.656	Go_O	1.0
706.966	1.0	go	0.525	Go_X	1.0
709.507	0.3	stop	0.561	Go_X	0.0
712.047	1.0	go	0.475	Go_X	1.0
714.588	0.25	stop	0.0	Go_O	1.0
717.113	1.0	go	0.605	Go_O	1.0
719.637	1.0	go	0.733	Go_O	1.0
722.164	1.0	go	0.567	Go_X	1.0
724.685	1.0	go	0.448	Go_O	1.0
727.226	1.0	go	0.633	Go_X	1.0
729.75	0.3	stop	0.0	Go_X	1.0
732.275	0.35	stop	0.0	Go_O	1.0
734.799	1.0	go	0.877	Go_O	1.0
737.323	1.0	go	0.647	Go_X	1.0
739.847	0.4	stop	0.514	Go_X	0.0
742.372	1.0	go	0.755	Go_O	1.0
744.896	1.0	go	0.593	Go_X	1.0
747.42	1.0	go	0.66	Go_X	1.0
749.944	1.0	go	0.455	Go_O	1.0
752.485	1.0	go	0.423	Go_X	1.0
755.009	1.0	go	0.347	Go_O	1.0
757.534	0.35	stop	0.535	Go_O	0.0
760.074	1.0	go	0.583	Go_O	1.0
762.599	1.0	go	0.444	Go_X	1.0
765.123	1.0	go	0.545	Go_O	1.0
767.664	1.0	go	0.393	Go_X	1.0
770.188	1.0	go	0.532	Go_O	1.0
772.729	0.3	stop	0.367	Go_X	0.0
775.27	1.0	go	0.558	Go_X	1.0
777.794	1.0	go	0.0	Go_O	0.0
780.318	1.0	go	0.317	Go_X	1.0
782.859	1.0	go	0.404	Go_O	1.0
785.4	0.25	stop	0.501	Go_O	0.0
787.924	1.0	go	0.489	Go_X	1.0
790.465	1.0	go	0.435	Go_O	1.0
793.006	0.2	stop	0.368	Go_X	0.0
795.53	1.0	go	0.613	Go_X	1.0
798.055	0.15	stop	0.0	Go_O	1.0
800.596	1.0	go	0.499	Go_X	1.0
803.12	1.0	go	0.326	Go_O	1.0
805.661	1.0	go	0.224	Go_X	1.0
808.185	1.0	go	0.467	Go_O	1.0
810.709	1.0	go	0.367	Go_O	1.0
813.233	1.0	go	0.282	Go_X	1.0
815.758	1.0	go	0.395	Go_O	1.0
818.282	0.2	stop	0.366	Go_X	0.0
820.823	1.0	go	0.404	Go_X	1.0
823.348	1.0	go	0.381	Go_X	1.0
825.871	1.0	go	0.425	Go_O	1.0
828.395	0.15	stop	0.0	Go_O	1.0
830.92	1.0	go	0.512	Go_X	1.0
833.444	1.0	go	0.41	Go_O	1.0
835.968	1.0	go	0.383	Go_X	1.0
838.492	1.0	go	0.567	Go_O	1.0
841.033	0.2	stop	0.0	Go_X	1.0
843.574	1.0	go	0.486	Go_X	1.0
846.098	1.0	go	0.455	Go_O	1.0
848.622	0.25	stop	0.271	Go_O	0.0
851.163	1.0	go	0.63	Go_X	1.0
853.688	1.0	go	0.559	Go_O	1.0
856.212	0.2	stop	0.504	Go_X	0.0
858.753	1.0	go	0.559	Go_O	1.0
861.277	1.0	go	0.501	Go_X	1.0
863.818	0.15	stop	0.0	Go_O	1.0
866.359	1.0	go	0.784	Go_O	0.0
868.9	1.0	go	0.0	Go_X	0.0
871.424	1.0	go	0.0	Go_O	0.0
873.948	1.0	go	0.288	Go_X	1.0
876.472	1.0	go	0.204	Go_X	0.0
878.997	1.0	go	0.457	Go_O	1.0
881.521	0.2	stop	0.0	Go_X	1.0
884.062	1.0	go	0.751	Go_O	1.0
886.586	0.25	stop	0.0	Go_O	1.0
889.127	1.0	go	0.549	Go_X	0.0
891.651	1.0	go	0.323	Go_X	1.0
894.175	1.0	go	0.416	Go_O	1.0
896.7	1.0	go	0.501	Go_X	1.0
899.24	1.0	go	0.346	Go_O	1.0
901.765	0.3	stop	0.448	Go_X	0.0
904.306	1.0	go	0.375	Go_X	1.0
906.83	1.0	go	0.408	Go_O	1.0
909.354	1.0	go	0.305	Go_O	0.0
911.878	0.25	stop	0.376	Go_O	0.0
914.419	0.2	stop	0.471	Go_X	0.0
916.943	0.15	stop	0.0	Go_O	1.0
919.468	1.0	go	0.543	Go_X	1.0
921.992	0.2	stop	0.0	Go_X	1.0
924.533	1.0	go	0.351	Go_O	1.0
927.057	1.0	go	0.46	Go_X	1.0
929.581	1.0	go	0.383	Go_X	0.0
932.122	1.0	go	0.686	Go_O	1.0
934.646	1.0	go	0.44	Go_X	0.0
937.171	1.0	go	0.467	Go_O	1.0
939.695	1.0	go	0.619	Go_O	1.0
942.219	1.0	go	0.384	Go_X	1.0
944.743	0.25	stop	0.451	Go_O	0.0
947.284	1.0	go	0.602	Go_O	1.0
949.825	1.0	go	0.544	Go_X	1.0
952.349	0.2	stop	0.0	Go_X	1.0
954.873	1.0	go	0.485	Go_X	1.0
957.398	1.0	go	0.364	Go_O	1.0
959.939	1.0	go	0.459	Go_O	1.0
962.48	1.0	go	0.386	Go_X	1.0
965.004	1.0	go	0.417	Go_X	1.0
967.545	0.25	stop	0.48	Go_O	0.0
970.086	1.0	go	0.0	Go_O	0.0
972.61	1.0	go	0.352	Go_X	0.0
975.134	1.0	go	0.48	Go_O	0.0
977.658	0.2	stop	0.0	Go_X	1.0
980.199	1.0	go	0.818	Go_X	0.0
982.74	0.25	stop	0.0	Go_O	1.0
985.281	1.0	go	0.677	Go_O	0.0
987.822	1.0	go	0.49	Go_X	1.0
990.346	1.0	go	0.343	Go_O	1.0
992.887	1.0	go	0.341	Go_X	1.0
995.411	1.0	go	0.234	Go_O	1.0
997.936	1.0	go	0.259	Go_O	0.0
1000.46	1.0	go	0.446	Go_X	1.0
1002.984	0.3	stop	0.5	Go_X	0.0
1005.525	1.0	go	0.453	Go_O	1.0
1008.049	1.0	go	0.609	Go_X	1.0
1010.573	1.0	go	0.904	Go_X	0.0
1013.098	1.0	go	0.442	Go_O	1.0
1015.639	0.25	stop	0.0	Go_O	1.0
1018.179	1.0	go	0.446	Go_X	1.0
1020.704	0.3	stop	0.381	Go_X	0.0
1023.245	1.0	go	0.8	Go_O	1.0
1025.786	1.0	go	0.535	Go_O	1.0
1028.326	0.25	stop	0.456	Go_O	0.0
1030.867	1.0	go	0.401	Go_X	1.0
1033.392	1.0	go	0.349	Go_X	1.0
1035.916	1.0	go	0.416	Go_O	1.0
1038.44	1.0	go	0.377	Go_X	1.0
1040.981	1.0	go	0.441	Go_O	1.0
1043.505	1.0	go	0.584	Go_O	1.0
1046.029	1.0	go	0.466	Go_X	1.0
1048.554	1.0	go	0.274	Go_X	0.0
1051.095	1.0	go	0.66	Go_O	1.0
1053.619	1.0	go	0.13	Go_O	0.0
1056.143	0.2	stop	0.396	Go_X	0.0
1058.684	1.0	go	0.427	Go_X	1.0
1061.208	1.0	go	0.271	Go_O	0.0
1063.732	0.15	stop	0.0	Go_O	1.0
1066.257	1.0	go	0.436	Go_X	1.0
1068.781	0.2	stop	0.299	Go_X	0.0
1071.305	1.0	go	0.502	Go_O	1.0
1073.829	1.0	go	0.262	Go_X	1.0
1076.356	0.15	stop	0.0	Go_O	1.0
1078.894	1.0	go	0.457	Go_O	1.0
1081.419	0.2	stop	0.233	Go_X	0.0
1083.943	1.0	go	0.446	Go_X	1.0
1086.467	1.0	go	0.748	Go_O	1.0
1088.991	1.0	go	0.382	Go_X	1.0
1091.515	0.15	stop	0.0	Go_O	1.0
1094.04	1.0	go	0.205	Go_O	0.0
1096.564	1.0	go	0.274	Go_X	1.0
1099.105	1.0	go	0.604	Go_X	1.0
1101.629	1.0	go	0.328	Go_O	1.0
1104.153	0.2	stop	0.116	Go_X	0.0
1106.677	1.0	go	0.465	Go_O	1.0
1109.202	1.0	go	0.359	Go_X	1.0
1111.726	0.15	stop	0.274	Go_O	0.0
1114.267	1.0	go	0.364	Go_O	1.0
1116.808	1.0	go	0.0	Go_X	0.0
1119.332	1.0	go	0.476	Go_O	1.0
1121.856	1.0	go	0.304	Go_X	1.0
1124.397	0.1	stop	0.0	Go_X	1.0
1126.921	1.0	go	0.461	Go_O	1.0
1129.445	0.15	stop	0.0	Go_O	1.0
1131.97	1.0	go	0.309	Go_X	1.0
1134.494	1.0	go	0.565	Go_O	1.0
1137.018	0.2	stop	0.0	Go_X	1.0
1139.559	1.0	go	0.848	Go_X	1.0
1142.1	1.0	go	0.585	Go_O	1.0
1144.624	1.0	go	0.461	Go_X	1.0
1147.148	1.0	go	0.309	Go_O	1.0
1149.689	0.25	stop	0.436	Go_O	0.0
1152.214	1.0	go	0.672	Go_X	1.0
1154.754	0.2	stop	0.0	Go_X	1.0
1157.279	1.0	go	0.432	Go_O	1.0
1159.803	1.0	go	0.658	Go_X	1.0
1162.344	1.0	go	0.489	Go_O	1.0
1164.868	1.0	go	0.521	Go_X	1.0
1167.409	1.0	go	0.557	Go_X	1.0
1169.933	1.0	go	0.857	Go_O	1.0
1172.457	0.25	stop	0.0	Go_O	1.0
1174.982	1.0	go	0.293	Go_X	1.0
1177.506	1.0	go	0.496	Go_O	1.0
1180.03	0.3	stop	0.55	Go_X	0.0
1182.554	1.0	go	0.532	Go_O	1.0
1185.078	1.0	go	0.414	Go_X	1.0
1187.603	0.25	stop	0.0	Go_O	1.0
1190.144	1.0	go	0.654	Go_O	1.0
1192.668	1.0	go	0.387	Go_X	1.0
1195.192	1.0	go	0.74	Go_O	1.0
1197.733	1.0	go	0.331	Go_X	1.0
1200.257	0.3	stop	0.429	Go_X	0.0
1202.781	1.0	go	0.416	Go_O	1.0
1205.306	0.25	stop	0.266	Go_O	0.0
1207.847	1.0	go	0.71	Go_X	1.0
1210.371	1.0	go	0.576	Go_O	1.0
1212.895	1.0	go	0.446	Go_X	0.0
1215.436	1.0	go	0.462	Go_X	1.0
1217.96	1.0	go	0.525	Go_O	1.0
1220.484	0.2	stop	0.0	Go_X	1.0
1223.025	1.0	go	0.437	Go_O	1.0
1225.549	1.0	go	0.582	Go_X	1.0
1228.074	0.25	stop	0.0	Go_O	1.0
1230.615	0.3	stop	0.368	Go_X	0.0
1233.156	1.0	go	0.556	Go_X	0.0
1235.68	1.0	go	0.463	Go_O	1.0
1238.204	1.0	go	0.32	Go_O	0.0
1240.728	1.0	go	0.439	Go_X	1.0
1243.252	0.25	stop	0.461	Go_O	0.0
1245.777	1.0	go	0.69	Go_O	1.0
