onset	duration	trial_type	response_time	stim_file	accuracy
45.989	1.0	go	0.387	Go_O	1.0
48.513	1.0	go	0.368	Go_X	0.0
51.037	1.0	go	0.293	Go_O	1.0
53.561	1.0	go	0.366	Go_X	1.0
56.086	1.0	go	0.28	Go_O	1.0
58.61	1.0	go	0.363	Go_X	1.0
61.134	0.25	stop	0.0	Go_O	1.0
63.658	1.0	go	0.34	Go_X	1.0
66.182	0.3	stop	0.453	Go_X	0.0
68.707	1.0	go	0.416	Go_O	1.0
71.231	1.0	go	0.443	Go_O	1.0
73.755	1.0	go	0.346	Go_X	1.0
76.279	0.25	stop	0.282	Go_O	0.0
78.804	1.0	go	0.341	Go_O	0.0
81.328	1.0	go	0.281	Go_X	1.0
83.852	0.2	stop	0.0	Go_X	1.0
86.376	0.25	stop	0.363	Go_O	0.0
88.9	1.0	go	0.49	Go_O	1.0
91.425	1.0	go	0.424	Go_X	1.0
93.949	0.2	stop	0.0	Go_X	1.0
96.473	1.0	go	0.48	Go_X	0.0
98.997	1.0	go	0.413	Go_O	1.0
101.521	0.25	stop	0.0	Go_O	1.0
104.046	1.0	go	0.512	Go_X	1.0
106.57	1.0	go	0.521	Go_O	1.0
109.094	0.3	stop	0.0	Go_X	1.0
111.618	1.0	go	0.455	Go_O	1.0
114.143	1.0	go	0.504	Go_X	1.0
116.667	0.35	stop	0.496	Go_O	0.0
119.191	1.0	go	0.788	Go_X	1.0
121.715	1.0	go	0.466	Go_O	1.0
124.239	1.0	go	0.315	Go_X	1.0
126.764	1.0	go	0.328	Go_O	1.0
129.288	1.0	go	0.422	Go_X	1.0
131.812	0.3	stop	0.295	Go_X	0.0
134.336	1.0	go	0.258	Go_O	1.0
136.86	1.0	go	0.379	Go_X	1.0
139.385	1.0	go	0.965	Go_O	1.0
141.909	1.0	go	0.296	Go_O	1.0
144.433	1.0	go	0.359	Go_X	1.0
146.957	0.25	stop	0.0	Go_O	1.0
149.482	1.0	go	0.514	Go_X	1.0
152.006	1.0	go	0.636	Go_O	1.0
154.53	1.0	go	0.0	Go_O	0.0
157.054	1.0	go	0.441	Go_X	1.0
159.578	1.0	go	0.586	Go_O	1.0
162.103	1.0	go	0.635	Go_X	1.0
164.627	0.3	stop	0.509	Go_X	0.0
167.151	1.0	go	0.379	Go_X	1.0
169.675	1.0	go	0.318	Go_O	1.0
172.199	0.25	stop	0.0	Go_O	1.0
174.724	1.0	go	0.391	Go_X	1.0
177.248	0.3	stop	0.587	Go_X	0.0
179.772	0.25	stop	0.445	Go_O	0.0
182.296	1.0	go	0.381	Go_O	1.0
184.821	1.0	go	0.577	Go_O	1.0
187.345	1.0	go	0.462	Go_X	1.0
189.869	1.0	go	0.569	Go_O	1.0
192.393	0.2	stop	0.0	Go_X	1.0
194.917	1.0	go	0.591	Go_X	1.0
197.442	0.25	stop	0.0	Go_O	1.0
199.966	1.0	go	0.428	Go_O	1.0
202.49	1.0	go	0.435	Go_X	1.0
205.014	1.0	go	0.335	Go_X	0.0
207.538	1.0	go	0.349	Go_O	1.0
210.063	1.0	go	0.709	Go_X	1.0
212.587	1.0	go	0.0	Go_O	0.0
215.111	1.0	go	0.51	Go_O	1.0
217.635	1.0	go	0.0	Go_X	0.0
220.16	1.0	go	0.0	Go_O	0.0
222.684	0.3	stop	0.422	Go_X	0.0
225.208	1.0	go	0.744	Go_X	1.0
227.732	1.0	go	0.601	Go_O	1.0
230.256	1.0	go	0.0	Go_X	0.0
232.781	0.25	stop	0.453	Go_O	0.0
235.305	1.0	go	0.412	Go_X	1.0
237.829	1.0	go	0.799	Go_O	1.0
240.353	1.0	go	0.0	Go_X	0.0
242.877	1.0	go	0.467	Go_O	1.0
245.402	1.0	go	0.0	Go_O	0.0
247.926	1.0	go	0.446	Go_X	1.0
250.45	0.2	stop	0.0	Go_X	1.0
252.974	1.0	go	0.4	Go_O	1.0
255.499	1.0	go	0.841	Go_X	1.0
258.023	0.25	stop	0.35	Go_O	0.0
260.547	1.0	go	0.809	Go_O	1.0
263.071	1.0	go	0.413	Go_X	1.0
265.595	0.2	stop	0.0	Go_X	1.0
268.12	1.0	go	0.515	Go_X	1.0
270.644	0.25	stop	0.0	Go_O	1.0
273.168	1.0	go	0.303	Go_O	1.0
275.692	1.0	go	0.0	Go_O	0.0
278.216	1.0	go	0.0	Go_X	0.0
280.741	1.0	go	0.669	Go_X	1.0
283.265	1.0	go	0.0	Go_O	0.0
285.789	0.3	stop	0.0	Go_X	1.0
288.313	0.35	stop	0.0	Go_O	1.0
290.838	1.0	go	0.364	Go_O	1.0
293.362	1.0	go	0.0	Go_X	0.0
295.886	0.4	stop	0.0	Go_X	1.0
298.41	1.0	go	0.481	Go_X	1.0
300.934	1.0	go	0.0	Go_O	0.0
303.459	1.0	go	0.0	Go_X	0.0
305.983	1.0	go	0.0	Go_O	0.0
308.507	1.0	go	0.432	Go_X	1.0
311.031	1.0	go	0.49	Go_O	1.0
313.555	0.45	stop	0.452	Go_O	0.0
316.08	1.0	go	0.0	Go_X	0.0
318.604	1.0	go	0.0	Go_O	0.0
321.128	1.0	go	0.384	Go_O	1.0
323.652	1.0	go	0.0	Go_X	0.0
326.177	1.0	go	0.0	Go_X	0.0
328.701	0.4	stop	0.0	Go_X	1.0
331.225	1.0	go	0.817	Go_O	1.0
333.749	1.0	go	0.434	Go_O	1.0
336.273	1.0	go	0.0	Go_X	0.0
338.798	1.0	go	0.365	Go_O	1.0
341.322	0.45	stop	0.501	Go_O	0.0
343.846	1.0	go	0.0	Go_X	0.0
346.37	1.0	go	0.0	Go_X	0.0
348.894	0.4	stop	0.0	Go_X	1.0
351.419	1.0	go	0.0	Go_O	0.0
353.943	0.45	stop	0.0	Go_O	1.0
356.467	1.0	go	0.0	Go_X	0.0
358.991	1.0	go	0.0	Go_O	0.0
361.516	1.0	go	0.0	Go_X	0.0
364.04	1.0	go	0.0	Go_O	0.0
366.564	1.0	go	0.0	Go_X	0.0
369.088	1.0	go	0.0	Go_O	0.0
371.612	1.0	go	0.0	Go_X	0.0
374.137	0.5	stop	0.0	Go_X	1.0
376.661	1.0	go	0.0	Go_O	0.0
379.185	1.0	go	0.411	Go_X	1.0
381.709	1.0	go	0.344	Go_O	1.0
384.233	0.55	stop	0.299	Go_O	0.0
386.758	1.0	go	0.271	Go_O	1.0
389.282	1.0	go	0.393	Go_X	1.0
391.806	1.0	go	0.297	Go_X	1.0
394.33	1.0	go	0.339	Go_O	0.0
396.854	0.5	stop	0.437	Go_X	0.0
399.379	1.0	go	0.319	Go_X	0.0
401.903	1.0	go	0.302	Go_O	1.0
404.427	0.45	stop	0.597	Go_O	0.0
406.951	1.0	go	0.719	Go_O	1.0
409.476	1.0	go	0.39	Go_X	1.0
412.0	0.4	stop	0.484	Go_X	0.0
414.524	1.0	go	0.45	Go_X	1.0
417.048	1.0	go	0.0	Go_O	0.0
419.572	0.35	stop	0.0	Go_O	1.0
422.097	1.0	go	0.0	Go_O	0.0
424.621	1.0	go	0.504	Go_X	1.0
427.145	1.0	go	0.0	Go_O	0.0
429.669	1.0	go	0.0	Go_X	0.0
432.194	1.0	go	0.476	Go_X	1.0
434.718	1.0	go	0.0	Go_O	0.0
437.242	0.4	stop	0.0	Go_X	1.0
439.766	1.0	go	0.0	Go_X	0.0
442.29	0.45	stop	0.0	Go_O	1.0
444.815	1.0	go	0.0	Go_O	0.0
447.339	1.0	go	0.0	Go_O	0.0
449.863	1.0	go	0.0	Go_X	0.0
452.387	1.0	go	0.515	Go_O	1.0
454.911	1.0	go	0.493	Go_X	1.0
457.436	0.5	stop	0.412	Go_X	0.0
459.96	1.0	go	0.492	Go_O	1.0
462.484	1.0	go	0.0	Go_X	0.0
465.008	1.0	go	0.473	Go_O	1.0
467.532	0.45	stop	0.748	Go_O	0.0
470.057	0.4	stop	0.541	Go_X	0.0
472.581	0.35	stop	0.0	Go_O	1.0
475.105	1.0	go	0.817	Go_X	1.0
477.629	0.4	stop	0.0	Go_X	1.0
480.154	1.0	go	0.0	Go_O	0.0
482.678	1.0	go	0.427	Go_X	1.0
485.202	1.0	go	0.857	Go_O	1.0
487.726	1.0	go	0.0	Go_X	0.0
490.25	1.0	go	0.919	Go_O	1.0
492.775	1.0	go	0.79	Go_X	1.0
495.299	1.0	go	0.0	Go_X	0.0
497.823	1.0	go	0.0	Go_O	0.0
500.347	0.45	stop	0.535	Go_O	0.0
502.871	1.0	go	0.0	Go_X	0.0
505.396	1.0	go	0.0	Go_O	0.0
507.92	0.4	stop	0.0	Go_X	1.0
510.444	1.0	go	0.0	Go_X	0.0
512.968	1.0	go	0.0	Go_O	0.0
515.493	1.0	go	0.461	Go_O	1.0
518.017	1.0	go	0.0	Go_X	0.0
520.541	1.0	go	0.826	Go_O	1.0
523.065	0.45	stop	0.0	Go_O	1.0
525.589	1.0	go	0.0	Go_X	0.0
528.114	1.0	go	0.0	Go_X	0.0
530.638	1.0	go	0.0	Go_O	0.0
533.162	0.5	stop	0.0	Go_X	1.0
535.686	1.0	go	0.0	Go_X	0.0
538.21	0.55	stop	0.0	Go_O	1.0
540.735	1.0	go	0.0	Go_O	0.0
543.259	1.0	go	0.0	Go_O	0.0
545.783	1.0	go	0.453	Go_X	1.0
548.307	1.0	go	0.601	Go_O	1.0
550.832	1.0	go	0.0	Go_X	0.0
553.356	1.0	go	0.0	Go_X	0.0
555.88	1.0	go	0.0	Go_O	0.0
558.404	0.6	stop	0.808	Go_X	0.0
560.928	1.0	go	0.547	Go_O	1.0
563.453	1.0	go	0.617	Go_X	1.0
565.977	1.0	go	0.0	Go_O	0.0
568.501	1.0	go	0.0	Go_X	0.0
571.025	0.55	stop	0.0	Go_O	1.0
573.549	1.0	go	0.584	Go_O	1.0
576.074	0.6	stop	0.0	Go_X	1.0
578.598	1.0	go	0.0	Go_X	0.0
581.122	1.0	go	0.0	Go_O	0.0
583.646	0.65	stop	0.458	Go_O	0.0
586.171	1.0	go	0.712	Go_X	1.0
588.695	1.0	go	0.0	Go_O	0.0
591.219	1.0	go	0.781	Go_X	1.0
593.743	1.0	go	0.0	Go_X	0.0
596.267	1.0	go	0.0	Go_O	0.0
598.792	1.0	go	0.0	Go_O	0.0
601.316	1.0	go	0.0	Go_X	0.0
603.84	1.0	go	0.0	Go_O	0.0
606.364	1.0	go	0.0	Go_X	0.0
608.888	1.0	go	0.0	Go_O	0.0
611.413	0.6	stop	0.0	Go_X	1.0
613.937	1.0	go	0.0	Go_X	0.0
616.461	1.0	go	0.712	Go_X	1.0
618.985	0.65	stop	0.438	Go_O	0.0
621.51	1.0	go	0.0	Go_O	0.0
624.034	0.6	stop	0.678	Go_X	0.0
626.558	1.0	go	0.0	Go_O	0.0
629.082	1.0	go	0.0	Go_X	0.0
631.606	0.55	stop	0.0	Go_O	1.0
634.131	1.0	go	0.527	Go_O	1.0
636.655	0.6	stop	0.0	Go_X	1.0
639.179	1.0	go	0.0	Go_X	0.0
641.703	1.0	go	0.0	Go_O	0.0
644.227	1.0	go	0.0	Go_X	0.0
646.752	0.65	stop	0.0	Go_O	1.0
649.276	1.0	go	0.0	Go_O	0.0
651.8	1.0	go	0.0	Go_X	0.0
654.324	1.0	go	0.0	Go_X	0.0
656.849	1.0	go	0.0	Go_O	0.0
659.373	0.7	stop	0.0	Go_X	1.0
661.897	1.0	go	0.0	Go_X	0.0
664.421	1.0	go	0.564	Go_O	1.0
666.945	0.75	stop	0.329	Go_O	0.0
669.47	1.0	go	0.413	Go_O	1.0
671.994	1.0	go	0.751	Go_X	1.0
674.518	1.0	go	0.674	Go_X	1.0
677.042	1.0	go	0.0	Go_O	0.0
679.566	0.7	stop	0.0	Go_X	1.0
682.091	1.0	go	0.0	Go_X	0.0
684.615	0.75	stop	0.505	Go_O	0.0
687.139	1.0	go	0.0	Go_O	0.0
689.663	1.0	go	0.0	Go_X	0.0
692.188	0.7	stop	0.0	Go_X	1.0
694.712	1.0	go	0.0	Go_O	0.0
697.236	1.0	go	0.0	Go_O	0.0
699.76	1.0	go	0.0	Go_X	0.0
702.284	1.0	go	0.475	Go_O	1.0
704.809	0.75	stop	0.0	Go_O	1.0
707.333	1.0	go	0.0	Go_X	0.0
709.857	0.8	stop	0.0	Go_X	1.0
712.381	1.0	go	0.0	Go_X	0.0
714.905	1.0	go	0.0	Go_O	0.0
717.43	1.0	go	0.0	Go_O	0.0
719.954	1.0	go	0.0	Go_X	0.0
722.478	1.0	go	0.0	Go_O	0.0
725.002	1.0	go	0.0	Go_X	0.0
727.527	0.85	stop	0.0	Go_O	1.0
730.051	1.0	go	0.0	Go_O	0.0
732.575	1.0	go	0.0	Go_X	0.0
735.099	0.9	stop	0.0	Go_X	1.0
737.623	1.0	go	0.0	Go_X	0.0
740.148	1.0	go	0.0	Go_O	0.0
742.672	0.95	stop	0.463	Go_O	0.0
745.196	1.0	go	0.408	Go_X	1.0
747.72	1.0	go	0.454	Go_O	1.0
750.244	1.0	go	0.31	Go_O	1.0
752.769	1.0	go	0.372	Go_X	1.0
755.293	0.9	stop	0.547	Go_X	0.0
757.817	1.0	go	0.369	Go_O	1.0
760.341	0.85	stop	0.315	Go_O	0.0
762.866	1.0	go	0.285	Go_X	1.0
765.39	1.0	go	0.232	Go_O	1.0
767.914	1.0	go	0.415	Go_X	1.0
770.438	1.0	go	0.458	Go_X	1.0
772.962	1.0	go	0.308	Go_O	1.0
775.487	0.8	stop	0.0	Go_X	1.0
778.011	1.0	go	0.0	Go_O	0.0
780.535	1.0	go	0.0	Go_X	0.0
783.059	0.85	stop	0.0	Go_O	1.0
785.583	0.9	stop	0.434	Go_X	0.0
788.108	1.0	go	0.367	Go_X	1.0
790.632	1.0	go	0.406	Go_O	0.0
793.156	1.0	go	0.471	Go_X	1.0
795.68	1.0	go	0.233	Go_O	1.0
798.205	0.85	stop	0.232	Go_O	0.0
800.729	1.0	go	0.399	Go_O	1.0
