onset	duration	trial_type	response_time	stim_file	accuracy
405.921	1.0	go	0.246	Go_X	1.0
408.445	1.0	go	0.388	Go_O	0.0
410.969	1.0	go	0.354	Go_X	1.0
413.493	1.0	go	0.291	Go_O	1.0
416.017	1.0	go	0.363	Go_O	1.0
418.542	1.0	go	0.286	Go_X	1.0
421.066	0.25	stop	0.275	Go_O	0.0
423.59	1.0	go	0.5	Go_O	1.0
426.114	0.2	stop	0.326	Go_X	0.0
428.638	1.0	go	0.363	Go_X	1.0
431.163	1.0	go	0.3	Go_O	1.0
433.687	1.0	go	0.401	Go_X	1.0
436.211	0.15	stop	0.0	Go_O	1.0
438.735	1.0	go	0.355	Go_X	1.0
441.26	1.0	go	0.398	Go_O	1.0
443.784	0.2	stop	0.293	Go_X	0.0
446.308	0.15	stop	0.0	Go_O	1.0
448.832	1.0	go	0.346	Go_X	1.0
451.356	1.0	go	0.482	Go_O	1.0
453.881	0.2	stop	0.0	Go_X	1.0
456.405	1.0	go	0.422	Go_X	1.0
458.929	1.0	go	0.28	Go_O	1.0
461.453	0.25	stop	0.0	Go_O	1.0
463.977	1.0	go	0.411	Go_O	1.0
466.502	1.0	go	0.374	Go_X	1.0
469.026	0.3	stop	0.445	Go_X	0.0
471.55	1.0	go	0.634	Go_X	1.0
474.074	1.0	go	0.377	Go_O	1.0
476.599	0.25	stop	0.0	Go_O	1.0
479.123	1.0	go	0.338	Go_X	1.0
481.647	1.0	go	0.353	Go_O	1.0
484.171	1.0	go	0.482	Go_O	1.0
486.695	1.0	go	0.54	Go_X	1.0
489.22	1.0	go	0.508	Go_O	1.0
491.744	0.3	stop	0.363	Go_X	0.0
494.268	1.0	go	0.494	Go_X	1.0
496.792	1.0	go	0.499	Go_X	1.0
499.316	1.0	go	0.573	Go_O	1.0
501.841	1.0	go	0.463	Go_X	1.0
504.365	1.0	go	0.664	Go_O	1.0
506.889	0.25	stop	0.0	Go_O	1.0
509.413	1.0	go	0.409	Go_O	1.0
511.938	1.0	go	0.587	Go_X	1.0
514.462	1.0	go	0.425	Go_O	1.0
516.986	1.0	go	0.394	Go_X	1.0
519.51	1.0	go	0.471	Go_X	1.0
522.034	1.0	go	0.428	Go_O	1.0
524.559	0.3	stop	0.336	Go_X	0.0
527.083	1.0	go	0.377	Go_O	1.0
529.607	1.0	go	0.519	Go_X	1.0
532.131	0.25	stop	0.33	Go_O	0.0
534.655	1.0	go	0.493	Go_O	1.0
537.18	0.2	stop	0.0	Go_X	1.0
539.704	0.25	stop	0.0	Go_O	1.0
542.228	1.0	go	0.476	Go_X	1.0
544.752	1.0	go	0.549	Go_O	1.0
547.277	1.0	go	0.483	Go_X	1.0
549.801	1.0	go	0.521	Go_X	1.0
552.325	0.3	stop	0.0	Go_X	1.0
554.849	1.0	go	0.534	Go_O	1.0
557.373	0.35	stop	0.0	Go_O	1.0
559.898	1.0	go	0.505	Go_X	1.0
562.422	1.0	go	0.533	Go_O	1.0
564.946	1.0	go	0.525	Go_O	1.0
567.47	1.0	go	0.477	Go_X	1.0
569.994	1.0	go	0.618	Go_O	1.0
572.519	1.0	go	0.615	Go_X	1.0
575.043	1.0	go	0.407	Go_X	1.0
577.567	1.0	go	0.357	Go_O	1.0
580.091	1.0	go	0.526	Go_O	1.0
582.616	0.4	stop	0.0	Go_X	1.0
585.14	1.0	go	0.46	Go_X	1.0
587.664	1.0	go	0.469	Go_O	1.0
590.188	1.0	go	0.555	Go_X	1.0
592.712	0.45	stop	0.467	Go_O	0.0
595.237	1.0	go	0.428	Go_X	1.0
597.761	1.0	go	0.641	Go_O	1.0
600.285	1.0	go	0.737	Go_O	1.0
602.809	1.0	go	0.416	Go_X	1.0
605.333	1.0	go	0.516	Go_O	1.0
607.858	1.0	go	0.424	Go_X	1.0
610.382	0.4	stop	0.44	Go_X	0.0
612.906	1.0	go	0.638	Go_O	1.0
615.43	1.0	go	0.581	Go_X	1.0
617.955	0.35	stop	0.0	Go_O	1.0
620.479	1.0	go	0.543	Go_X	1.0
623.003	1.0	go	0.519	Go_O	1.0
625.527	0.4	stop	0.59	Go_X	0.0
628.051	1.0	go	0.56	Go_X	1.0
630.576	0.35	stop	0.0	Go_O	1.0
633.1	1.0	go	0.494	Go_O	1.0
635.624	1.0	go	0.498	Go_X	1.0
638.148	1.0	go	0.707	Go_O	1.0
640.672	1.0	go	0.594	Go_X	1.0
643.197	1.0	go	0.392	Go_O	1.0
645.721	0.4	stop	0.0	Go_X	1.0
648.245	0.45	stop	0.0	Go_O	1.0
650.769	1.0	go	0.601	Go_X	1.0
653.294	1.0	go	0.332	Go_O	1.0
655.818	0.5	stop	0.548	Go_X	0.0
658.342	1.0	go	0.542	Go_X	1.0
660.866	1.0	go	0.736	Go_O	1.0
663.39	1.0	go	0.695	Go_X	1.0
665.915	1.0	go	0.664	Go_O	1.0
668.439	1.0	go	0.674	Go_O	1.0
670.963	1.0	go	0.667	Go_X	1.0
673.487	0.45	stop	0.0	Go_O	1.0
676.011	1.0	go	0.866	Go_X	1.0
678.536	1.0	go	0.446	Go_O	1.0
681.06	1.0	go	0.541	Go_O	1.0
683.584	1.0	go	0.614	Go_X	1.0
686.108	1.0	go	0.405	Go_X	1.0
688.633	0.5	stop	0.0	Go_X	1.0
691.157	1.0	go	0.499	Go_O	1.0
693.681	1.0	go	0.623	Go_X	1.0
696.205	1.0	go	0.636	Go_O	1.0
698.729	1.0	go	0.537	Go_X	1.0
701.254	0.55	stop	0.538	Go_O	0.0
703.778	1.0	go	0.553	Go_O	1.0
706.302	1.0	go	0.577	Go_O	1.0
708.826	0.5	stop	0.392	Go_X	0.0
711.35	1.0	go	0.715	Go_X	1.0
713.875	0.45	stop	0.602	Go_O	0.0
716.399	1.0	go	0.763	Go_X	1.0
718.923	1.0	go	0.681	Go_O	1.0
721.447	1.0	go	0.694	Go_X	1.0
723.972	1.0	go	0.736	Go_O	1.0
726.496	1.0	go	0.826	Go_O	1.0
729.02	1.0	go	0.773	Go_X	1.0
731.544	1.0	go	0.536	Go_X	1.0
734.068	0.4	stop	0.502	Go_X	0.0
736.593	1.0	go	0.566	Go_O	1.0
739.117	1.0	go	0.729	Go_O	1.0
741.641	1.0	go	0.585	Go_X	1.0
744.165	0.35	stop	0.0	Go_O	1.0
746.689	1.0	go	0.584	Go_X	1.0
749.214	1.0	go	0.56	Go_O	1.0
751.738	1.0	go	0.681	Go_X	1.0
754.262	1.0	go	0.726	Go_O	1.0
756.786	0.4	stop	0.0	Go_X	1.0
759.311	1.0	go	0.469	Go_X	1.0
761.835	1.0	go	0.603	Go_O	1.0
764.359	0.45	stop	0.561	Go_O	0.0
766.883	1.0	go	0.584	Go_O	1.0
769.407	1.0	go	0.756	Go_X	1.0
771.932	0.4	stop	0.0	Go_X	1.0
774.456	1.0	go	0.532	Go_X	1.0
776.98	1.0	go	0.547	Go_O	1.0
779.504	0.45	stop	0.492	Go_O	0.0
782.028	1.0	go	0.601	Go_X	1.0
784.553	1.0	go	0.721	Go_O	1.0
787.077	1.0	go	0.56	Go_O	1.0
789.601	1.0	go	0.496	Go_X	1.0
792.125	1.0	go	0.766	Go_O	1.0
794.649	1.0	go	0.483	Go_X	1.0
797.174	0.4	stop	0.0	Go_X	1.0
799.698	1.0	go	0.567	Go_X	1.0
802.222	0.45	stop	0.0	Go_O	1.0
804.746	1.0	go	0.504	Go_O	1.0
807.271	1.0	go	0.625	Go_X	1.0
809.795	1.0	go	0.597	Go_O	1.0
812.319	1.0	go	0.826	Go_O	1.0
814.843	1.0	go	0.813	Go_X	1.0
817.367	0.5	stop	0.0	Go_X	1.0
819.892	1.0	go	0.447	Go_O	1.0
822.416	1.0	go	0.779	Go_X	1.0
824.94	1.0	go	0.754	Go_X	1.0
827.464	0.55	stop	0.698	Go_O	0.0
829.988	0.5	stop	0.413	Go_X	0.0
832.513	0.45	stop	0.0	Go_O	1.0
835.037	1.0	go	0.589	Go_O	1.0
837.561	0.5	stop	0.0	Go_X	1.0
840.085	1.0	go	0.626	Go_O	1.0
842.61	1.0	go	0.789	Go_X	1.0
845.134	1.0	go	0.54	Go_X	1.0
847.658	1.0	go	0.541	Go_O	1.0
850.182	1.0	go	0.502	Go_X	1.0
852.706	1.0	go	0.62	Go_O	1.0
855.231	1.0	go	0.662	Go_O	1.0
857.755	1.0	go	0.55	Go_X	1.0
860.279	0.55	stop	0.649	Go_O	0.0
862.803	1.0	go	0.786	Go_X	1.0
865.327	1.0	go	0.758	Go_O	1.0
867.852	0.5	stop	0.0	Go_X	1.0
870.376	1.0	go	0.695	Go_X	1.0
872.9	1.0	go	0.854	Go_O	1.0
875.424	1.0	go	0.919	Go_O	1.0
877.949	1.0	go	0.555	Go_X	1.0
880.473	1.0	go	0.482	Go_O	1.0
882.997	0.55	stop	0.0	Go_O	1.0
885.521	1.0	go	0.589	Go_X	1.0
888.045	1.0	go	0.629	Go_O	1.0
890.57	1.0	go	0.754	Go_X	1.0
893.094	0.6	stop	0.465	Go_X	0.0
895.618	1.0	go	0.621	Go_O	1.0
898.142	0.55	stop	0.454	Go_O	0.0
900.666	1.0	go	0.994	Go_X	1.0
903.191	1.0	go	0.61	Go_X	1.0
905.715	1.0	go	0.445	Go_O	1.0
908.239	1.0	go	0.771	Go_X	1.0
910.763	1.0	go	0.349	Go_O	1.0
913.288	1.0	go	0.405	Go_X	1.0
915.812	1.0	go	0.292	Go_O	1.0
918.336	0.5	stop	0.264	Go_X	0.0
920.86	1.0	go	0.609	Go_O	1.0
923.384	1.0	go	0.648	Go_X	1.0
925.909	1.0	go	0.499	Go_O	1.0
928.433	1.0	go	0.658	Go_X	1.0
930.957	0.45	stop	0.337	Go_O	0.0
933.481	1.0	go	0.693	Go_X	1.0
936.005	0.4	stop	0.0	Go_X	1.0
938.53	1.0	go	0.718	Go_O	1.0
941.054	1.0	go	0.672	Go_O	1.0
943.578	0.45	stop	0.0	Go_O	1.0
946.102	1.0	go	0.636	Go_X	1.0
948.627	1.0	go	0.809	Go_X	1.0
951.151	1.0	go	0.61	Go_O	1.0
953.675	1.0	go	0.595	Go_X	1.0
956.199	1.0	go	0.658	Go_O	1.0
958.723	1.0	go	0.8	Go_O	1.0
961.248	1.0	go	0.626	Go_X	1.0
963.772	1.0	go	0.685	Go_O	1.0
966.296	1.0	go	0.654	Go_X	1.0
968.82	1.0	go	0.638	Go_X	1.0
971.344	0.5	stop	0.0	Go_X	1.0
973.869	1.0	go	0.466	Go_O	1.0
976.393	1.0	go	0.538	Go_O	1.0
978.917	0.55	stop	0.654	Go_O	0.0
981.441	1.0	go	0.784	Go_X	1.0
983.966	0.5	stop	0.576	Go_X	0.0
986.49	1.0	go	0.646	Go_O	1.0
989.014	1.0	go	0.588	Go_X	1.0
991.538	0.45	stop	0.0	Go_O	1.0
994.062	1.0	go	0.557	Go_O	1.0
996.587	0.5	stop	0.0	Go_X	1.0
999.111	1.0	go	0.528	Go_X	1.0
1001.635	1.0	go	0.708	Go_O	1.0
1004.159	1.0	go	0.462	Go_X	1.0
1006.683	0.55	stop	0.676	Go_O	0.0
1009.208	1.0	go	0.751	Go_X	1.0
1011.732	1.0	go	0.702	Go_O	1.0
1014.256	1.0	go	0.687	Go_O	1.0
1016.78	1.0	go	0.36	Go_X	1.0
1019.305	0.5	stop	0.0	Go_X	1.0
1021.829	1.0	go	0.464	Go_O	1.0
1024.353	1.0	go	0.632	Go_X	1.0
1026.877	0.55	stop	0.0	Go_O	1.0
1029.401	1.0	go	0.362	Go_X	1.0
1031.926	1.0	go	0.71	Go_O	1.0
1034.45	1.0	go	0.829	Go_X	1.0
1036.974	1.0	go	0.586	Go_O	1.0
1039.498	0.6	stop	0.46	Go_X	0.0
1042.022	1.0	go	0.591	Go_O	1.0
1044.547	0.55	stop	0.677	Go_O	0.0
1047.071	1.0	go	0.73	Go_X	1.0
1049.595	1.0	go	0.619	Go_X	1.0
1052.119	0.5	stop	0.0	Go_X	1.0
1054.644	1.0	go	0.466	Go_O	1.0
1057.168	1.0	go	0.72	Go_X	1.0
1059.692	1.0	go	0.664	Go_O	1.0
1062.216	1.0	go	0.981	Go_O	1.0
1064.74	0.55	stop	0.0	Go_O	1.0
1067.265	1.0	go	0.575	Go_X	1.0
1069.789	0.6	stop	0.0	Go_X	1.0
1072.313	1.0	go	0.0	Go_X	0.0
1074.837	1.0	go	0.522	Go_O	1.0
1077.361	1.0	go	0.775	Go_O	1.0
1079.886	1.0	go	0.509	Go_X	1.0
1082.41	1.0	go	0.518	Go_X	1.0
1084.934	1.0	go	0.728	Go_O	1.0
1087.458	0.65	stop	0.699	Go_O	0.0
1089.983	1.0	go	0.565	Go_O	1.0
1092.507	1.0	go	0.372	Go_X	1.0
1095.031	0.6	stop	0.0	Go_X	1.0
1097.555	1.0	go	0.465	Go_X	1.0
1100.079	1.0	go	0.552	Go_O	1.0
1102.604	0.65	stop	0.582	Go_O	0.0
1105.128	1.0	go	0.492	Go_O	1.0
1107.652	1.0	go	0.394	Go_X	1.0
1110.176	1.0	go	0.442	Go_X	1.0
1112.7	1.0	go	0.723	Go_O	1.0
1115.225	0.6	stop	0.0	Go_X	1.0
1117.749	1.0	go	0.434	Go_O	1.0
1120.273	0.65	stop	0.484	Go_O	0.0
1122.797	1.0	go	0.47	Go_X	1.0
1125.322	1.0	go	0.793	Go_X	1.0
1127.846	1.0	go	0.558	Go_O	1.0
1130.37	1.0	go	0.86	Go_X	1.0
1132.894	1.0	go	0.445	Go_O	1.0
1135.418	0.6	stop	0.438	Go_X	0.0
1137.943	1.0	go	0.309	Go_O	1.0
1140.467	1.0	go	0.535	Go_X	1.0
1142.991	0.55	stop	0.0	Go_O	1.0
1145.515	0.6	stop	0.313	Go_X	0.0
1148.039	1.0	go	0.25	Go_O	1.0
1150.564	1.0	go	0.529	Go_X	1.0
1153.088	1.0	go	0.528	Go_X	1.0
1155.612	1.0	go	0.783	Go_O	1.0
1158.136	0.55	stop	0.456	Go_O	0.0
1160.661	1.0	go	0.779	Go_X	1.0
