onset	duration	trial_type	response_time	stim_file	accuracy
94.044	1.0	go	0.642	Go_O	1.0
96.585	1.0	go	0.203	Go_X	1.0
99.109	1.0	go	0.251	Go_X	0.0
101.633	1.0	go	0.274	Go_O	1.0
104.157	1.0	go	0.359	Go_O	1.0
106.681	1.0	go	0.184	Go_X	1.0
109.206	0.25	stopfail	0.203	Go_O	0.0
111.747	1.0	go	0.133	Go_X	1.0
114.271	0.2	stopfail	0.196	Go_X	0.0
116.812	1.0	go	0.325	Go_O	1.0
119.336	1.0	go	0.191	Go_X	1.0
121.86	1.0	go	0.172	Go_O	1.0
124.384	0.15	stopfail	0.073	Go_O	0.0
126.909	1.0	go	0.419	Go_O	1.0
129.433	1.0	go	0.132	Go_X	1.0
131.957	0.1	stopfail	0.377	Go_X	0.0
134.498	0.05	stopfail	0.18	Go_O	0.0
137.039	1.0	go	0.224	Go_X	0.0
139.563	1.0	go	0.196	Go_O	0.0
142.087	0.0	stopfail	0.376	Go_X	0.0
144.645	1.0	go	0.215	Go_O	1.0
147.169	1.0	go	0.278	Go_X	1.0
149.71	0.0	stopfail	0.315	Go_O	0.0
152.268	1.0	go	0.206	Go_X	1.0
154.792	1.0	go	0.199	Go_O	1.0
157.316	0.0	stopfail	0.103	Go_X	0.0
159.874	1.0	go	0.288	Go_X	1.0
162.398	1.0	go	0.488	Go_O	1.0
164.922	0.0	stopsuccess	0.0	Go_O	1.0
167.463	1.0	go	0.295	Go_O	0.0
169.987	1.0	go	0.28	Go_X	1.0
172.512	1.0	go	0.313	Go_O	1.0
175.036	1.0	go	0.281	Go_X	0.0
177.577	1.0	go	0.279	Go_X	1.0
180.101	0.05	stopsuccess	0.0	Go_X	1.0
182.625	1.0	go	0.356	Go_O	1.0
185.149	1.0	go	0.311	Go_X	1.0
187.674	1.0	go	0.221	Go_O	1.0
190.198	1.0	go	0.342	Go_X	0.0
192.722	1.0	go	0.356	Go_O	1.0
195.246	0.1	stopsuccess	0.0	Go_O	1.0
197.77	1.0	go	0.272	Go_X	1.0
200.295	1.0	go	0.427	Go_O	1.0
202.836	1.0	go	0.376	Go_X	1.0
205.36	1.0	go	0.487	Go_O	1.0
207.884	1.0	go	0.412	Go_X	0.0
210.425	1.0	go	0.481	Go_O	1.0
212.949	0.15	stopfail	0.231	Go_X	0.0
215.473	1.0	go	0.448	Go_O	1.0
217.998	1.0	go	0.388	Go_X	1.0
220.522	0.1	stopsuccess	0.0	Go_O	1.0
223.046	1.0	go	0.241	Go_O	1.0
225.57	0.15	stopfail	0.269	Go_X	0.0
228.094	0.1	stopsuccess	0.0	Go_O	1.0
230.619	1.0	go	0.132	Go_X	1.0
233.143	1.0	go	0.326	Go_X	1.0
235.667	1.0	go	0.315	Go_O	1.0
238.191	1.0	go	0.363	Go_X	1.0
240.715	0.15	stopfail	0.354	Go_X	0.0
243.24	1.0	go	0.297	Go_O	1.0
245.764	0.1	stopsuccess	0.0	Go_O	1.0
248.305	1.0	go	0.299	Go_X	1.0
250.829	1.0	go	0.504	Go_O	1.0
253.353	1.0	go	0.23	Go_X	1.0
255.878	1.0	go	0.236	Go_O	1.0
258.402	1.0	go	0.235	Go_O	0.0
260.943	1.0	go	0.389	Go_X	1.0
263.467	1.0	go	0.4	Go_X	1.0
265.991	1.0	go	0.269	Go_O	0.0
268.515	1.0	go	0.33	Go_X	1.0
271.056	0.15	stopfail	0.457	Go_X	0.0
273.597	1.0	go	0.406	Go_O	1.0
276.138	1.0	go	0.541	Go_X	1.0
278.679	1.0	go	0.268	Go_O	1.0
281.22	0.1	stopfail	0.311	Go_O	0.0
283.761	1.0	go	0.394	Go_O	0.0
286.302	1.0	go	0.379	Go_X	1.0
288.826	1.0	go	0.368	Go_X	1.0
291.35	1.0	go	0.261	Go_O	1.0
293.891	1.0	go	0.268	Go_X	1.0
296.415	1.0	go	0.26	Go_O	1.0
298.94	0.05	stopfail	0.413	Go_X	0.0
301.48	1.0	go	0.209	Go_O	1.0
304.005	1.0	go	0.39	Go_X	1.0
306.529	0.0	stopsuccess	0.0	Go_O	1.0
309.07	1.0	go	0.412	Go_X	1.0
311.611	1.0	go	0.573	Go_O	1.0
314.135	0.05	stopsuccess	0.0	Go_X	1.0
316.676	1.0	go	0.43	Go_O	0.0
319.2	0.1	stopsuccess	0.0	Go_O	1.0
321.741	1.0	go	0.337	Go_X	1.0
324.265	1.0	go	0.661	Go_O	1.0
326.789	1.0	go	0.583	Go_X	1.0
329.314	1.0	go	0.804	Go_X	1.0
331.838	1.0	go	0.441	Go_O	1.0
334.379	0.15	stopfail	0.333	Go_X	0.0
336.92	0.1	stopfail	0.541	Go_O	0.0
339.461	1.0	go	0.324	Go_X	1.0
341.985	1.0	go	0.369	Go_O	1.0
344.526	0.05	stopsuccess	0.0	Go_X	1.0
347.067	1.0	go	0.382	Go_O	1.0
349.591	1.0	go	0.239	Go_X	1.0
352.115	1.0	go	0.437	Go_O	1.0
354.639	1.0	go	0.433	Go_X	1.0
357.164	1.0	go	0.84	Go_X	1.0
359.688	1.0	go	0.329	Go_O	1.0
362.229	0.1	stopsuccess	0.0	Go_O	1.0
364.77	1.0	go	0.362	Go_X	1.0
367.294	1.0	go	0.372	Go_O	1.0
369.818	1.0	go	0.33	Go_O	0.0
372.342	1.0	go	0.421	Go_X	1.0
374.867	1.0	go	0.475	Go_X	1.0
377.391	0.15	stopsuccess	0.0	Go_X	1.0
379.932	1.0	go	0.413	Go_O	1.0
382.456	1.0	go	0.534	Go_X	1.0
384.98	1.0	go	0.496	Go_O	1.0
387.504	1.0	go	0.564	Go_X	1.0
390.045	0.2	stopfail	0.337	Go_O	0.0
392.569	1.0	go	0.484	Go_O	1.0
395.094	1.0	go	0.326	Go_X	1.0
397.618	0.15	stopfail	0.473	Go_X	0.0
400.159	1.0	go	0.362	Go_O	1.0
402.683	0.1	stopsuccess	0.0	Go_O	1.0
405.207	1.0	go	0.322	Go_X	1.0
407.731	1.0	go	0.197	Go_O	1.0
410.256	1.0	go	0.649	Go_X	0.0
412.78	1.0	go	0.441	Go_O	1.0
415.304	1.0	go	0.27	Go_X	1.0
417.845	1.0	go	0.304	Go_O	1.0
420.369	1.0	go	0.399	Go_X	1.0
422.893	0.15	stopsuccess	0.0	Go_X	1.0
425.418	1.0	go	0.313	Go_O	0.0
427.942	1.0	go	0.302	Go_X	1.0
430.466	1.0	go	0.293	Go_O	1.0
432.99	0.2	stopfail	0.389	Go_O	0.0
435.515	1.0	go	0.813	Go_X	1.0
438.039	1.0	go	0.431	Go_O	0.0
440.563	1.0	go	0.637	Go_O	1.0
443.087	1.0	go	0.421	Go_X	1.0
445.611	0.15	stopfail	0.335	Go_X	0.0
448.136	1.0	go	0.377	Go_X	1.0
450.66	1.0	go	0.607	Go_O	1.0
453.184	0.1	stopsuccess	0.0	Go_O	1.0
455.725	1.0	go	0.379	Go_O	0.0
458.249	1.0	go	0.432	Go_X	1.0
460.773	0.15	stopsuccess	0.0	Go_X	1.0
463.298	1.0	go	0.711	Go_O	1.0
465.822	1.0	go	0.417	Go_X	1.0
468.346	0.2	stopsuccess	0.0	Go_O	1.0
470.87	1.0	go	0.453	Go_O	0.0
473.395	1.0	go	0.338	Go_X	1.0
475.919	1.0	go	0.455	Go_O	1.0
478.443	1.0	go	0.341	Go_X	1.0
480.967	1.0	go	0.417	Go_X	1.0
483.508	1.0	go	0.335	Go_O	1.0
486.032	0.25	stopfail	0.367	Go_X	0.0
488.556	1.0	go	0.274	Go_O	1.0
491.081	0.2	stopfail	0.356	Go_O	0.0
493.622	1.0	go	0.431	Go_X	1.0
496.146	1.0	go	0.235	Go_O	1.0
498.67	1.0	go	0.335	Go_X	1.0
501.211	1.0	go	0.28	Go_X	0.0
503.735	1.0	go	0.39	Go_O	0.0
506.276	0.15	stopfail	0.361	Go_X	0.0
508.8	1.0	go	0.361	Go_O	0.0
511.325	1.0	go	0.326	Go_X	1.0
513.849	1.0	go	0.219	Go_O	1.0
516.373	0.1	stopfail	0.267	Go_O	0.0
518.931	0.05	stopsuccess	0.0	Go_X	1.0
521.472	0.1	stopfail	0.213	Go_O	0.0
524.013	1.0	go	0.2	Go_X	1.0
526.553	0.05	stopsuccess	0.0	Go_X	1.0
529.094	1.0	go	0.438	Go_O	1.0
531.619	1.0	go	0.356	Go_X	1.0
534.143	1.0	go	0.414	Go_O	1.0
536.684	1.0	go	0.514	Go_X	1.0
539.208	1.0	go	0.312	Go_O	1.0
541.732	1.0	go	0.39	Go_X	1.0
544.256	1.0	go	0.408	Go_O	1.0
546.781	1.0	go	0.394	Go_X	0.0
549.305	0.1	stopsuccess	0.0	Go_O	1.0
551.846	1.0	go	0.489	Go_O	1.0
554.37	1.0	go	0.336	Go_X	1.0
556.894	0.15	stopfail	0.516	Go_X	0.0
559.418	1.0	go	0.327	Go_O	0.0
561.943	1.0	go	0.403	Go_X	1.0
564.484	1.0	go	0.404	Go_O	1.0
567.008	1.0	go	0.423	Go_X	1.0
569.549	1.0	go	0.521	Go_O	1.0
572.073	0.1	stopsuccess	0.0	Go_O	1.0
574.614	1.0	go	0.274	Go_X	1.0
577.138	1.0	go	0.281	Go_O	1.0
579.662	1.0	go	0.507	Go_X	1.0
582.186	0.15	stopsuccess	0.0	Go_X	1.0
584.711	1.0	go	0.385	Go_O	1.0
587.235	0.2	stopsuccess	0.0	Go_O	1.0
589.759	1.0	go	0.364	Go_X	1.0
592.3	1.0	go	0.329	Go_X	1.0
594.824	1.0	go	0.498	Go_O	1.0
597.348	1.0	go	0.353	Go_X	1.0
599.873	1.0	go	0.352	Go_O	1.0
602.397	1.0	go	0.385	Go_X	1.0
604.921	1.0	go	0.212	Go_O	0.0
607.445	0.25	stopfail	0.441	Go_X	0.0
609.969	1.0	go	0.33	Go_X	1.0
612.494	1.0	go	0.282	Go_O	1.0
615.018	1.0	go	0.493	Go_X	1.0
617.542	1.0	go	0.435	Go_O	1.0
620.066	0.2	stopsuccess	0.0	Go_O	1.0
622.591	1.0	go	0.517	Go_O	0.0
625.115	0.25	stopfail	0.435	Go_X	0.0
627.657	1.0	go	0.302	Go_X	0.0
630.18	1.0	go	0.451	Go_X	1.0
632.704	0.2	stopsuccess	0.0	Go_O	1.0
635.228	1.0	go	0.547	Go_O	0.0
637.753	1.0	go	0.456	Go_O	1.0
640.277	1.0	go	0.242	Go_X	1.0
642.801	1.0	go	0.564	Go_X	1.0
645.325	1.0	go	0.522	Go_O	1.0
647.866	1.0	go	0.87	Go_O	1.0
650.39	1.0	go	0.482	Go_X	1.0
652.915	1.0	go	0.266	Go_O	1.0
655.439	1.0	go	0.102	Go_X	1.0
657.963	1.0	go	0.038	Go_X	0.0
660.487	0.25	stopfail	0.502	Go_X	0.0
663.011	1.0	go	0.39	Go_O	1.0
665.536	1.0	go	0.378	Go_O	1.0
668.06	0.2	stopsuccess	0.0	Go_O	1.0
670.601	1.0	go	0.444	Go_X	1.0
673.125	0.25	stopfail	0.448	Go_X	0.0
675.666	1.0	go	0.233	Go_X	0.0
678.19	1.0	go	0.424	Go_O	1.0
680.714	0.2	stopsuccess	0.0	Go_O	1.0
683.239	1.0	go	0.513	Go_O	1.0
685.763	0.25	stopfail	0.367	Go_X	0.0
688.304	1.0	go	0.323	Go_X	1.0
690.828	1.0	go	0.334	Go_X	1.0
693.352	1.0	go	0.6	Go_O	1.0
695.893	0.2	stopfail	0.36	Go_O	0.0
698.434	1.0	go	0.324	Go_X	1.0
700.958	1.0	go	0.307	Go_O	1.0
703.482	1.0	go	0.293	Go_O	0.0
706.007	1.0	go	0.442	Go_X	1.0
708.531	0.15	stopfail	0.331	Go_X	0.0
711.072	1.0	go	0.372	Go_O	0.0
713.596	1.0	go	0.514	Go_X	1.0
716.12	0.1	stopfail	0.255	Go_O	0.0
718.644	1.0	go	0.281	Go_O	0.0
721.169	1.0	go	0.341	Go_X	1.0
723.693	1.0	go	0.457	Go_X	1.0
726.217	1.0	go	0.482	Go_O	1.0
728.741	0.05	stopfail	0.409	Go_X	0.0
731.265	1.0	go	0.354	Go_X	1.0
733.79	0.0	stopfail	0.468	Go_O	0.0
736.331	1.0	go	0.303	Go_O	1.0
738.855	1.0	go	0.487	Go_X	1.0
741.379	0.0	stopfail	0.457	Go_X	0.0
743.937	1.0	go	0.429	Go_O	1.0
746.461	1.0	go	0.587	Go_O	0.0
748.985	1.0	go	0.424	Go_X	1.0
751.526	1.0	go	0.484	Go_O	1.0
754.067	0.0	stopsuccess	0.0	Go_O	1.0
756.625	1.0	go	0.407	Go_X	1.0
759.166	0.05	stopsuccess	0.0	Go_X	1.0
761.707	1.0	go	0.418	Go_O	1.0
764.231	1.0	go	0.468	Go_X	1.0
766.772	1.0	go	0.821	Go_X	1.0
769.296	1.0	go	0.914	Go_O	1.0
771.837	1.0	go	0.461	Go_X	1.0
774.361	1.0	go	0.347	Go_O	1.0
776.902	0.1	stopsuccess	0.0	Go_O	1.0
779.443	1.0	go	0.295	Go_X	1.0
781.986	1.0	go	0.389	Go_O	1.0
784.508	0.15	stopsuccess	0.0	Go_X	1.0
787.032	1.0	go	0.472	Go_O	0.0
789.556	1.0	go	0.592	Go_X	1.0
792.097	0.2	stopfail	0.423	Go_O	0.0
794.622	1.0	go	0.609	Go_O	1.0
797.162	1.0	go	0.507	Go_X	1.0
799.687	1.0	go	0.565	Go_O	0.0
802.211	1.0	go	0.439	Go_X	1.0
804.735	0.15	stopsuccess	0.0	Go_X	1.0
807.259	1.0	go	0.306	Go_X	1.0
809.8	0.2	stopfail	0.492	Go_O	0.0
812.324	1.0	go	0.694	Go_O	1.0
814.849	1.0	go	0.365	Go_O	0.0
817.373	1.0	go	0.731	Go_X	1.0
819.897	1.0	go	0.402	Go_O	1.0
822.421	1.0	go	0.549	Go_X	1.0
824.946	0.15	stopfail	0.552	Go_X	0.0
827.486	1.0	go	0.354	Go_O	1.0
830.011	1.0	go	0.45	Go_X	1.0
832.535	0.1	stopsuccess	0.0	Go_O	1.0
835.076	0.15	stopfail	0.328	Go_X	0.0
837.617	1.0	go	0.391	Go_X	1.0
840.158	1.0	go	0.32	Go_O	1.0
842.699	1.0	go	0.302	Go_X	1.0
845.223	1.0	go	0.325	Go_O	1.0
847.747	0.1	stopfail	0.323	Go_O	0.0
850.271	1.0	go	0.3	Go_X	1.0
