onset	duration	trial_type	response_time	stim_file	accuracy
127.809	1.0	go	0.0	Go_X	0.0
130.383	1.0	go	0.771	Go_O	0.0
132.907	1.0	go	0.394	Go_X	1.0
135.432	1.0	go	0.39	Go_O	1.0
137.956	1.0	go	0.533	Go_O	1.0
140.48	1.0	go	0.417	Go_X	1.0
143.004	0.25	stop	0.425	Go_O	0.0
145.528	1.0	go	0.513	Go_X	1.0
148.053	0.2	stop	0.0	Go_X	1.0
150.577	1.0	go	0.469	Go_O	1.0
153.101	1.0	go	0.688	Go_O	1.0
155.625	1.0	go	0.597	Go_X	1.0
158.149	0.25	stop	0.0	Go_O	1.0
160.674	1.0	go	0.494	Go_X	1.0
163.198	1.0	go	0.568	Go_O	1.0
165.722	0.3	stop	0.42	Go_X	0.0
168.246	0.25	stop	0.0	Go_O	1.0
170.77	1.0	go	0.517	Go_O	1.0
173.295	1.0	go	0.602	Go_X	1.0
175.819	0.3	stop	0.0	Go_X	1.0
178.343	1.0	go	0.565	Go_X	1.0
180.867	1.0	go	0.813	Go_O	1.0
183.391	0.35	stop	0.0	Go_O	1.0
185.916	1.0	go	0.639	Go_X	1.0
188.44	1.0	go	0.0	Go_O	0.0
190.964	0.4	stop	0.0	Go_X	1.0
193.488	1.0	go	0.511	Go_X	1.0
196.012	1.0	go	0.821	Go_O	1.0
198.537	0.45	stop	0.0	Go_O	1.0
201.061	1.0	go	0.84	Go_X	1.0
203.585	1.0	go	0.633	Go_O	1.0
206.109	1.0	go	0.641	Go_X	1.0
208.633	1.0	go	0.0	Go_O	0.0
211.158	1.0	go	0.784	Go_O	1.0
213.682	0.5	stop	0.535	Go_X	0.0
216.206	1.0	go	0.796	Go_X	1.0
218.73	1.0	go	0.576	Go_X	1.0
221.254	1.0	go	0.414	Go_O	1.0
223.779	1.0	go	0.449	Go_X	1.0
226.303	1.0	go	0.559	Go_O	1.0
228.827	0.45	stop	0.0	Go_O	1.0
231.351	1.0	go	0.74	Go_O	1.0
233.875	1.0	go	0.686	Go_X	1.0
236.4	1.0	go	0.491	Go_X	1.0
238.924	1.0	go	0.491	Go_O	1.0
241.448	1.0	go	0.649	Go_O	1.0
243.972	1.0	go	0.831	Go_X	1.0
246.497	0.5	stop	0.767	Go_X	0.0
249.021	1.0	go	0.527	Go_O	1.0
251.545	1.0	go	0.582	Go_X	0.0
254.069	0.45	stop	0.504	Go_O	0.0
256.593	1.0	go	0.606	Go_X	1.0
259.117	0.4	stop	0.537	Go_X	0.0
261.642	0.35	stop	0.0	Go_O	1.0
264.166	1.0	go	0.0	Go_O	0.0
266.69	1.0	go	0.724	Go_O	1.0
269.214	1.0	go	0.0	Go_X	0.0
271.738	1.0	go	0.836	Go_O	1.0
274.263	0.4	stop	0.546	Go_X	0.0
276.787	1.0	go	0.623	Go_X	1.0
279.311	0.35	stop	0.0	Go_O	1.0
281.835	1.0	go	0.928	Go_O	1.0
284.36	1.0	go	0.534	Go_X	1.0
286.884	1.0	go	0.819	Go_X	1.0
289.408	1.0	go	0.823	Go_O	1.0
291.932	1.0	go	0.939	Go_X	1.0
294.456	1.0	go	0.571	Go_O	1.0
296.981	1.0	go	0.523	Go_X	1.0
299.505	1.0	go	0.558	Go_O	1.0
302.029	1.0	go	0.902	Go_O	1.0
304.553	0.4	stop	0.426	Go_X	0.0
307.077	1.0	go	0.443	Go_X	1.0
309.602	1.0	go	0.714	Go_X	1.0
312.126	1.0	go	0.75	Go_O	1.0
314.65	0.35	stop	0.0	Go_O	1.0
317.174	1.0	go	0.0	Go_O	0.0
319.698	1.0	go	0.705	Go_X	1.0
322.223	1.0	go	0.762	Go_X	1.0
324.747	1.0	go	0.431	Go_O	1.0
327.271	1.0	go	0.654	Go_O	1.0
329.795	1.0	go	0.791	Go_X	1.0
332.319	0.4	stop	0.0	Go_X	1.0
334.844	1.0	go	0.355	Go_X	1.0
337.368	1.0	go	0.662	Go_O	1.0
339.892	0.45	stop	0.0	Go_O	1.0
342.416	1.0	go	0.871	Go_X	1.0
344.94	1.0	go	0.859	Go_O	1.0
347.465	0.5	stop	0.529	Go_X	0.0
349.989	1.0	go	0.571	Go_X	1.0
352.513	0.45	stop	0.476	Go_O	0.0
355.037	1.0	go	0.0	Go_O	0.0
357.561	1.0	go	0.494	Go_X	1.0
360.086	1.0	go	0.564	Go_O	1.0
362.61	1.0	go	0.466	Go_X	1.0
365.134	1.0	go	0.64	Go_O	1.0
367.658	0.4	stop	0.317	Go_X	0.0
370.182	0.35	stop	0.0	Go_O	1.0
372.707	1.0	go	0.749	Go_O	1.0
375.231	1.0	go	0.325	Go_X	1.0
377.755	0.4	stop	0.0	Go_X	1.0
380.279	1.0	go	0.712	Go_X	1.0
382.803	1.0	go	0.894	Go_O	1.0
385.328	1.0	go	0.0	Go_O	0.0
387.852	1.0	go	0.829	Go_X	1.0
390.376	1.0	go	0.824	Go_O	1.0
392.9	1.0	go	0.796	Go_X	1.0
395.424	0.45	stop	0.521	Go_O	0.0
397.949	1.0	go	0.862	Go_X	1.0
400.473	1.0	go	0.894	Go_O	1.0
402.997	1.0	go	0.782	Go_O	1.0
405.521	1.0	go	0.765	Go_X	1.0
408.045	1.0	go	0.778	Go_X	1.0
410.57	0.4	stop	0.0	Go_X	1.0
413.094	1.0	go	0.537	Go_O	1.0
415.618	1.0	go	0.706	Go_X	1.0
418.142	1.0	go	0.859	Go_O	1.0
420.666	1.0	go	0.841	Go_O	1.0
423.191	0.45	stop	0.588	Go_O	0.0
425.715	1.0	go	0.979	Go_X	1.0
428.239	1.0	go	0.816	Go_X	1.0
430.763	0.4	stop	0.0	Go_X	1.0
433.288	1.0	go	0.946	Go_O	1.0
435.812	0.45	stop	0.0	Go_O	1.0
438.336	1.0	go	0.889	Go_O	1.0
440.86	1.0	go	0.721	Go_X	1.0
443.384	1.0	go	0.744	Go_O	1.0
445.909	1.0	go	0.609	Go_X	1.0
448.433	1.0	go	0.68	Go_X	1.0
450.957	1.0	go	0.697	Go_O	1.0
453.481	1.0	go	0.725	Go_O	1.0
456.005	0.5	stop	0.609	Go_X	0.0
458.53	1.0	go	0.835	Go_X	1.0
461.054	1.0	go	0.976	Go_X	1.0
463.578	1.0	go	0.663	Go_O	1.0
466.102	0.45	stop	0.0	Go_O	1.0
468.626	1.0	go	0.801	Go_O	1.0
471.151	1.0	go	0.675	Go_X	1.0
473.675	1.0	go	0.697	Go_X	1.0
476.199	1.0	go	0.812	Go_O	1.0
478.723	0.5	stop	0.0	Go_X	1.0
481.247	1.0	go	0.636	Go_O	1.0
483.772	1.0	go	0.721	Go_X	1.0
486.296	0.55	stop	0.595	Go_O	0.0
488.82	1.0	go	0.832	Go_O	1.0
491.344	1.0	go	0.677	Go_X	1.0
493.868	0.5	stop	0.0	Go_X	1.0
496.393	1.0	go	0.734	Go_O	1.0
498.917	1.0	go	0.804	Go_X	1.0
501.441	0.55	stop	0.0	Go_O	1.0
503.965	1.0	go	0.0	Go_X	0.0
506.489	1.0	go	0.0	Go_O	0.0
509.014	1.0	go	0.859	Go_O	1.0
511.538	1.0	go	0.99	Go_X	1.0
514.062	1.0	go	0.542	Go_X	1.0
516.586	1.0	go	0.632	Go_O	1.0
519.11	0.6	stop	0.633	Go_X	0.0
521.635	1.0	go	0.0	Go_O	0.0
524.159	0.55	stop	0.0	Go_O	1.0
526.683	1.0	go	0.658	Go_X	1.0
529.207	1.0	go	0.668	Go_O	1.0
531.731	1.0	go	0.816	Go_X	1.0
534.256	1.0	go	0.734	Go_X	1.0
536.78	1.0	go	0.809	Go_O	1.0
539.304	0.6	stop	0.904	Go_X	0.0
541.828	1.0	go	0.737	Go_O	1.0
544.352	1.0	go	0.866	Go_X	1.0
546.877	1.0	go	0.697	Go_X	1.0
549.401	0.55	stop	0.0	Go_O	1.0
551.925	0.6	stop	0.0	Go_X	1.0
554.449	0.65	stop	0.0	Go_O	1.0
556.973	1.0	go	0.0	Go_O	0.0
559.498	0.7	stop	0.0	Go_X	1.0
562.022	1.0	go	0.811	Go_O	1.0
564.546	1.0	go	0.0	Go_X	0.0
567.07	1.0	go	0.753	Go_O	1.0
569.594	1.0	go	0.726	Go_X	1.0
572.119	1.0	go	0.83	Go_O	1.0
574.643	1.0	go	0.741	Go_X	1.0
577.167	1.0	go	0.976	Go_O	1.0
579.691	1.0	go	0.0	Go_X	0.0
582.215	0.75	stop	0.71	Go_O	0.0
584.74	1.0	go	0.576	Go_O	1.0
587.264	1.0	go	0.565	Go_X	1.0
589.788	0.7	stop	0.862	Go_X	0.0
592.312	1.0	go	0.658	Go_X	1.0
594.836	1.0	go	0.977	Go_O	1.0
597.361	1.0	go	0.644	Go_X	1.0
599.885	1.0	go	0.0	Go_O	0.0
602.409	1.0	go	0.0	Go_X	0.0
604.933	0.65	stop	0.532	Go_O	0.0
607.458	1.0	go	0.0	Go_O	0.0
609.982	1.0	go	0.787	Go_X	1.0
612.506	1.0	go	0.502	Go_O	1.0
615.03	0.6	stop	0.668	Go_X	0.0
617.554	1.0	go	0.681	Go_O	1.0
620.079	0.55	stop	0.0	Go_O	1.0
622.603	1.0	go	0.0	Go_X	0.0
625.127	1.0	go	0.669	Go_O	1.0
627.651	1.0	go	0.971	Go_X	1.0
630.175	1.0	go	0.0	Go_O	0.0
632.7	1.0	go	0.63	Go_X	1.0
635.224	1.0	go	0.865	Go_X	1.0
637.748	1.0	go	0.635	Go_O	1.0
640.272	0.6	stop	0.757	Go_X	0.0
642.796	1.0	go	0.669	Go_X	1.0
645.321	1.0	go	0.919	Go_O	1.0
647.845	1.0	go	0.0	Go_O	0.0
650.369	1.0	go	0.676	Go_X	1.0
652.893	0.55	stop	0.0	Go_O	1.0
655.417	1.0	go	0.827	Go_O	1.0
657.942	0.6	stop	0.0	Go_X	1.0
660.466	1.0	go	0.798	Go_X	1.0
662.99	1.0	go	0.84	Go_X	1.0
665.514	0.65	stop	0.878	Go_O	0.0
668.038	1.0	go	0.887	Go_O	1.0
670.563	1.0	go	0.506	Go_X	1.0
673.087	1.0	go	0.79	Go_O	1.0
675.611	1.0	go	0.951	Go_O	0.0
678.135	1.0	go	0.0	Go_X	0.0
680.659	1.0	go	0.672	Go_O	1.0
683.184	1.0	go	0.646	Go_X	1.0
685.708	1.0	go	0.914	Go_X	1.0
688.232	1.0	go	0.655	Go_O	1.0
690.756	1.0	go	0.815	Go_O	1.0
693.28	0.6	stop	0.0	Go_X	1.0
695.821	1.0	go	0.579	Go_X	1.0
698.346	1.0	go	0.0	Go_O	0.0
700.87	0.65	stop	0.816	Go_O	0.0
703.394	1.0	go	0.901	Go_X	1.0
705.918	0.6	stop	0.694	Go_X	0.0
708.442	1.0	go	0.694	Go_X	1.0
710.967	1.0	go	0.514	Go_O	1.0
713.491	0.55	stop	0.556	Go_O	0.0
716.015	1.0	go	0.685	Go_X	1.0
718.539	0.5	stop	0.59	Go_X	0.0
721.063	1.0	go	0.912	Go_O	1.0
723.588	1.0	go	0.727	Go_X	1.0
726.112	1.0	go	0.875	Go_O	1.0
728.636	0.45	stop	0.0	Go_O	1.0
731.16	1.0	go	0.767	Go_O	1.0
733.684	1.0	go	0.7	Go_X	1.0
736.209	1.0	go	0.994	Go_X	1.0
738.733	1.0	go	0.689	Go_O	1.0
741.257	0.5	stop	0.0	Go_X	1.0
743.781	1.0	go	0.686	Go_O	0.0
746.305	1.0	go	0.693	Go_X	1.0
748.83	0.55	stop	0.608	Go_O	0.0
751.354	1.0	go	0.617	Go_O	1.0
753.878	1.0	go	0.67	Go_X	1.0
756.402	1.0	go	0.721	Go_O	1.0
758.926	1.0	go	0.0	Go_X	0.0
761.451	0.5	stop	0.0	Go_X	1.0
763.975	1.0	go	0.918	Go_X	1.0
766.499	0.55	stop	0.0	Go_O	1.0
769.023	1.0	go	0.77	Go_O	1.0
771.547	1.0	go	0.628	Go_X	1.0
774.072	0.6	stop	0.0	Go_X	1.0
776.596	1.0	go	0.66	Go_O	1.0
779.12	1.0	go	0.0	Go_O	0.0
781.644	1.0	go	0.683	Go_X	1.0
784.168	1.0	go	0.648	Go_X	1.0
786.693	0.65	stop	0.675	Go_O	0.0
789.217	1.0	go	0.713	Go_O	1.0
791.741	0.6	stop	0.0	Go_X	1.0
794.265	1.0	go	0.707	Go_O	1.0
796.789	1.0	go	0.837	Go_X	1.0
799.314	1.0	go	0.0	Go_X	0.0
801.838	1.0	go	0.897	Go_O	1.0
804.362	1.0	go	0.732	Go_X	0.0
806.886	1.0	go	0.641	Go_O	0.0
809.41	0.65	stop	0.0	Go_O	1.0
811.935	1.0	go	0.39	Go_X	1.0
814.459	1.0	go	0.917	Go_O	1.0
816.983	0.7	stop	0.706	Go_X	0.0
819.507	1.0	go	0.653	Go_X	1.0
822.031	1.0	go	0.712	Go_O	1.0
824.556	0.65	stop	0.652	Go_O	0.0
827.08	1.0	go	0.627	Go_X	1.0
829.604	1.0	go	0.0	Go_O	0.0
832.128	1.0	go	0.617	Go_O	1.0
834.652	1.0	go	0.607	Go_X	1.0
837.177	0.6	stop	0.536	Go_X	0.0
839.701	1.0	go	0.505	Go_O	1.0
842.225	0.55	stop	0.681	Go_O	0.0
844.749	1.0	go	0.714	Go_X	1.0
847.274	1.0	go	0.715	Go_O	1.0
849.798	1.0	go	0.609	Go_X	1.0
852.322	1.0	go	0.635	Go_X	1.0
854.846	1.0	go	0.0	Go_O	0.0
857.37	0.5	stop	0.527	Go_X	0.0
859.895	1.0	go	0.497	Go_X	1.0
862.419	1.0	go	0.686	Go_O	1.0
864.943	0.45	stop	0.0	Go_O	1.0
867.467	0.5	stop	0.572	Go_X	0.0
869.991	1.0	go	0.0	Go_O	0.0
872.516	1.0	go	0.548	Go_X	1.0
875.04	1.0	go	0.694	Go_X	1.0
877.564	1.0	go	0.589	Go_O	1.0
880.088	0.45	stop	0.0	Go_O	1.0
882.612	1.0	go	0.828	Go_O	1.0
