onset	duration	trial_type	response_time	stim_file	accuracy
305.195	1.0	go	0.548	Go_X	1.0
307.72	1.0	go	0.399	Go_O	1.0
310.244	1.0	go	0.339	Go_O	1.0
312.768	1.0	go	0.347	Go_X	1.0
315.292	1.0	go	0.339	Go_X	1.0
317.816	1.0	go	0.329	Go_O	1.0
320.34	0.25	stopfail	0.32	Go_O	0.0
322.865	1.0	go	0.319	Go_O	1.0
325.389	0.2	stopfail	0.316	Go_X	0.0
327.913	1.0	go	0.37	Go_X	1.0
330.437	1.0	go	0.426	Go_X	1.0
332.961	1.0	go	0.321	Go_O	1.0
335.486	0.15	stopsuccess	0.0	Go_O	1.0
338.01	1.0	go	0.308	Go_X	1.0
340.534	1.0	go	0.324	Go_O	1.0
343.058	0.2	stopfail	0.343	Go_X	0.0
345.582	0.15	stopfail	0.282	Go_O	0.0
348.106	1.0	go	0.369	Go_X	1.0
350.631	1.0	go	0.347	Go_O	1.0
353.155	0.1	stopsuccess	0.0	Go_X	1.0
355.679	1.0	go	0.403	Go_X	1.0
358.203	1.0	go	0.233	Go_O	1.0
360.727	0.15	stopsuccess	0.0	Go_O	1.0
363.251	1.0	go	0.308	Go_O	0.0
365.776	1.0	go	0.373	Go_X	1.0
368.3	0.2	stopsuccess	0.0	Go_X	1.0
370.824	1.0	go	0.379	Go_X	1.0
373.348	1.0	go	0.349	Go_O	1.0
375.872	0.25	stopfail	0.331	Go_O	0.0
378.396	1.0	go	0.406	Go_X	1.0
380.921	1.0	go	0.347	Go_O	1.0
383.445	1.0	go	0.322	Go_O	1.0
385.969	1.0	go	0.286	Go_X	1.0
388.493	1.0	go	0.291	Go_O	1.0
391.017	0.2	stopfail	0.371	Go_X	0.0
393.541	1.0	go	0.507	Go_X	1.0
396.066	1.0	go	0.417	Go_X	1.0
398.59	1.0	go	0.268	Go_O	1.0
401.114	1.0	go	0.29	Go_O	1.0
403.638	1.0	go	0.386	Go_X	1.0
406.162	0.15	stopfail	0.289	Go_O	0.0
408.686	1.0	go	0.366	Go_O	1.0
411.211	1.0	go	0.456	Go_X	1.0
413.735	1.0	go	0.399	Go_X	1.0
416.259	1.0	go	0.349	Go_O	1.0
418.783	1.0	go	0.31	Go_X	1.0
421.307	1.0	go	0.313	Go_O	1.0
423.832	0.1	stopsuccess	0.0	Go_X	1.0
426.356	1.0	go	0.42	Go_X	1.0
428.88	1.0	go	0.33	Go_O	1.0
431.404	0.15	stopsuccess	0.0	Go_O	1.0
433.928	1.0	go	0.291	Go_X	1.0
436.452	0.2	stopsuccess	0.0	Go_X	1.0
438.977	0.25	stopfail	0.302	Go_O	0.0
441.501	1.0	go	0.434	Go_O	1.0
444.025	1.0	go	0.307	Go_X	1.0
446.549	1.0	go	0.394	Go_O	1.0
449.073	1.0	go	0.348	Go_O	1.0
451.597	0.2	stopsuccess	0.0	Go_X	1.0
454.122	1.0	go	0.344	Go_X	1.0
456.646	0.25	stopfail	0.37	Go_O	0.0
459.17	1.0	go	0.543	Go_O	1.0
461.694	1.0	go	0.398	Go_X	1.0
464.218	1.0	go	0.439	Go_O	1.0
466.742	1.0	go	0.46	Go_X	1.0
469.283	1.0	go	0.377	Go_X	1.0
471.808	1.0	go	0.284	Go_O	1.0
474.332	1.0	go	0.415	Go_O	1.0
476.856	1.0	go	0.363	Go_X	1.0
479.38	1.0	go	0.527	Go_X	1.0
481.904	0.2	stopsuccess	0.0	Go_X	1.0
484.428	1.0	go	0.332	Go_O	1.0
486.953	1.0	go	0.426	Go_O	1.0
489.477	1.0	go	0.398	Go_X	1.0
492.001	0.25	stopfail	0.28	Go_O	0.0
494.525	1.0	go	0.463	Go_O	1.0
497.049	1.0	go	0.374	Go_X	1.0
499.573	1.0	go	0.251	Go_O	1.0
502.098	1.0	go	0.52	Go_X	1.0
504.622	1.0	go	0.364	Go_X	1.0
507.146	1.0	go	0.298	Go_O	1.0
509.67	0.2	stopfail	0.346	Go_X	0.0
512.194	1.0	go	0.452	Go_X	1.0
514.718	1.0	go	0.425	Go_O	1.0
517.243	0.15	stopsuccess	0.0	Go_O	1.0
519.767	1.0	go	0.334	Go_O	1.0
522.291	1.0	go	0.483	Go_X	1.0
524.815	0.2	stopfail	0.374	Go_X	0.0
527.339	1.0	go	0.465	Go_X	1.0
529.863	0.15	stopsuccess	0.0	Go_O	1.0
532.388	1.0	go	0.412	Go_O	1.0
534.912	1.0	go	0.487	Go_O	1.0
537.436	1.0	go	0.441	Go_X	1.0
539.96	1.0	go	0.356	Go_O	1.0
542.484	1.0	go	0.5	Go_X	1.0
545.008	0.2	stopsuccess	0.0	Go_X	1.0
547.533	0.25	stopfail	0.399	Go_O	0.0
550.057	1.0	go	0.426	Go_O	1.0
552.581	1.0	go	0.39	Go_X	1.0
555.105	0.2	stopfail	0.382	Go_X	0.0
557.629	1.0	go	0.437	Go_O	1.0
560.154	1.0	go	0.416	Go_X	1.0
562.678	1.0	go	0.496	Go_X	1.0
565.202	1.0	go	0.473	Go_O	1.0
567.726	1.0	go	0.386	Go_O	1.0
570.25	1.0	go	0.393	Go_X	1.0
572.774	0.15	stopfail	0.305	Go_O	0.0
575.299	1.0	go	0.451	Go_X	1.0
577.823	1.0	go	0.318	Go_O	1.0
580.347	1.0	go	0.366	Go_O	1.0
582.871	1.0	go	0.269	Go_X	1.0
585.395	1.0	go	0.375	Go_X	1.0
587.919	0.1	stopfail	0.373	Go_X	0.0
590.444	1.0	go	0.428	Go_O	1.0
592.968	1.0	go	0.423	Go_X	1.0
595.492	1.0	go	0.422	Go_O	1.0
598.016	1.0	go	0.503	Go_X	1.0
600.54	0.05	stopsuccess	0.0	Go_O	1.0
603.064	1.0	go	0.38	Go_O	1.0
605.589	1.0	go	0.493	Go_X	1.0
608.113	0.1	stopfail	0.438	Go_X	0.0
610.637	1.0	go	0.511	Go_O	1.0
613.161	0.05	stopsuccess	0.0	Go_O	1.0
615.685	1.0	go	0.376	Go_O	1.0
618.209	1.0	go	0.489	Go_X	1.0
620.734	1.0	go	0.257	Go_O	1.0
623.258	1.0	go	0.388	Go_X	1.0
625.782	1.0	go	0.363	Go_O	1.0
628.306	1.0	go	0.573	Go_X	1.0
630.83	1.0	go	0.562	Go_X	1.0
633.354	0.1	stopsuccess	0.0	Go_X	1.0
635.879	1.0	go	0.439	Go_O	1.0
638.403	1.0	go	0.457	Go_O	1.0
640.927	1.0	go	0.331	Go_X	1.0
643.451	0.15	stopsuccess	0.0	Go_O	1.0
645.975	1.0	go	0.373	Go_X	1.0
648.5	1.0	go	0.352	Go_O	1.0
651.024	1.0	go	0.396	Go_X	1.0
653.548	1.0	go	0.336	Go_O	1.0
656.072	0.2	stopfail	0.368	Go_X	0.0
658.596	1.0	go	0.374	Go_O	1.0
661.12	1.0	go	0.439	Go_X	1.0
663.645	0.15	stopsuccess	0.0	Go_O	1.0
666.169	1.0	go	0.522	Go_O	1.0
668.693	1.0	go	0.433	Go_X	1.0
671.217	0.2	stopsuccess	0.0	Go_X	1.0
673.741	1.0	go	0.432	Go_X	1.0
676.265	1.0	go	0.321	Go_O	1.0
678.79	0.25	stopfail	0.483	Go_O	0.0
681.314	1.0	go	0.315	Go_X	1.0
683.838	1.0	go	0.311	Go_O	1.0
686.362	1.0	go	0.323	Go_X	1.0
688.886	1.0	go	0.365	Go_O	1.0
691.41	1.0	go	0.41	Go_X	1.0
693.935	1.0	go	0.313	Go_O	1.0
696.459	0.2	stopfail	0.366	Go_X	0.0
698.983	1.0	go	0.534	Go_X	1.0
701.507	0.15	stopsuccess	0.0	Go_O	1.0
704.031	1.0	go	0.371	Go_O	1.0
706.555	1.0	go	0.491	Go_X	1.0
709.08	1.0	go	0.39	Go_O	1.0
711.604	1.0	go	0.425	Go_O	1.0
714.128	1.0	go	0.421	Go_X	1.0
716.652	0.2	stopsuccess	0.0	Go_X	1.0
719.176	1.0	go	0.444	Go_X	1.0
721.701	1.0	go	0.28	Go_O	1.0
724.225	1.0	go	0.454	Go_X	1.0
726.749	0.25	stopfail	0.349	Go_O	0.0
729.273	0.2	stopfail	0.369	Go_X	0.0
731.797	0.15	stopsuccess	0.0	Go_O	1.0
734.321	1.0	go	0.354	Go_O	1.0
736.846	0.2	stopsuccess	0.0	Go_X	1.0
739.37	1.0	go	0.5	Go_X	1.0
741.894	1.0	go	0.444	Go_O	1.0
744.418	1.0	go	0.482	Go_O	1.0
746.942	1.0	go	0.435	Go_X	1.0
749.483	1.0	go	0.522	Go_X	1.0
752.007	1.0	go	0.427	Go_O	1.0
754.531	1.0	go	0.368	Go_X	1.0
757.056	1.0	go	0.386	Go_O	1.0
759.58	0.25	stopsuccess	0.0	Go_O	1.0
762.104	1.0	go	0.407	Go_O	1.0
764.628	1.0	go	0.447	Go_X	1.0
767.152	0.3	stopfail	0.434	Go_X	0.0
769.676	1.0	go	0.554	Go_X	1.0
772.201	1.0	go	0.533	Go_O	1.0
774.725	1.0	go	0.425	Go_O	1.0
777.249	1.0	go	0.709	Go_X	1.0
779.773	1.0	go	0.43	Go_X	1.0
782.297	0.25	stopfail	0.416	Go_O	0.0
784.822	1.0	go	0.354	Go_O	1.0
787.346	1.0	go	0.488	Go_X	1.0
789.87	1.0	go	0.353	Go_O	1.0
792.394	0.2	stopsuccess	0.0	Go_X	1.0
794.918	1.0	go	0.417	Go_O	1.0
797.442	0.25	stopsuccess	0.0	Go_O	1.0
799.967	1.0	go	0.42	Go_X	1.0
802.491	1.0	go	0.668	Go_X	1.0
805.015	1.0	go	0.488	Go_O	1.0
807.539	1.0	go	0.636	Go_X	1.0
810.08	1.0	go	0.437	Go_O	1.0
812.604	1.0	go	0.381	Go_X	1.0
815.128	1.0	go	0.591	Go_O	1.0
817.652	0.3	stopfail	0.395	Go_X	0.0
820.177	1.0	go	0.361	Go_X	1.0
822.701	1.0	go	0.368	Go_O	1.0
825.225	1.0	go	0.541	Go_X	1.0
827.749	1.0	go	0.495	Go_O	1.0
830.273	0.25	stopfail	0.359	Go_O	0.0
832.798	1.0	go	0.428	Go_O	1.0
835.322	0.2	stopsuccess	0.0	Go_X	1.0
837.846	1.0	go	0.382	Go_X	1.0
840.37	1.0	go	0.436	Go_X	1.0
842.894	0.25	stopfail	0.288	Go_O	0.0
845.418	1.0	go	0.533	Go_O	1.0
847.943	1.0	go	0.433	Go_O	1.0
850.467	1.0	go	0.363	Go_X	1.0
852.991	1.0	go	0.426	Go_X	1.0
855.515	1.0	go	0.367	Go_O	1.0
858.039	1.0	go	0.345	Go_O	1.0
860.563	1.0	go	0.384	Go_X	1.0
863.088	1.0	go	0.395	Go_O	1.0
865.612	1.0	go	0.519	Go_X	1.0
868.136	1.0	go	0.336	Go_O	1.0
870.66	0.2	stopsuccess	0.0	Go_X	1.0
873.184	1.0	go	0.383	Go_X	1.0
875.708	1.0	go	0.418	Go_X	1.0
878.233	0.25	stopfail	0.379	Go_O	0.0
880.757	1.0	go	0.48	Go_O	1.0
883.281	0.2	stopfail	0.331	Go_X	0.0
885.805	1.0	go	0.343	Go_O	1.0
888.329	1.0	go	0.386	Go_X	0.0
890.853	0.15	stopsuccess	0.0	Go_O	1.0
893.378	1.0	go	0.401	Go_O	1.0
895.902	0.2	stopfail	0.368	Go_X	0.0
898.426	1.0	go	0.636	Go_X	1.0
900.95	1.0	go	0.59	Go_O	1.0
903.474	1.0	go	0.401	Go_X	1.0
905.998	0.15	stopsuccess	0.0	Go_O	1.0
908.523	1.0	go	0.56	Go_X	1.0
911.047	1.0	go	0.426	Go_O	1.0
913.571	1.0	go	0.472	Go_X	1.0
916.095	1.0	go	0.385	Go_O	1.0
918.619	0.2	stopsuccess	0.0	Go_X	1.0
921.144	1.0	go	0.438	Go_X	1.0
923.668	1.0	go	0.405	Go_O	1.0
926.192	0.25	stopfail	0.417	Go_O	0.0
928.716	1.0	go	0.426	Go_O	1.0
931.24	1.0	go	0.568	Go_X	1.0
933.764	1.0	go	0.419	Go_O	1.0
936.289	1.0	go	0.501	Go_X	1.0
938.813	0.2	stopsuccess	0.0	Go_X	1.0
941.337	1.0	go	0.472	Go_O	1.0
943.861	0.25	stopsuccess	0.0	Go_O	1.0
946.385	1.0	go	0.448	Go_X	1.0
948.909	1.0	go	0.471	Go_X	1.0
951.434	0.3	stopfail	0.387	Go_X	0.0
953.958	1.0	go	0.556	Go_O	1.0
956.482	1.0	go	0.563	Go_O	1.0
959.006	1.0	go	0.401	Go_X	1.0
961.53	1.0	go	0.461	Go_X	1.0
964.054	0.25	stopfail	0.427	Go_O	0.0
966.579	1.0	go	0.521	Go_O	1.0
969.103	0.2	stopsuccess	0.0	Go_X	1.0
971.627	1.0	go	0.33	Go_O	1.0
974.151	1.0	go	0.461	Go_X	1.0
976.675	1.0	go	0.612	Go_X	1.0
979.199	1.0	go	0.379	Go_O	1.0
981.724	1.0	go	0.355	Go_O	1.0
984.248	1.0	go	0.522	Go_X	1.0
986.772	0.25	stopfail	0.492	Go_O	0.0
989.296	1.0	go	0.426	Go_X	1.0
991.82	1.0	go	0.498	Go_O	1.0
994.345	0.2	stopsuccess	0.0	Go_X	1.0
996.869	1.0	go	0.419	Go_X	1.0
999.393	1.0	go	0.454	Go_O	1.0
1001.917	0.25	stopsuccess	0.0	Go_O	1.0
1004.441	1.0	go	0.434	Go_O	1.0
1006.965	1.0	go	0.417	Go_X	1.0
1009.49	1.0	go	0.429	Go_O	1.0
1012.014	1.0	go	0.425	Go_X	1.0
1014.538	0.3	stopfail	0.378	Go_X	0.0
1017.062	1.0	go	0.417	Go_X	1.0
1019.586	0.25	stopsuccess	0.0	Go_O	1.0
1022.11	1.0	go	0.408	Go_O	1.0
1024.635	1.0	go	0.442	Go_X	1.0
1027.159	1.0	go	0.662	Go_O	1.0
1029.683	1.0	go	0.444	Go_O	1.0
1032.207	1.0	go	0.336	Go_X	0.0
1034.731	0.3	stopsuccess	0.0	Go_X	1.0
1037.272	1.0	go	0.392	Go_O	1.0
1039.796	1.0	go	0.522	Go_X	1.0
1042.32	0.35	stopsuccess	0.0	Go_O	1.0
1044.845	0.4	stopfail	0.42	Go_X	0.0
1047.369	1.0	go	0.498	Go_X	1.0
1049.893	1.0	go	0.465	Go_O	1.0
1052.417	1.0	go	0.506	Go_X	1.0
1054.941	1.0	go	0.372	Go_O	1.0
1057.465	0.35	stopfail	0.432	Go_O	0.0
1059.99	1.0	go	0.828	Go_O	1.0
