onset	duration	trial_type	response_time	stim_file	accuracy
0.5260000000000105	1.0	go	0.548	Go_X	1.0
3.0510000000000446	1.0	go	0.399	Go_O	1.0
5.5750000000000455	1.0	go	0.339	Go_O	1.0
8.09899999999999	1.0	go	0.347	Go_X	1.0
10.62299999999999	1.0	go	0.339	Go_X	1.0
13.146999999999991	1.0	go	0.329	Go_O	1.0
15.670999999999992	0.25	stopfail	0.32	Go_O	0.0
18.196000000000026	1.0	go	0.319	Go_O	1.0
20.720000000000027	0.2	stopfail	0.316	Go_X	0.0
23.244000000000028	1.0	go	0.37	Go_X	1.0
25.76800000000003	1.0	go	0.426	Go_X	1.0
28.29200000000003	1.0	go	0.321	Go_O	1.0
30.817000000000007	0.15	stopsuccess	0.0	Go_O	1.0
33.34100000000001	1.0	go	0.308	Go_X	1.0
35.86500000000001	1.0	go	0.324	Go_O	1.0
38.38900000000001	0.2	stopfail	0.343	Go_X	0.0
40.91300000000001	0.15	stopfail	0.282	Go_O	0.0
43.43700000000001	1.0	go	0.369	Go_X	1.0
45.96199999999999	1.0	go	0.347	Go_O	1.0
48.48599999999999	0.1	stopsuccess	0.0	Go_X	1.0
51.00999999999999	1.0	go	0.403	Go_X	1.0
53.53399999999999	1.0	go	0.233	Go_O	1.0
56.05799999999999	0.15	stopsuccess	0.0	Go_O	1.0
58.581999999999994	1.0	go	0.308	Go_O	0.0
61.10700000000003	1.0	go	0.373	Go_X	1.0
63.63100000000003	0.2	stopsuccess	0.0	Go_X	1.0
66.15500000000003	1.0	go	0.379	Go_X	1.0
68.67900000000003	1.0	go	0.349	Go_O	1.0
71.20300000000003	0.25	stopfail	0.331	Go_O	0.0
73.72700000000003	1.0	go	0.406	Go_X	1.0
76.25200000000001	1.0	go	0.347	Go_O	1.0
78.77600000000001	1.0	go	0.322	Go_O	1.0
81.30000000000001	1.0	go	0.286	Go_X	1.0
83.82400000000001	1.0	go	0.291	Go_O	1.0
86.34800000000001	0.2	stopfail	0.371	Go_X	0.0
88.87200000000001	1.0	go	0.507	Go_X	1.0
91.39699999999999	1.0	go	0.417	Go_X	1.0
93.92099999999999	1.0	go	0.268	Go_O	1.0
96.445	1.0	go	0.29	Go_O	1.0
98.969	1.0	go	0.386	Go_X	1.0
101.493	0.15	stopfail	0.289	Go_O	0.0
104.017	1.0	go	0.366	Go_O	1.0
106.54200000000003	1.0	go	0.456	Go_X	1.0
109.06600000000003	1.0	go	0.399	Go_X	1.0
111.59000000000003	1.0	go	0.349	Go_O	1.0
114.11400000000003	1.0	go	0.31	Go_X	1.0
116.63800000000003	1.0	go	0.313	Go_O	1.0
119.16300000000001	0.1	stopsuccess	0.0	Go_X	1.0
121.68700000000001	1.0	go	0.42	Go_X	1.0
124.21100000000001	1.0	go	0.33	Go_O	1.0
126.73500000000001	0.15	stopsuccess	0.0	Go_O	1.0
129.25900000000001	1.0	go	0.291	Go_X	1.0
131.78300000000002	0.2	stopsuccess	0.0	Go_X	1.0
134.308	0.25	stopfail	0.302	Go_O	0.0
136.832	1.0	go	0.434	Go_O	1.0
139.356	1.0	go	0.307	Go_X	1.0
141.88	1.0	go	0.394	Go_O	1.0
144.404	1.0	go	0.348	Go_O	1.0
146.928	0.2	stopsuccess	0.0	Go_X	1.0
149.45300000000003	1.0	go	0.344	Go_X	1.0
151.97700000000003	0.25	stopfail	0.37	Go_O	0.0
154.50100000000003	1.0	go	0.543	Go_O	1.0
157.02500000000003	1.0	go	0.398	Go_X	1.0
159.54900000000004	1.0	go	0.439	Go_O	1.0
162.07300000000004	1.0	go	0.46	Go_X	1.0
164.61400000000003	1.0	go	0.377	Go_X	1.0
167.139	1.0	go	0.284	Go_O	1.0
169.663	1.0	go	0.415	Go_O	1.0
172.187	1.0	go	0.363	Go_X	1.0
174.711	1.0	go	0.527	Go_X	1.0
177.235	0.2	stopsuccess	0.0	Go_X	1.0
179.75900000000001	1.0	go	0.332	Go_O	1.0
182.284	1.0	go	0.426	Go_O	1.0
184.808	1.0	go	0.398	Go_X	1.0
187.332	0.25	stopfail	0.28	Go_O	0.0
189.856	1.0	go	0.463	Go_O	1.0
192.38	1.0	go	0.374	Go_X	1.0
194.904	1.0	go	0.251	Go_O	1.0
197.42900000000003	1.0	go	0.52	Go_X	1.0
199.95300000000003	1.0	go	0.364	Go_X	1.0
202.47700000000003	1.0	go	0.298	Go_O	1.0
205.00100000000003	0.2	stopfail	0.346	Go_X	0.0
207.52499999999998	1.0	go	0.452	Go_X	1.0
210.04899999999998	1.0	go	0.425	Go_O	1.0
212.57400000000007	0.15	stopsuccess	0.0	Go_O	1.0
215.09800000000007	1.0	go	0.334	Go_O	1.0
217.62200000000007	1.0	go	0.483	Go_X	1.0
220.14600000000007	0.2	stopfail	0.374	Go_X	0.0
222.67000000000007	1.0	go	0.465	Go_X	1.0
225.19400000000007	0.15	stopsuccess	0.0	Go_O	1.0
227.71900000000005	1.0	go	0.412	Go_O	1.0
230.24300000000005	1.0	go	0.487	Go_O	1.0
232.76700000000005	1.0	go	0.441	Go_X	1.0
235.29100000000005	1.0	go	0.356	Go_O	1.0
237.81500000000005	1.0	go	0.5	Go_X	1.0
240.33900000000006	0.2	stopsuccess	0.0	Go_X	1.0
242.86400000000003	0.25	stopfail	0.399	Go_O	0.0
245.38800000000003	1.0	go	0.426	Go_O	1.0
247.91200000000003	1.0	go	0.39	Go_X	1.0
250.43600000000004	0.2	stopfail	0.382	Go_X	0.0
252.96000000000004	1.0	go	0.437	Go_O	1.0
255.485	1.0	go	0.416	Go_X	1.0
258.009	1.0	go	0.496	Go_X	1.0
260.533	1.0	go	0.473	Go_O	1.0
263.057	1.0	go	0.386	Go_O	1.0
265.581	1.0	go	0.393	Go_X	1.0
268.105	0.15	stopfail	0.305	Go_O	0.0
270.63	1.0	go	0.451	Go_X	1.0
273.154	1.0	go	0.318	Go_O	1.0
275.678	1.0	go	0.366	Go_O	1.0
278.202	1.0	go	0.269	Go_X	1.0
280.726	1.0	go	0.375	Go_X	1.0
283.25	0.1	stopfail	0.373	Go_X	0.0
285.775	1.0	go	0.428	Go_O	1.0
288.299	1.0	go	0.423	Go_X	1.0
290.823	1.0	go	0.422	Go_O	1.0
293.347	1.0	go	0.503	Go_X	1.0
295.871	0.05	stopsuccess	0.0	Go_O	1.0
298.395	1.0	go	0.38	Go_O	1.0
300.9200000000001	1.0	go	0.493	Go_X	1.0
303.4440000000001	0.1	stopfail	0.438	Go_X	0.0
305.96799999999996	1.0	go	0.511	Go_O	1.0
308.49199999999996	0.05	stopsuccess	0.0	Go_O	1.0
311.01599999999996	1.0	go	0.376	Go_O	1.0
313.53999999999996	1.0	go	0.489	Go_X	1.0
316.06500000000005	1.0	go	0.257	Go_O	1.0
318.58900000000006	1.0	go	0.388	Go_X	1.0
321.11300000000006	1.0	go	0.363	Go_O	1.0
323.63700000000006	1.0	go	0.573	Go_X	1.0
326.16100000000006	1.0	go	0.562	Go_X	1.0
328.68500000000006	0.1	stopsuccess	0.0	Go_X	1.0
331.21000000000004	1.0	go	0.439	Go_O	1.0
333.73400000000004	1.0	go	0.457	Go_O	1.0
336.25800000000004	1.0	go	0.331	Go_X	1.0
338.78200000000004	0.15	stopsuccess	0.0	Go_O	1.0
341.30600000000004	1.0	go	0.373	Go_X	1.0
343.831	1.0	go	0.352	Go_O	1.0
346.355	1.0	go	0.396	Go_X	1.0
348.879	1.0	go	0.336	Go_O	1.0
351.403	0.2	stopfail	0.368	Go_X	0.0
353.927	1.0	go	0.374	Go_O	1.0
356.451	1.0	go	0.439	Go_X	1.0
358.976	0.15	stopsuccess	0.0	Go_O	1.0
361.5	1.0	go	0.522	Go_O	1.0
364.024	1.0	go	0.433	Go_X	1.0
366.548	0.2	stopsuccess	0.0	Go_X	1.0
369.072	1.0	go	0.432	Go_X	1.0
371.596	1.0	go	0.321	Go_O	1.0
374.121	0.25	stopfail	0.483	Go_O	0.0
376.645	1.0	go	0.315	Go_X	1.0
379.169	1.0	go	0.311	Go_O	1.0
381.693	1.0	go	0.323	Go_X	1.0
384.217	1.0	go	0.365	Go_O	1.0
386.741	1.0	go	0.41	Go_X	1.0
389.26599999999996	1.0	go	0.313	Go_O	1.0
391.78999999999996	0.2	stopfail	0.366	Go_X	0.0
394.31399999999996	1.0	go	0.534	Go_X	1.0
396.83799999999997	0.15	stopsuccess	0.0	Go_O	1.0
399.36199999999997	1.0	go	0.371	Go_O	1.0
401.88599999999997	1.0	go	0.491	Go_X	1.0
404.41100000000006	1.0	go	0.39	Go_O	1.0
406.93500000000006	1.0	go	0.425	Go_O	1.0
409.45900000000006	1.0	go	0.421	Go_X	1.0
411.98300000000006	0.2	stopsuccess	0.0	Go_X	1.0
414.50700000000006	1.0	go	0.444	Go_X	1.0
417.03200000000004	1.0	go	0.28	Go_O	1.0
419.55600000000004	1.0	go	0.454	Go_X	1.0
422.08000000000004	0.25	stopfail	0.349	Go_O	0.0
424.60400000000004	0.2	stopfail	0.369	Go_X	0.0
427.12800000000004	0.15	stopsuccess	0.0	Go_O	1.0
429.65200000000004	1.0	go	0.354	Go_O	1.0
432.177	0.2	stopsuccess	0.0	Go_X	1.0
434.701	1.0	go	0.5	Go_X	1.0
437.225	1.0	go	0.444	Go_O	1.0
439.749	1.0	go	0.482	Go_O	1.0
442.273	1.0	go	0.435	Go_X	1.0
444.81399999999996	1.0	go	0.522	Go_X	1.0
447.33799999999997	1.0	go	0.427	Go_O	1.0
449.86199999999997	1.0	go	0.368	Go_X	1.0
452.38700000000006	1.0	go	0.386	Go_O	1.0
454.91100000000006	0.25	stopsuccess	0.0	Go_O	1.0
457.43500000000006	1.0	go	0.407	Go_O	1.0
459.95900000000006	1.0	go	0.447	Go_X	1.0
462.48300000000006	0.3	stopfail	0.434	Go_X	0.0
465.00700000000006	1.0	go	0.554	Go_X	1.0
467.53200000000004	1.0	go	0.533	Go_O	1.0
470.05600000000004	1.0	go	0.425	Go_O	1.0
472.58000000000004	1.0	go	0.709	Go_X	1.0
475.10400000000004	1.0	go	0.43	Go_X	1.0
477.62800000000004	0.25	stopfail	0.416	Go_O	0.0
480.153	1.0	go	0.354	Go_O	1.0
482.677	1.0	go	0.488	Go_X	1.0
485.201	1.0	go	0.353	Go_O	1.0
487.725	0.2	stopsuccess	0.0	Go_X	1.0
490.249	1.0	go	0.417	Go_O	1.0
492.773	0.25	stopsuccess	0.0	Go_O	1.0
495.298	1.0	go	0.42	Go_X	1.0
497.822	1.0	go	0.668	Go_X	1.0
500.346	1.0	go	0.488	Go_O	1.0
502.87	1.0	go	0.636	Go_X	1.0
505.41100000000006	1.0	go	0.437	Go_O	1.0
507.93500000000006	1.0	go	0.381	Go_X	1.0
510.45900000000006	1.0	go	0.591	Go_O	1.0
512.9830000000001	0.3	stopfail	0.395	Go_X	0.0
515.508	1.0	go	0.361	Go_X	1.0
518.032	1.0	go	0.368	Go_O	1.0
520.556	1.0	go	0.541	Go_X	1.0
523.08	1.0	go	0.495	Go_O	1.0
525.604	0.25	stopfail	0.359	Go_O	0.0
528.129	1.0	go	0.428	Go_O	1.0
530.653	0.2	stopsuccess	0.0	Go_X	1.0
533.177	1.0	go	0.382	Go_X	1.0
535.701	1.0	go	0.436	Go_X	1.0
538.225	0.25	stopfail	0.288	Go_O	0.0
540.749	1.0	go	0.533	Go_O	1.0
543.274	1.0	go	0.433	Go_O	1.0
545.798	1.0	go	0.363	Go_X	1.0
548.322	1.0	go	0.426	Go_X	1.0
550.846	1.0	go	0.367	Go_O	1.0
553.37	1.0	go	0.345	Go_O	1.0
555.894	1.0	go	0.384	Go_X	1.0
558.419	1.0	go	0.395	Go_O	1.0
560.943	1.0	go	0.519	Go_X	1.0
563.467	1.0	go	0.336	Go_O	1.0
565.991	0.2	stopsuccess	0.0	Go_X	1.0
568.515	1.0	go	0.383	Go_X	1.0
571.039	1.0	go	0.418	Go_X	1.0
573.564	0.25	stopfail	0.379	Go_O	0.0
576.088	1.0	go	0.48	Go_O	1.0
578.612	0.2	stopfail	0.331	Go_X	0.0
581.136	1.0	go	0.343	Go_O	1.0
583.66	1.0	go	0.386	Go_X	0.0
586.184	0.15	stopsuccess	0.0	Go_O	1.0
588.7090000000001	1.0	go	0.401	Go_O	1.0
591.2330000000001	0.2	stopfail	0.368	Go_X	0.0
593.7570000000001	1.0	go	0.636	Go_X	1.0
596.2810000000001	1.0	go	0.59	Go_O	1.0
598.8050000000001	1.0	go	0.401	Go_X	1.0
601.3290000000001	0.15	stopsuccess	0.0	Go_O	1.0
603.854	1.0	go	0.56	Go_X	1.0
606.378	1.0	go	0.426	Go_O	1.0
608.902	1.0	go	0.472	Go_X	1.0
611.426	1.0	go	0.385	Go_O	1.0
613.95	0.2	stopsuccess	0.0	Go_X	1.0
616.475	1.0	go	0.438	Go_X	1.0
618.999	1.0	go	0.405	Go_O	1.0
621.523	0.25	stopfail	0.417	Go_O	0.0
624.047	1.0	go	0.426	Go_O	1.0
626.571	1.0	go	0.568	Go_X	1.0
629.095	1.0	go	0.419	Go_O	1.0
631.62	1.0	go	0.501	Go_X	1.0
634.144	0.2	stopsuccess	0.0	Go_X	1.0
636.668	1.0	go	0.472	Go_O	1.0
639.192	0.25	stopsuccess	0.0	Go_O	1.0
641.716	1.0	go	0.448	Go_X	1.0
644.24	1.0	go	0.471	Go_X	1.0
646.765	0.3	stopfail	0.387	Go_X	0.0
649.289	1.0	go	0.556	Go_O	1.0
651.813	1.0	go	0.563	Go_O	1.0
654.337	1.0	go	0.401	Go_X	1.0
656.861	1.0	go	0.461	Go_X	1.0
659.385	0.25	stopfail	0.427	Go_O	0.0
661.91	1.0	go	0.521	Go_O	1.0
664.434	0.2	stopsuccess	0.0	Go_X	1.0
666.958	1.0	go	0.33	Go_O	1.0
669.482	1.0	go	0.461	Go_X	1.0
672.006	1.0	go	0.612	Go_X	1.0
674.53	1.0	go	0.379	Go_O	1.0
677.0550000000001	1.0	go	0.355	Go_O	1.0
679.5790000000001	1.0	go	0.522	Go_X	1.0
682.1030000000001	0.25	stopfail	0.492	Go_O	0.0
684.6270000000001	1.0	go	0.426	Go_X	1.0
687.1510000000001	1.0	go	0.498	Go_O	1.0
689.676	0.2	stopsuccess	0.0	Go_X	1.0
692.2	1.0	go	0.419	Go_X	1.0
694.724	1.0	go	0.454	Go_O	1.0
697.248	0.25	stopsuccess	0.0	Go_O	1.0
699.772	1.0	go	0.434	Go_O	1.0
702.296	1.0	go	0.417	Go_X	1.0
704.821	1.0	go	0.429	Go_O	1.0
707.345	1.0	go	0.425	Go_X	1.0
709.869	0.3	stopfail	0.378	Go_X	0.0
712.393	1.0	go	0.417	Go_X	1.0
714.917	0.25	stopsuccess	0.0	Go_O	1.0
717.441	1.0	go	0.408	Go_O	1.0
719.966	1.0	go	0.442	Go_X	1.0
722.4900000000001	1.0	go	0.662	Go_O	1.0
725.014	1.0	go	0.444	Go_O	1.0
727.5380000000001	1.0	go	0.336	Go_X	0.0
730.062	0.3	stopsuccess	0.0	Go_X	1.0
732.603	1.0	go	0.392	Go_O	1.0
735.1270000000001	1.0	go	0.522	Go_X	1.0
737.651	0.35	stopsuccess	0.0	Go_O	1.0
740.176	0.4	stopfail	0.42	Go_X	0.0
742.6999999999999	1.0	go	0.498	Go_X	1.0
745.224	1.0	go	0.465	Go_O	1.0
747.7479999999999	1.0	go	0.506	Go_X	1.0
750.272	1.0	go	0.372	Go_O	1.0
752.7959999999999	0.35	stopfail	0.432	Go_O	0.0
755.321	1.0	go	0.828	Go_O	1.0
