onset	duration	trial_type	response_time	stim_file	accuracy
0.527000000000001	1.0	go	0.914	Go_X	1.0
3.067999999999998	1.0	go	0.447	Go_O	1.0
5.608999999999995	1.0	go	0.386	Go_O	1.0
8.132999999999996	1.0	go	0.352	Go_X	1.0
10.656999999999996	1.0	go	0.381	Go_X	1.0
13.182000000000002	1.0	go	0.336	Go_O	1.0
15.706000000000003	0.25	stopfail	0.389	Go_O	0.0
18.247	1.0	go	0.57	Go_X	1.0
20.771	0.2	stopsuccess	0.0	Go_X	1.0
23.311999999999998	1.0	go	0.29	Go_O	1.0
25.852999999999994	1.0	go	0.463	Go_O	1.0
28.394000000000005	1.0	go	0.362	Go_X	1.0
30.918000000000006	0.25	stopfail	0.387	Go_O	0.0
33.459	1.0	go	0.499	Go_O	1.0
35.983000000000004	1.0	go	0.304	Go_X	1.0
38.507000000000005	0.2	stopsuccess	0.0	Go_X	1.0
41.032	0.25	stopfail	0.245	Go_O	0.0
43.57300000000001	1.0	go	0.369	Go_O	1.0
46.113	1.0	go	0.377	Go_X	1.0
48.638000000000005	0.2	stopsuccess	0.0	Go_X	1.0
51.179	1.0	go	0.384	Go_O	1.0
53.72	1.0	go	0.566	Go_X	1.0
56.244	0.25	stopsuccess	0.0	Go_O	1.0
58.788	1.0	go	0.374	Go_O	1.0
61.309	1.0	go	0.457	Go_X	1.0
63.849999999999994	0.3	stopsuccess	0.0	Go_X	1.0
66.391	1.0	go	0.493	Go_X	1.0
68.93199999999999	1.0	go	0.414	Go_O	1.0
71.47300000000001	0.35	stopfail	0.418	Go_O	0.0
74.01400000000001	1.0	go	0.325	Go_O	1.0
76.53800000000001	1.0	go	0.338	Go_X	1.0
79.07900000000001	1.0	go	0.431	Go_X	1.0
81.62	1.0	go	0.52	Go_O	1.0
84.161	1.0	go	0.457	Go_O	1.0
86.702	0.3	stopsuccess	0.0	Go_X	1.0
89.24199999999999	1.0	go	0.501	Go_X	1.0
91.767	1.0	go	0.417	Go_O	1.0
94.291	1.0	go	0.485	Go_X	1.0
96.832	1.0	go	0.522	Go_O	1.0
99.356	1.0	go	0.302	Go_X	1.0
101.88	0.35	stopfail	0.322	Go_O	0.0
104.404	1.0	go	0.457	Go_X	1.0
106.929	1.0	go	0.494	Go_O	1.0
109.453	1.0	go	0.451	Go_O	1.0
111.977	1.0	go	0.312	Go_X	1.0
114.501	1.0	go	0.488	Go_O	1.0
117.025	1.0	go	0.414	Go_X	1.0
119.55000000000001	0.3	stopsuccess	0.0	Go_X	1.0
122.09100000000001	1.0	go	0.28	Go_X	1.0
124.632	1.0	go	0.352	Go_O	1.0
127.173	0.35	stopfail	0.372	Go_O	0.0
129.713	1.0	go	0.488	Go_X	1.0
132.238	0.3	stopsuccess	0.0	Go_X	1.0
134.779	0.35	stopfail	0.352	Go_O	0.0
137.32	1.0	go	0.434	Go_O	1.0
139.844	1.0	go	0.368	Go_O	1.0
142.385	1.0	go	0.403	Go_X	1.0
144.909	1.0	go	0.388	Go_O	1.0
147.433	0.3	stopsuccess	0.0	Go_X	1.0
149.974	1.0	go	0.412	Go_X	1.0
152.498	0.35	stopfail	0.373	Go_O	0.0
155.039	1.0	go	0.316	Go_X	1.0
157.563	1.0	go	0.37	Go_O	1.0
160.088	1.0	go	0.476	Go_O	1.0
162.629	1.0	go	0.371	Go_X	1.0
165.153	1.0	go	0.529	Go_O	1.0
167.677	1.0	go	0.421	Go_X	1.0
170.201	1.0	go	0.419	Go_O	1.0
172.725	1.0	go	0.543	Go_X	1.0
175.25	1.0	go	0.429	Go_O	1.0
177.791	0.3	stopsuccess	0.0	Go_X	1.0
180.331	1.0	go	0.423	Go_X	1.0
182.856	1.0	go	0.437	Go_O	1.0
185.38	1.0	go	0.475	Go_X	1.0
187.921	0.35	stopsuccess	0.0	Go_O	1.0
190.462	1.0	go	0.451	Go_O	1.0
192.986	1.0	go	0.447	Go_X	1.0
195.51	1.0	go	0.504	Go_X	1.0
198.051	1.0	go	0.523	Go_O	1.0
200.59199999999998	1.0	go	0.555	Go_O	1.0
203.11599999999999	1.0	go	0.5	Go_X	1.0
205.64	0.4	stopfail	0.47	Go_X	0.0
208.18099999999998	1.0	go	0.359	Go_X	1.0
210.70600000000002	1.0	go	0.407	Go_O	1.0
213.23000000000002	0.35	stopfail	0.345	Go_O	0.0
215.78699999999998	1.0	go	0.66	Go_X	1.0
218.312	1.0	go	0.476	Go_O	1.0
220.836	0.3	stopfail	0.427	Go_X	0.0
223.377	1.0	go	0.38	Go_X	1.0
225.918	0.25	stopsuccess	0.0	Go_O	1.0
228.459	1.0	go	0.422	Go_O	1.0
230.983	1.0	go	0.417	Go_X	1.0
233.507	1.0	go	0.45	Go_O	1.0
236.031	1.0	go	0.535	Go_O	1.0
238.55599999999998	1.0	go	0.545	Go_X	1.0
241.09699999999998	0.3	stopfail	0.423	Go_X	0.0
243.62099999999998	0.25	stopsuccess	0.0	Go_O	1.0
246.16199999999998	1.0	go	0.423	Go_X	1.0
248.70299999999997	1.0	go	0.385	Go_O	1.0
251.22699999999998	0.3	stopsuccess	0.0	Go_X	1.0
253.76800000000003	1.0	go	0.281	Go_O	1.0
256.292	1.0	go	0.546	Go_X	1.0
258.816	1.0	go	0.416	Go_X	1.0
261.357	1.0	go	0.49	Go_O	1.0
263.88100000000003	1.0	go	0.384	Go_O	1.0
266.405	1.0	go	0.564	Go_X	1.0
268.93	0.35	stopsuccess	0.0	Go_O	1.0
271.471	1.0	go	0.33	Go_O	1.0
273.995	1.0	go	0.414	Go_X	1.0
276.536	1.0	go	0.405	Go_O	1.0
279.077	1.0	go	0.355	Go_X	1.0
281.618	1.0	go	0.332	Go_O	1.0
284.142	0.4	stopsuccess	0.0	Go_X	1.0
286.683	1.0	go	0.424	Go_X	1.0
289.207	1.0	go	0.384	Go_X	1.0
291.731	1.0	go	0.413	Go_O	1.0
294.272	1.0	go	0.695	Go_X	1.0
296.796	0.45	stopfail	0.486	Go_O	0.0
299.321	1.0	go	0.543	Go_O	1.0
301.845	1.0	go	0.272	Go_X	1.0
304.369	0.4	stopfail	0.47	Go_X	0.0
306.91	1.0	go	0.346	Go_O	1.0
309.451	0.35	stopfail	0.326	Go_O	0.0
311.992	1.0	go	0.375	Go_X	1.0
314.533	1.0	go	0.438	Go_O	1.0
317.074	1.0	go	0.459	Go_O	1.0
319.598	1.0	go	0.445	Go_X	1.0
322.122	1.0	go	0.533	Go_X	1.0
324.646	1.0	go	0.551	Go_O	1.0
327.17	1.0	go	0.502	Go_O	1.0
329.695	0.3	stopsuccess	0.0	Go_X	1.0
332.236	1.0	go	0.412	Go_X	1.0
334.76	1.0	go	0.456	Go_O	1.0
337.284	1.0	go	0.38	Go_X	1.0
339.808	0.35	stopfail	0.411	Go_O	0.0
342.333	1.0	go	0.234	Go_X	1.0
344.873	1.0	go	0.385	Go_O	1.0
347.398	1.0	go	0.314	Go_X	1.0
349.922	1.0	go	0.299	Go_O	1.0
352.463	0.3	stopsuccess	0.0	Go_X	1.0
355.004	1.0	go	0.519	Go_X	1.0
357.528	1.0	go	0.649	Go_O	1.0
360.069	0.35	stopfail	0.37	Go_O	0.0
362.61	1.0	go	0.476	Go_X	1.0
365.134	1.0	go	0.365	Go_O	1.0
367.675	0.3	stopsuccess	0.0	Go_X	1.0
370.216	1.0	go	0.407	Go_X	1.0
372.757	1.0	go	0.322	Go_O	1.0
375.298	0.35	stopsuccess	0.0	Go_O	1.0
377.839	1.0	go	0.222	Go_O	1.0
380.363	1.0	go	0.31	Go_X	1.0
382.887	1.0	go	0.462	Go_O	1.0
385.428	1.0	go	0.437	Go_X	1.0
387.952	1.0	go	0.373	Go_O	1.0
390.493	1.0	go	0.439	Go_X	1.0
393.034	0.4	stopfail	0.319	Go_X	0.0
395.575	1.0	go	0.46	Go_X	1.0
398.099	0.35	stopfail	0.406	Go_O	0.0
400.64	1.0	go	0.47	Go_O	1.0
403.166	1.0	go	0.358	Go_X	1.0
405.689	1.0	go	0.394	Go_O	1.0
408.23	1.0	go	0.371	Go_X	1.0
410.754	1.0	go	0.416	Go_O	1.0
413.278	0.3	stopsuccess	0.0	Go_X	1.0
415.819	1.0	go	0.504	Go_O	1.0
418.343	1.0	go	0.934	Go_X	1.0
420.867	1.0	go	0.37	Go_O	1.0
423.391	0.35	stopsuccess	0.0	Go_O	1.0
425.916	0.4	stopfail	0.399	Go_X	0.0
428.457	0.35	stopfail	0.289	Go_O	0.0
430.998	1.0	go	0.384	Go_X	1.0
433.522	0.3	stopfail	0.396	Go_X	0.0
436.063	1.0	go	0.319	Go_O	1.0
438.587	1.0	go	0.334	Go_X	1.0
441.111	1.0	go	0.267	Go_X	1.0
443.635	1.0	go	0.227	Go_O	1.0
446.16	1.0	go	0.288	Go_O	0.0
448.684	1.0	go	0.507	Go_X	1.0
451.208	1.0	go	0.242	Go_O	1.0
453.73199999999997	1.0	go	0.367	Go_X	1.0
456.256	0.25	stopfail	0.306	Go_O	0.0
458.78099999999995	1.0	go	0.319	Go_X	1.0
461.30499999999995	1.0	go	0.4	Go_O	1.0
463.82899999999995	0.2	stopsuccess	0.0	Go_X	1.0
466.37	1.0	go	0.271	Go_O	1.0
468.894	1.0	go	0.355	Go_X	1.0
471.418	1.0	go	0.474	Go_X	1.0
473.943	1.0	go	0.462	Go_O	0.0
476.467	1.0	go	0.743	Go_O	1.0
478.991	0.25	stopsuccess	0.0	Go_O	1.0
481.53200000000004	1.0	go	0.395	Go_X	1.0
484.05600000000004	1.0	go	0.464	Go_X	0.0
486.597	1.0	go	0.459	Go_O	1.0
489.13800000000003	0.3	stopfail	0.321	Go_X	0.0
491.679	1.0	go	0.34	Go_X	1.0
494.203	0.25	stopfail	0.297	Go_O	0.0
496.744	1.0	go	0.266	Go_O	1.0
499.26800000000003	1.0	go	0.369	Go_X	1.0
501.80899999999997	1.0	go	0.402	Go_O	1.0
504.33299999999997	1.0	go	0.339	Go_O	1.0
506.85799999999995	1.0	go	0.349	Go_X	1.0
509.38199999999995	1.0	go	0.847	Go_X	0.0
511.90599999999995	1.0	go	0.541	Go_O	1.0
514.447	0.2	stopsuccess	0.0	Go_X	1.0
516.971	1.0	go	0.254	Go_O	1.0
519.496	1.0	go	0.349	Go_X	1.0
522.036	1.0	go	0.344	Go_X	1.0
524.577	1.0	go	0.338	Go_O	1.0
527.102	0.25	stopsuccess	0.0	Go_O	1.0
529.643	1.0	go	0.237	Go_X	1.0
532.183	0.3	stopfail	0.366	Go_X	0.0
534.708	1.0	go	0.19	Go_O	1.0
537.249	1.0	go	0.228	Go_O	1.0
539.773	0.25	stopfail	0.242	Go_O	0.0
542.314	1.0	go	0.477	Go_X	1.0
544.838	1.0	go	0.377	Go_O	1.0
547.379	1.0	go	0.33	Go_X	0.0
549.903	1.0	go	0.703	Go_X	1.0
552.427	1.0	go	0.336	Go_O	1.0
554.952	1.0	go	0.452	Go_X	1.0
557.492	1.0	go	0.607	Go_O	1.0
560.017	1.0	go	0.274	Go_X	1.0
562.541	1.0	go	0.412	Go_O	1.0
565.082	1.0	go	0.417	Go_X	1.0
567.606	0.2	stopsuccess	0.0	Go_X	1.0
570.13	1.0	go	0.313	Go_O	1.0
572.654	1.0	go	0.367	Go_X	1.0
575.179	0.25	stopfail	0.37	Go_O	0.0
577.72	1.0	go	0.402	Go_O	1.0
580.244	0.2	stopsuccess	0.0	Go_X	1.0
582.785	1.0	go	0.272	Go_O	1.0
585.309	1.0	go	0.453	Go_X	1.0
587.85	0.25	stopfail	0.302	Go_O	0.0
590.374	1.0	go	0.33	Go_O	0.0
592.898	0.2	stopsuccess	0.0	Go_X	1.0
595.439	1.0	go	0.386	Go_X	1.0
597.963	1.0	go	0.224	Go_O	1.0
600.488	1.0	go	0.485	Go_X	1.0
603.0120000000001	0.25	stopfail	0.334	Go_O	0.0
605.553	1.0	go	0.277	Go_O	1.0
608.077	1.0	go	0.318	Go_X	1.0
610.601	1.0	go	0.371	Go_X	1.0
613.125	1.0	go	0.402	Go_O	1.0
615.65	0.2	stopfail	0.313	Go_X	0.0
618.191	1.0	go	0.431	Go_X	1.0
620.715	1.0	go	0.34	Go_O	1.0
623.256	0.15	stopsuccess	0.0	Go_O	1.0
625.797	1.0	go	0.328	Go_X	1.0
628.321	1.0	go	0.37	Go_O	1.0
630.845	1.0	go	0.41	Go_X	1.0
633.369	1.0	go	0.389	Go_O	1.0
635.894	0.2	stopsuccess	0.0	Go_X	1.0
638.435	1.0	go	0.403	Go_X	1.0
640.975	0.25	stopsuccess	0.0	Go_O	1.0
643.5	1.0	go	0.363	Go_O	1.0
646.024	1.0	go	0.4	Go_X	1.0
648.548	0.3	stopfail	0.396	Go_X	0.0
651.072	1.0	go	0.263	Go_O	1.0
653.596	1.0	go	0.601	Go_O	1.0
656.121	1.0	go	0.657	Go_X	1.0
658.645	1.0	go	0.559	Go_O	1.0
661.169	0.25	stopsuccess	0.0	Go_O	1.0
663.693	1.0	go	0.431	Go_X	1.0
666.218	0.3	stopsuccess	0.0	Go_X	1.0
668.758	1.0	go	0.426	Go_X	1.0
671.299	1.0	go	0.315	Go_O	1.0
673.824	1.0	go	0.49	Go_O	1.0
676.348	1.0	go	0.479	Go_X	1.0
678.889	1.0	go	0.507	Go_O	1.0
681.413	1.0	go	0.543	Go_X	1.0
683.937	0.35	stopfail	0.231	Go_O	0.0
686.478	1.0	go	0.333	Go_X	1.0
689.002	1.0	go	0.407	Go_O	1.0
691.527	0.3	stopfail	0.293	Go_X	0.0
694.068	1.0	go	0.344	Go_X	0.0
696.608	1.0	go	0.413	Go_O	1.0
699.133	0.25	stopfail	0.472	Go_O	0.0
701.674	1.0	go	0.447	Go_O	1.0
704.215	1.0	go	0.444	Go_X	1.0
706.755	1.0	go	0.448	Go_O	1.0
709.28	1.0	go	0.539	Go_X	1.0
711.804	0.2	stopsuccess	0.0	Go_X	1.0
714.345	1.0	go	0.389	Go_X	1.0
716.869	0.25	stopfail	0.342	Go_O	0.0
719.41	1.0	go	0.494	Go_O	1.0
721.934	1.0	go	0.424	Go_O	1.0
724.458	1.0	go	0.619	Go_X	1.0
726.983	1.0	go	0.426	Go_X	1.0
729.523	1.0	go	0.444	Go_O	1.0
732.048	0.2	stopsuccess	0.0	Go_X	1.0
734.572	1.0	go	0.433	Go_O	1.0
737.096	1.0	go	0.615	Go_X	1.0
739.6370000000001	0.25	stopsuccess	0.0	Go_O	1.0
742.178	0.3	stopfail	0.395	Go_X	0.0
744.719	1.0	go	0.436	Go_O	1.0
747.26	1.0	go	0.338	Go_X	1.0
749.784	1.0	go	0.486	Go_O	1.0
752.308	1.0	go	0.399	Go_X	1.0
754.833	0.25	stopsuccess	0.0	Go_O	1.0
757.373	1.0	go	0.348	Go_O	1.0
