onset	duration	trial_type	response_time	stim_file	accuracy
423.461	1.0	go	0.841	Go_X	1.0
426.052	1.0	go	0.481	Go_O	1.0
428.576	1.0	go	0.398	Go_X	1.0
431.101	1.0	go	0.425	Go_O	1.0
433.625	1.0	go	0.39	Go_O	1.0
436.149	1.0	go	0.445	Go_X	1.0
438.673	0.25	stop	0.5	Go_O	0.0
441.197	1.0	go	0.586	Go_O	1.0
443.721	0.2	stop	0.0	Go_X	1.0
446.246	1.0	go	0.497	Go_X	1.0
448.77	1.0	go	0.384	Go_O	1.0
451.294	1.0	go	0.405	Go_X	1.0
453.818	0.25	stop	0.0	Go_O	1.0
456.342	1.0	go	0.341	Go_X	1.0
458.866	1.0	go	0.457	Go_O	1.0
461.391	0.3	stop	0.486	Go_X	0.0
463.915	0.25	stop	0.0	Go_O	1.0
466.439	1.0	go	0.594	Go_O	1.0
468.963	1.0	go	0.509	Go_X	1.0
471.487	0.3	stop	0.0	Go_X	1.0
474.011	1.0	go	0.617	Go_X	1.0
476.535	1.0	go	0.551	Go_O	1.0
479.06	0.35	stop	0.0	Go_O	1.0
481.584	1.0	go	0.535	Go_O	1.0
484.108	1.0	go	0.686	Go_X	1.0
486.632	0.4	stop	0.0	Go_X	1.0
489.156	1.0	go	0.539	Go_O	1.0
491.68	1.0	go	0.624	Go_X	1.0
494.205	0.45	stop	0.0	Go_O	1.0
496.729	1.0	go	0.597	Go_X	1.0
499.253	1.0	go	0.703	Go_O	1.0
501.777	1.0	go	0.572	Go_O	1.0
504.301	1.0	go	0.71	Go_X	1.0
506.825	1.0	go	0.566	Go_X	1.0
509.35	0.5	stop	0.0	Go_X	1.0
511.874	1.0	go	0.548	Go_O	1.0
514.398	1.0	go	0.681	Go_X	1.0
516.922	1.0	go	0.535	Go_O	1.0
519.446	1.0	go	0.529	Go_X	1.0
521.97	1.0	go	0.631	Go_O	1.0
524.495	0.55	stop	0.0	Go_O	1.0
527.019	1.0	go	0.69	Go_O	1.0
529.543	1.0	go	0.537	Go_X	1.0
532.067	1.0	go	0.544	Go_X	1.0
534.591	1.0	go	0.677	Go_O	1.0
537.115	1.0	go	0.768	Go_O	1.0
539.639	1.0	go	0.573	Go_X	1.0
542.164	0.6	stop	0.7	Go_X	0.0
544.688	1.0	go	0.89	Go_O	1.0
547.212	1.0	go	0.54	Go_X	1.0
549.736	0.55	stop	0.482	Go_O	0.0
552.26	1.0	go	0.559	Go_X	1.0
554.784	0.5	stop	0.0	Go_X	1.0
557.309	0.55	stop	0.538	Go_O	0.0
559.833	1.0	go	0.578	Go_O	1.0
562.357	1.0	go	0.622	Go_X	1.0
564.881	1.0	go	0.49	Go_O	1.0
567.405	1.0	go	0.67	Go_O	1.0
569.929	0.5	stop	0.663	Go_X	0.0
572.454	1.0	go	0.561	Go_X	1.0
574.978	0.45	stop	0.612	Go_O	0.0
577.502	1.0	go	0.618	Go_O	1.0
580.026	1.0	go	0.628	Go_X	1.0
582.55	1.0	go	0.792	Go_O	1.0
585.074	1.0	go	0.773	Go_X	1.0
587.599	1.0	go	0.659	Go_O	1.0
590.123	1.0	go	0.477	Go_X	1.0
592.647	1.0	go	0.45	Go_O	1.0
595.171	1.0	go	0.761	Go_X	1.0
597.695	1.0	go	0.579	Go_O	1.0
600.219	0.4	stop	0.597	Go_X	0.0
602.744	1.0	go	0.0	Go_X	0.0
605.268	1.0	go	0.497	Go_X	1.0
607.792	1.0	go	0.649	Go_O	1.0
610.316	0.35	stop	0.647	Go_O	0.0
612.84	1.0	go	0.571	Go_X	1.0
615.364	1.0	go	0.677	Go_O	1.0
617.888	1.0	go	0.579	Go_X	1.0
620.413	1.0	go	0.649	Go_O	1.0
622.937	1.0	go	0.703	Go_X	1.0
625.461	1.0	go	0.713	Go_O	1.0
627.985	0.3	stop	0.0	Go_X	1.0
630.509	1.0	go	0.509	Go_O	1.0
633.033	1.0	go	0.751	Go_X	1.0
635.558	0.35	stop	0.0	Go_O	1.0
638.082	1.0	go	0.524	Go_X	1.0
640.606	1.0	go	0.789	Go_O	1.0
643.13	0.4	stop	0.0	Go_X	1.0
645.654	1.0	go	0.711	Go_O	1.0
648.178	0.45	stop	0.0	Go_O	1.0
650.703	1.0	go	0.781	Go_X	1.0
653.227	1.0	go	0.972	Go_X	1.0
655.751	1.0	go	0.83	Go_O	1.0
658.275	1.0	go	0.675	Go_O	1.0
660.799	1.0	go	0.525	Go_X	1.0
663.323	0.5	stop	0.0	Go_X	1.0
665.848	0.55	stop	0.581	Go_O	0.0
668.372	1.0	go	0.636	Go_X	1.0
670.896	1.0	go	0.0	Go_O	0.0
673.42	0.5	stop	0.0	Go_X	1.0
675.944	1.0	go	0.564	Go_O	1.0
678.468	1.0	go	0.561	Go_X	1.0
680.992	1.0	go	0.597	Go_X	1.0
683.517	1.0	go	0.817	Go_O	1.0
686.041	1.0	go	0.521	Go_X	1.0
688.565	1.0	go	0.895	Go_O	1.0
691.089	0.55	stop	0.0	Go_O	1.0
693.613	1.0	go	0.574	Go_O	1.0
696.137	1.0	go	0.597	Go_X	1.0
698.662	1.0	go	0.433	Go_O	1.0
701.186	1.0	go	0.654	Go_X	1.0
703.71	1.0	go	0.676	Go_X	1.0
706.234	0.6	stop	0.873	Go_X	0.0
708.758	1.0	go	0.516	Go_O	1.0
711.282	1.0	go	0.567	Go_O	1.0
713.807	1.0	go	0.774	Go_X	1.0
716.331	1.0	go	0.645	Go_O	1.0
718.855	0.55	stop	0.713	Go_O	0.0
721.379	1.0	go	0.779	Go_X	1.0
723.903	1.0	go	0.643	Go_O	1.0
726.427	0.5	stop	0.571	Go_X	0.0
728.952	1.0	go	0.546	Go_X	1.0
731.476	0.45	stop	0.556	Go_O	0.0
734.0	1.0	go	0.566	Go_O	1.0
736.524	1.0	go	0.637	Go_X	1.0
739.048	1.0	go	0.561	Go_X	1.0
741.572	1.0	go	0.842	Go_O	1.0
744.097	1.0	go	0.648	Go_O	1.0
746.621	1.0	go	0.826	Go_X	1.0
749.145	1.0	go	0.951	Go_O	1.0
751.669	0.4	stop	0.0	Go_X	1.0
754.193	1.0	go	0.855	Go_X	1.0
756.717	1.0	go	0.599	Go_X	1.0
759.241	1.0	go	0.688	Go_O	1.0
761.766	0.45	stop	0.0	Go_O	1.0
764.29	1.0	go	0.774	Go_O	1.0
766.814	1.0	go	0.726	Go_X	1.0
769.338	1.0	go	0.821	Go_X	1.0
771.862	1.0	go	0.898	Go_O	1.0
774.386	0.5	stop	0.0	Go_X	1.0
776.911	1.0	go	0.503	Go_O	1.0
779.435	1.0	go	0.719	Go_X	1.0
781.959	0.55	stop	0.546	Go_O	0.0
784.483	1.0	go	0.661	Go_X	1.0
787.007	1.0	go	0.664	Go_O	1.0
789.531	0.5	stop	0.598	Go_X	0.0
792.056	1.0	go	0.564	Go_O	1.0
794.58	1.0	go	0.567	Go_X	1.0
797.104	0.45	stop	0.579	Go_O	0.0
799.628	1.0	go	0.576	Go_O	1.0
802.152	1.0	go	0.59	Go_X	1.0
804.676	1.0	go	0.712	Go_X	1.0
807.201	1.0	go	0.545	Go_O	1.0
809.725	1.0	go	0.656	Go_X	1.0
812.249	1.0	go	0.743	Go_O	1.0
814.773	0.4	stop	0.0	Go_X	1.0
817.297	1.0	go	0.548	Go_O	1.0
819.821	0.45	stop	0.0	Go_O	1.0
822.346	1.0	go	0.45	Go_X	1.0
824.87	1.0	go	0.753	Go_X	1.0
827.394	1.0	go	0.627	Go_O	1.0
829.918	1.0	go	0.584	Go_X	1.0
832.442	1.0	go	0.616	Go_O	1.0
834.966	0.5	stop	0.552	Go_X	0.0
837.49	1.0	go	0.688	Go_O	1.0
840.015	1.0	go	0.556	Go_X	1.0
842.539	1.0	go	0.617	Go_X	1.0
845.063	0.45	stop	0.453	Go_O	0.0
847.587	0.4	stop	0.365	Go_X	0.0
850.111	0.35	stop	0.0	Go_O	1.0
852.635	1.0	go	0.585	Go_O	1.0
855.16	0.4	stop	0.553	Go_X	0.0
857.684	1.0	go	0.802	Go_O	1.0
860.208	1.0	go	0.821	Go_X	1.0
862.732	1.0	go	0.843	Go_X	1.0
865.256	1.0	go	0.0	Go_O	0.0
867.78	1.0	go	0.625	Go_O	1.0
870.305	1.0	go	0.753	Go_X	1.0
872.829	1.0	go	0.404	Go_X	0.0
875.353	1.0	go	0.551	Go_O	1.0
877.877	0.35	stop	0.0	Go_O	1.0
880.401	1.0	go	0.542	Go_X	1.0
882.925	1.0	go	0.538	Go_O	1.0
885.45	0.4	stop	0.0	Go_X	1.0
887.974	1.0	go	0.882	Go_X	1.0
890.498	1.0	go	0.804	Go_O	1.0
893.022	1.0	go	0.566	Go_O	1.0
895.546	1.0	go	0.549	Go_X	1.0
898.07	1.0	go	0.511	Go_O	1.0
900.595	0.45	stop	0.66	Go_O	0.0
903.119	1.0	go	0.765	Go_X	1.0
905.643	1.0	go	0.639	Go_O	1.0
908.167	1.0	go	0.73	Go_X	1.0
910.691	0.4	stop	0.0	Go_X	1.0
913.215	1.0	go	0.482	Go_O	1.0
915.739	0.45	stop	0.618	Go_O	0.0
918.264	1.0	go	0.723	Go_X	1.0
920.788	1.0	go	0.6	Go_O	1.0
923.312	1.0	go	0.762	Go_X	1.0
925.836	1.0	go	0.0	Go_O	0.0
928.36	1.0	go	0.608	Go_X	1.0
930.884	1.0	go	0.579	Go_O	1.0
933.409	1.0	go	0.599	Go_X	1.0
935.933	0.4	stop	0.0	Go_X	1.0
938.457	1.0	go	0.548	Go_O	1.0
940.981	1.0	go	0.692	Go_X	1.0
943.505	1.0	go	0.612	Go_X	1.0
946.029	1.0	go	0.695	Go_O	1.0
948.554	0.45	stop	0.622	Go_O	0.0
951.078	1.0	go	0.846	Go_O	1.0
953.602	0.4	stop	0.0	Go_X	1.0
956.126	1.0	go	0.628	Go_X	1.0
958.65	1.0	go	0.0	Go_O	0.0
961.174	0.45	stop	0.595	Go_O	0.0
963.699	1.0	go	0.643	Go_X	1.0
966.223	1.0	go	0.839	Go_O	1.0
968.747	1.0	go	0.919	Go_X	1.0
971.271	1.0	go	0.78	Go_X	1.0
973.795	1.0	go	0.699	Go_O	1.0
976.319	1.0	go	0.682	Go_X	1.0
978.844	1.0	go	0.488	Go_O	1.0
981.368	1.0	go	0.667	Go_X	1.0
983.892	1.0	go	0.63	Go_O	1.0
986.416	1.0	go	0.702	Go_X	1.0
988.94	0.4	stop	0.0	Go_X	1.0
991.464	1.0	go	0.63	Go_O	1.0
993.988	1.0	go	0.547	Go_X	1.0
996.513	0.45	stop	0.517	Go_O	0.0
999.037	1.0	go	0.84	Go_O	1.0
1001.561	0.4	stop	0.0	Go_X	1.0
1004.085	1.0	go	0.574	Go_O	1.0
1006.609	1.0	go	0.723	Go_X	1.0
1009.133	0.45	stop	0.0	Go_O	1.0
1011.658	1.0	go	0.566	Go_O	1.0
1014.182	0.5	stop	0.0	Go_X	1.0
1016.706	1.0	go	0.877	Go_X	1.0
1019.23	1.0	go	0.507	Go_O	1.0
1021.754	1.0	go	0.588	Go_X	1.0
1024.278	0.55	stop	0.675	Go_O	0.0
1026.803	1.0	go	0.611	Go_X	1.0
1029.327	1.0	go	0.619	Go_O	1.0
1031.851	1.0	go	0.703	Go_X	1.0
1034.375	1.0	go	0.0	Go_O	0.0
1036.899	0.5	stop	0.0	Go_X	1.0
1039.423	1.0	go	0.487	Go_X	1.0
1041.948	1.0	go	0.545	Go_O	1.0
1044.472	0.55	stop	0.658	Go_O	0.0
1046.996	1.0	go	0.52	Go_O	1.0
1049.52	1.0	go	0.774	Go_X	1.0
1052.044	1.0	go	0.0	Go_X	0.0
1054.568	1.0	go	0.664	Go_O	1.0
1057.092	0.5	stop	0.558	Go_X	0.0
1059.617	1.0	go	0.667	Go_O	1.0
1062.141	0.45	stop	0.0	Go_O	1.0
1064.665	1.0	go	0.957	Go_X	1.0
1067.189	1.0	go	0.816	Go_X	1.0
1069.713	0.5	stop	0.0	Go_X	1.0
1072.237	1.0	go	0.531	Go_O	1.0
1074.762	1.0	go	0.578	Go_X	1.0
1077.286	1.0	go	0.798	Go_O	1.0
1079.81	1.0	go	0.84	Go_X	1.0
1082.334	0.55	stop	0.0	Go_O	1.0
1084.858	1.0	go	0.764	Go_O	1.0
1087.382	0.6	stop	0.0	Go_X	1.0
1089.907	1.0	go	0.981	Go_O	1.0
1092.431	1.0	go	0.577	Go_X	1.0
1094.955	1.0	go	0.659	Go_O	1.0
1097.479	1.0	go	0.56	Go_X	1.0
1100.003	1.0	go	0.0	Go_O	0.0
1102.527	1.0	go	0.611	Go_X	1.0
1105.052	0.65	stop	0.371	Go_O	0.0
1107.576	1.0	go	0.417	Go_X	1.0
1110.1	1.0	go	0.514	Go_O	1.0
1112.624	0.6	stop	0.635	Go_X	0.0
1115.165	1.0	go	0.477	Go_X	1.0
1117.689	1.0	go	0.924	Go_O	1.0
1120.213	0.55	stop	0.763	Go_O	0.0
1122.737	1.0	go	0.0	Go_O	0.0
1125.262	1.0	go	0.617	Go_X	1.0
1127.786	1.0	go	0.0	Go_O	0.0
1130.31	1.0	go	0.794	Go_X	1.0
1132.834	0.5	stop	0.596	Go_X	0.0
1135.358	1.0	go	0.81	Go_X	1.0
1137.882	0.45	stop	0.565	Go_O	0.0
1140.407	1.0	go	0.67	Go_O	1.0
1142.931	1.0	go	0.5	Go_X	1.0
1145.455	1.0	go	0.546	Go_O	1.0
1147.979	1.0	go	0.574	Go_X	1.0
1150.503	1.0	go	0.764	Go_O	1.0
1153.027	0.4	stop	0.417	Go_X	0.0
1155.551	1.0	go	0.562	Go_O	1.0
1158.076	1.0	go	0.941	Go_X	1.0
1160.6	0.35	stop	0.686	Go_O	0.0
1163.124	0.3	stop	0.0	Go_X	1.0
1165.648	1.0	go	0.528	Go_O	1.0
1168.172	1.0	go	0.613	Go_X	1.0
1170.696	1.0	go	0.0	Go_O	0.0
1173.221	1.0	go	0.877	Go_X	1.0
1175.745	0.35	stop	0.0	Go_O	1.0
1178.269	1.0	go	0.55	Go_O	1.0
