onset	duration	trial_type	response_time	stim_file	accuracy
56.742	1.0	go	0.981	Go_X	1.0
59.267	1.0	go	0.689	Go_O	1.0
61.791	1.0	go	0.377	Go_X	1.0
64.315	1.0	go	0.51	Go_O	1.0
66.839	1.0	go	0.387	Go_X	1.0
69.363	1.0	go	0.506	Go_O	1.0
71.887	0.25	stopsuccess	0.0	Go_O	1.0
74.412	1.0	go	0.446	Go_O	1.0
76.936	0.3	stopfail	0.339	Go_X	0.0
79.46	1.0	go	0.593	Go_X	1.0
81.984	1.0	go	0.318	Go_O	1.0
84.508	1.0	go	0.716	Go_X	1.0
87.032	0.25	stopfail	0.361	Go_O	0.0
89.557	1.0	go	0.819	Go_O	1.0
92.081	1.0	go	0.508	Go_X	1.0
94.605	0.2	stopsuccess	0.0	Go_X	1.0
97.129	0.25	stopfail	0.357	Go_O	0.0
99.653	1.0	go	0.376	Go_X	1.0
102.177	1.0	go	0.397	Go_O	1.0
104.701	0.2	stopsuccess	0.0	Go_X	1.0
107.226	1.0	go	0.323	Go_X	1.0
109.75	1.0	go	0.481	Go_O	1.0
112.274	0.25	stopsuccess	0.0	Go_O	1.0
114.798	1.0	go	0.56	Go_X	1.0
117.322	1.0	go	0.354	Go_O	1.0
119.846	0.3	stopsuccess	0.0	Go_X	1.0
122.371	1.0	go	0.386	Go_O	1.0
124.895	1.0	go	0.63	Go_X	1.0
127.419	0.35	stopsuccess	0.0	Go_O	1.0
129.943	1.0	go	0.441	Go_X	1.0
132.467	1.0	go	0.584	Go_O	1.0
134.991	1.0	go	0.683	Go_X	1.0
137.516	1.0	go	0.742	Go_O	1.0
140.04	1.0	go	0.366	Go_O	1.0
142.564	0.4	stopfail	0.361	Go_X	0.0
145.088	1.0	go	0.562	Go_X	1.0
147.612	1.0	go	0.377	Go_X	1.0
150.136	1.0	go	0.927	Go_O	1.0
152.661	1.0	go	0.0	Go_O	0.0
155.185	1.0	go	0.461	Go_X	1.0
157.709	0.35	stopfail	0.389	Go_O	0.0
160.233	1.0	go	0.489	Go_O	1.0
162.757	1.0	go	0.446	Go_X	1.0
165.281	1.0	go	0.316	Go_X	1.0
167.806	1.0	go	0.385	Go_O	1.0
170.33	1.0	go	0.876	Go_X	1.0
172.854	1.0	go	0.499	Go_O	1.0
175.378	0.3	stopfail	0.334	Go_X	0.0
177.902	1.0	go	0.437	Go_X	1.0
180.426	1.0	go	0.366	Go_O	1.0
182.95	0.25	stopsuccess	0.0	Go_O	1.0
185.475	1.0	go	0.313	Go_X	1.0
187.999	0.3	stopfail	0.287	Go_X	0.0
190.523	0.25	stopfail	0.396	Go_O	0.0
193.047	1.0	go	0.607	Go_O	1.0
195.571	1.0	go	0.474	Go_O	1.0
198.095	1.0	go	0.362	Go_X	1.0
200.62	1.0	go	0.472	Go_O	1.0
203.144	0.2	stopsuccess	0.0	Go_X	1.0
205.668	1.0	go	0.449	Go_X	1.0
208.192	0.25	stopfail	0.549	Go_O	0.0
210.716	1.0	go	0.424	Go_O	1.0
213.24	1.0	go	0.454	Go_X	1.0
215.765	1.0	go	0.446	Go_X	1.0
218.289	1.0	go	0.911	Go_O	1.0
220.813	1.0	go	0.458	Go_X	1.0
223.337	1.0	go	0.844	Go_O	1.0
225.861	1.0	go	0.412	Go_O	1.0
228.385	1.0	go	0.493	Go_X	1.0
230.91	1.0	go	0.615	Go_X	1.0
233.434	0.2	stopsuccess	0.0	Go_X	1.0
235.958	1.0	go	0.448	Go_O	1.0
238.482	1.0	go	0.5	Go_X	1.0
241.006	1.0	go	0.422	Go_O	1.0
243.53	0.25	stopsuccess	0.0	Go_O	1.0
246.055	1.0	go	0.502	Go_O	1.0
248.579	1.0	go	0.38	Go_X	1.0
251.103	1.0	go	0.528	Go_O	1.0
253.627	1.0	go	0.388	Go_X	1.0
256.151	1.0	go	0.4	Go_O	1.0
258.675	1.0	go	0.535	Go_X	1.0
261.199	0.3	stopsuccess	0.0	Go_X	1.0
263.724	1.0	go	0.563	Go_O	1.0
266.248	1.0	go	0.563	Go_X	1.0
268.772	0.35	stopfail	0.322	Go_O	0.0
271.296	1.0	go	0.345	Go_X	1.0
273.82	1.0	go	0.453	Go_O	1.0
276.344	0.3	stopfail	0.848	Go_X	0.0
278.869	1.0	go	0.417	Go_X	1.0
281.393	0.25	stopsuccess	0.0	Go_O	1.0
283.917	1.0	go	0.633	Go_O	1.0
286.441	1.0	go	0.472	Go_X	1.0
288.965	1.0	go	0.297	Go_O	1.0
291.489	1.0	go	0.388	Go_X	1.0
294.014	1.0	go	0.85	Go_O	1.0
296.538	0.3	stopfail	0.385	Go_X	0.0
299.062	0.25	stopfail	0.389	Go_O	0.0
301.586	1.0	go	0.392	Go_X	1.0
304.11	1.0	go	0.379	Go_O	1.0
306.634	0.2	stopsuccess	0.0	Go_X	1.0
309.159	1.0	go	0.0	Go_X	0.0
311.683	1.0	go	0.267	Go_O	1.0
314.207	1.0	go	0.307	Go_X	1.0
316.731	1.0	go	0.284	Go_O	1.0
319.255	1.0	go	0.274	Go_O	0.0
321.779	1.0	go	0.564	Go_X	1.0
324.304	0.25	stopsuccess	0.0	Go_O	1.0
326.828	1.0	go	0.774	Go_O	1.0
329.352	1.0	go	0.355	Go_X	1.0
331.876	1.0	go	0.59	Go_O	1.0
334.4	1.0	go	0.349	Go_X	1.0
336.924	1.0	go	0.469	Go_O	1.0
339.448	0.3	stopsuccess	0.0	Go_X	1.0
341.973	1.0	go	0.385	Go_X	1.0
344.497	1.0	go	0.436	Go_X	1.0
347.021	1.0	go	0.0	Go_O	0.0
349.545	1.0	go	0.0	Go_X	0.0
352.069	0.35	stopsuccess	0.0	Go_O	1.0
354.593	1.0	go	0.543	Go_O	1.0
357.118	1.0	go	0.489	Go_O	1.0
359.642	0.4	stopfail	0.326	Go_X	0.0
362.166	1.0	go	0.442	Go_X	1.0
364.69	0.35	stopfail	0.635	Go_O	0.0
367.214	1.0	go	0.243	Go_O	0.0
369.738	1.0	go	0.413	Go_X	1.0
372.263	1.0	go	0.429	Go_O	1.0
374.787	1.0	go	0.0	Go_X	0.0
377.311	1.0	go	0.345	Go_X	1.0
379.835	1.0	go	0.428	Go_O	1.0
382.359	1.0	go	0.953	Go_X	1.0
384.883	0.3	stopfail	0.469	Go_X	0.0
387.408	1.0	go	0.276	Go_O	1.0
389.932	1.0	go	0.452	Go_O	1.0
392.456	1.0	go	0.57	Go_X	0.0
394.98	0.25	stopsuccess	0.0	Go_O	1.0
397.504	1.0	go	0.527	Go_X	1.0
400.028	1.0	go	0.263	Go_O	1.0
402.552	1.0	go	0.613	Go_X	1.0
405.077	1.0	go	0.0	Go_O	0.0
407.601	0.3	stopsuccess	0.0	Go_X	1.0
410.125	1.0	go	0.543	Go_O	1.0
412.649	1.0	go	0.313	Go_X	1.0
415.173	0.35	stopfail	0.593	Go_O	0.0
417.697	1.0	go	0.382	Go_X	1.0
420.222	1.0	go	0.383	Go_O	1.0
422.746	0.3	stopfail	0.464	Go_X	0.0
425.27	1.0	go	0.0	Go_O	0.0
427.794	1.0	go	0.0	Go_X	0.0
430.318	0.25	stopsuccess	0.0	Go_O	1.0
432.842	1.0	go	0.517	Go_X	1.0
435.367	1.0	go	0.27	Go_O	1.0
437.891	1.0	go	0.351	Go_X	1.0
440.415	1.0	go	0.657	Go_O	1.0
442.939	1.0	go	0.822	Go_X	1.0
445.463	1.0	go	0.961	Go_O	1.0
447.987	0.3	stopfail	0.312	Go_X	0.0
450.512	1.0	go	0.62	Go_O	1.0
453.036	0.25	stopfail	0.339	Go_O	0.0
455.56	1.0	go	0.0	Go_X	0.0
458.084	1.0	go	0.0	Go_O	0.0
460.608	1.0	go	0.435	Go_X	1.0
463.132	1.0	go	0.56	Go_X	1.0
465.657	1.0	go	0.0	Go_O	0.0
468.181	0.2	stopsuccess	0.0	Go_X	1.0
470.705	1.0	go	0.502	Go_O	1.0
473.229	1.0	go	0.767	Go_X	1.0
475.753	1.0	go	0.0	Go_O	0.0
478.277	0.25	stopsuccess	0.0	Go_O	1.0
480.801	0.3	stopsuccess	0.0	Go_X	1.0
483.326	0.35	stopfail	0.276	Go_O	0.0
485.85	1.0	go	0.479	Go_X	1.0
488.374	0.3	stopfail	0.449	Go_X	0.0
490.898	1.0	go	0.0	Go_O	0.0
493.422	1.0	go	0.0	Go_X	0.0
495.946	1.0	go	0.917	Go_O	1.0
498.471	1.0	go	0.303	Go_X	1.0
500.995	1.0	go	0.485	Go_O	1.0
503.519	1.0	go	0.0	Go_X	0.0
506.043	1.0	go	0.0	Go_O	0.0
508.567	1.0	go	0.71	Go_X	0.0
511.091	0.25	stopsuccess	0.0	Go_O	1.0
513.616	1.0	go	0.254	Go_X	1.0
516.14	1.0	go	0.314	Go_O	1.0
518.664	0.3	stopsuccess	0.0	Go_X	1.0
521.188	1.0	go	0.0	Go_X	0.0
523.712	1.0	go	0.404	Go_O	1.0
526.236	1.0	go	0.582	Go_X	1.0
528.761	1.0	go	0.0	Go_O	0.0
531.285	1.0	go	0.0	Go_O	0.0
533.809	0.35	stopsuccess	0.0	Go_O	1.0
536.333	1.0	go	0.0	Go_X	0.0
538.857	1.0	go	0.0	Go_O	0.0
541.381	1.0	go	0.419	Go_X	1.0
543.905	0.4	stopfail	0.358	Go_X	0.0
546.43	1.0	go	0.0	Go_X	0.0
548.954	0.35	stopsuccess	0.0	Go_O	1.0
551.478	1.0	go	0.0	Go_O	0.0
554.002	1.0	go	0.519	Go_O	1.0
556.526	1.0	go	0.538	Go_X	1.0
559.05	1.0	go	0.561	Go_O	1.0
561.575	1.0	go	0.0	Go_X	0.0
564.099	1.0	go	0.0	Go_O	0.0
566.623	1.0	go	0.0	Go_X	0.0
569.147	0.4	stopsuccess	0.0	Go_X	1.0
571.671	1.0	go	0.0	Go_X	0.0
574.195	1.0	go	0.0	Go_O	0.0
576.72	1.0	go	0.444	Go_X	1.0
579.244	1.0	go	0.52	Go_O	1.0
581.768	0.45	stopfail	0.537	Go_O	0.0
584.292	1.0	go	0.476	Go_O	1.0
586.816	0.4	stopfail	0.621	Go_X	0.0
589.34	1.0	go	0.529	Go_X	1.0
591.865	1.0	go	0.264	Go_X	0.0
594.389	0.35	stopsuccess	0.0	Go_O	1.0
596.913	1.0	go	0.0	Go_O	0.0
599.437	1.0	go	0.0	Go_O	0.0
601.961	1.0	go	0.0	Go_X	0.0
604.485	1.0	go	0.407	Go_O	1.0
607.01	1.0	go	0.0	Go_X	0.0
609.534	1.0	go	0.0	Go_O	0.0
612.058	1.0	go	0.0	Go_X	0.0
614.582	1.0	go	0.0	Go_O	0.0
617.106	1.0	go	0.0	Go_X	0.0
619.63	1.0	go	0.0	Go_O	0.0
622.154	0.4	stopsuccess	0.0	Go_X	1.0
624.679	1.0	go	0.0	Go_X	0.0
627.203	1.0	go	0.0	Go_X	0.0
629.727	0.45	stopsuccess	0.0	Go_O	1.0
632.251	1.0	go	0.535	Go_O	1.0
634.775	0.5	stopfail	0.388	Go_X	0.0
637.299	1.0	go	0.691	Go_X	1.0
639.824	1.0	go	0.0	Go_O	0.0
642.348	0.45	stopsuccess	0.0	Go_O	1.0
644.872	1.0	go	0.0	Go_O	0.0
647.396	0.5	stopfail	0.29	Go_X	0.0
649.92	1.0	go	0.516	Go_X	1.0
652.444	1.0	go	0.0	Go_O	0.0
654.969	1.0	go	0.0	Go_X	0.0
657.493	0.45	stopsuccess	0.0	Go_O	1.0
660.017	1.0	go	0.0	Go_X	0.0
662.541	1.0	go	0.53	Go_O	1.0
665.065	1.0	go	0.484	Go_X	1.0
667.589	1.0	go	0.0	Go_O	0.0
670.114	0.5	stopsuccess	0.0	Go_X	1.0
672.638	1.0	go	0.461	Go_O	1.0
675.162	1.0	go	0.414	Go_X	1.0
677.686	0.55	stopsuccess	0.0	Go_O	1.0
680.21	1.0	go	0.0	Go_O	0.0
682.734	1.0	go	0.0	Go_X	0.0
685.259	1.0	go	0.0	Go_X	0.0
687.783	1.0	go	0.0	Go_O	0.0
690.307	0.6	stopsuccess	0.0	Go_X	1.0
692.831	1.0	go	0.0	Go_O	0.0
695.355	0.65	stopsuccess	0.0	Go_O	1.0
697.879	1.0	go	0.0	Go_X	0.0
700.403	1.0	go	0.0	Go_O	0.0
702.928	0.7	stopsuccess	0.0	Go_X	1.0
705.452	1.0	go	0.906	Go_X	1.0
707.976	1.0	go	0.0	Go_O	0.0
710.5	1.0	go	0.0	Go_X	0.0
713.024	1.0	go	0.0	Go_X	0.0
715.548	0.75	stopfail	0.655	Go_O	0.0
718.073	1.0	go	0.704	Go_O	1.0
720.597	0.7	stopfail	0.384	Go_X	0.0
723.121	1.0	go	0.0	Go_X	0.0
725.645	1.0	go	0.0	Go_O	0.0
728.169	1.0	go	0.0	Go_O	0.0
730.693	1.0	go	0.0	Go_X	0.0
733.218	1.0	go	0.311	Go_O	1.0
735.742	1.0	go	0.353	Go_X	1.0
738.266	0.65	stopsuccess	0.0	Go_O	1.0
740.79	1.0	go	0.0	Go_O	0.0
743.314	1.0	go	0.524	Go_X	1.0
745.838	0.7	stopfail	0.465	Go_X	0.0
748.363	1.0	go	0.0	Go_X	0.0
750.887	1.0	go	0.0	Go_O	0.0
753.411	0.65	stopsuccess	0.0	Go_O	1.0
755.935	1.0	go	0.699	Go_O	1.0
758.459	1.0	go	0.384	Go_X	1.0
760.983	1.0	go	0.0	Go_X	0.0
763.508	1.0	go	0.0	Go_O	0.0
766.032	0.7	stopsuccess	0.0	Go_X	1.0
768.556	1.0	go	0.0	Go_O	0.0
771.08	0.75	stopsuccess	0.0	Go_O	1.0
773.604	1.0	go	0.0	Go_X	0.0
776.128	1.0	go	0.0	Go_O	0.0
778.652	1.0	go	0.0	Go_X	0.0
781.177	1.0	go	0.0	Go_X	0.0
783.701	1.0	go	0.0	Go_O	0.0
786.225	0.8	stopsuccess	0.0	Go_X	1.0
788.749	1.0	go	0.0	Go_O	0.0
791.273	1.0	go	0.502	Go_X	1.0
793.797	0.85	stopfail	0.48	Go_O	0.0
796.322	0.8	stopfail	0.905	Go_X	0.0
798.846	1.0	go	0.673	Go_X	1.0
801.37	1.0	go	0.0	Go_O	0.0
803.894	1.0	go	0.0	Go_X	0.0
806.418	1.0	go	0.0	Go_O	0.0
808.942	0.75	stopsuccess	0.0	Go_O	1.0
811.467	1.0	go	0.31	Go_X	1.0
