onset	duration	trial_type	response_time	stim_file	accuracy
55.797	1.0	go	0.0	Go_O	0.0
58.33	1.0	go	0.538	Go_X	1.0
60.864	1.0	go	0.537	Go_X	1.0
63.397	1.0	go	0.807	Go_O	1.0
65.93	1.0	go	0.658	Go_O	1.0
68.463	1.0	go	0.698	Go_X	1.0
70.997	0.25	stopsuccess	0.0	Go_O	1.0
73.53	1.0	go	0.405	Go_O	1.0
76.063	0.3	stopfail	0.46	Go_X	0.0
78.596	1.0	go	0.452	Go_X	1.0
81.13	1.0	go	0.595	Go_O	1.0
83.663	1.0	go	0.587	Go_X	1.0
86.196	0.25	stopsuccess	0.0	Go_O	1.0
88.729	1.0	go	0.511	Go_O	1.0
91.263	1.0	go	0.513	Go_X	1.0
93.796	0.3	stopsuccess	0.0	Go_X	1.0
96.329	0.35	stopfail	0.537	Go_O	0.0
98.862	1.0	go	0.451	Go_X	1.0
101.396	1.0	go	0.583	Go_O	1.0
103.929	0.3	stopfail	0.427	Go_X	0.0
106.462	1.0	go	0.539	Go_X	1.0
108.995	1.0	go	0.569	Go_O	1.0
111.529	0.25	stopsuccess	0.0	Go_O	1.0
114.078	1.0	go	0.826	Go_X	1.0
116.612	1.0	go	0.444	Go_O	1.0
119.145	0.3	stopfail	0.435	Go_X	0.0
121.678	1.0	go	0.509	Go_X	1.0
124.211	1.0	go	0.656	Go_O	1.0
126.745	0.25	stopsuccess	0.0	Go_O	1.0
129.278	1.0	go	0.409	Go_O	1.0
131.811	1.0	go	0.735	Go_X	1.0
134.344	1.0	go	0.528	Go_X	1.0
136.878	1.0	go	0.673	Go_O	1.0
139.411	1.0	go	0.619	Go_O	1.0
141.944	0.3	stopfail	0.423	Go_X	0.0
144.477	1.0	go	0.571	Go_X	1.0
147.011	1.0	go	0.346	Go_X	1.0
149.544	1.0	go	0.775	Go_O	1.0
152.077	1.0	go	0.602	Go_X	1.0
154.61	1.0	go	0.583	Go_O	1.0
157.144	0.25	stopsuccess	0.0	Go_O	1.0
159.677	1.0	go	0.584	Go_O	1.0
162.21	1.0	go	0.487	Go_X	1.0
164.743	1.0	go	0.482	Go_X	1.0
167.277	1.0	go	0.621	Go_O	1.0
169.826	1.0	go	0.483	Go_X	1.0
172.36	1.0	go	0.418	Go_O	1.0
174.893	0.3	stopsuccess	0.0	Go_X	1.0
177.426	1.0	go	0.587	Go_X	1.0
179.959	1.0	go	0.397	Go_O	1.0
182.493	0.35	stopfail	0.469	Go_O	0.0
185.026	1.0	go	0.457	Go_O	1.0
187.559	0.3	stopfail	0.413	Go_X	0.0
190.092	0.25	stopfail	0.378	Go_O	0.0
192.626	1.0	go	0.533	Go_X	1.0
195.159	1.0	go	0.449	Go_O	1.0
197.692	1.0	go	0.265	Go_X	1.0
200.225	1.0	go	0.56	Go_O	1.0
202.759	0.2	stopsuccess	0.0	Go_X	1.0
205.292	1.0	go	0.571	Go_X	1.0
207.825	0.25	stopsuccess	0.0	Go_O	1.0
210.358	1.0	go	0.526	Go_O	1.0
212.892	1.0	go	0.464	Go_X	1.0
215.425	1.0	go	0.541	Go_X	1.0
217.958	1.0	go	0.427	Go_O	1.0
220.491	1.0	go	0.473	Go_X	1.0
223.025	1.0	go	0.508	Go_O	1.0
225.558	1.0	go	0.656	Go_O	0.0
228.091	1.0	go	0.487	Go_X	1.0
230.624	1.0	go	0.39	Go_X	1.0
233.158	0.3	stopsuccess	0.0	Go_X	1.0
235.707	1.0	go	0.438	Go_O	1.0
238.241	1.0	go	0.404	Go_O	1.0
240.774	1.0	go	0.591	Go_X	1.0
243.307	0.35	stopfail	0.464	Go_O	0.0
245.84	1.0	go	0.662	Go_X	1.0
248.374	1.0	go	0.54	Go_O	1.0
250.907	1.0	go	0.472	Go_O	1.0
253.44	1.0	go	0.667	Go_X	1.0
255.973	1.0	go	0.595	Go_X	1.0
258.507	1.0	go	0.486	Go_O	1.0
261.04	0.3	stopsuccess	0.0	Go_X	1.0
263.573	1.0	go	0.476	Go_O	1.0
266.106	1.0	go	0.594	Go_X	1.0
268.64	0.35	stopsuccess	0.0	Go_O	1.0
271.173	1.0	go	0.724	Go_O	1.0
273.706	1.0	go	0.955	Go_X	1.0
276.239	0.4	stopsuccess	0.0	Go_X	1.0
278.773	1.0	go	0.781	Go_O	1.0
281.306	0.45	stopsuccess	0.0	Go_O	1.0
283.839	1.0	go	0.631	Go_X	1.0
286.372	1.0	go	0.762	Go_O	1.0
288.906	1.0	go	0.58	Go_X	1.0
291.455	1.0	go	0.787	Go_X	1.0
293.989	1.0	go	0.72	Go_O	1.0
296.522	0.5	stopfail	0.729	Go_X	0.0
299.055	0.45	stopfail	0.546	Go_O	0.0
301.588	1.0	go	0.601	Go_O	1.0
304.122	1.0	go	0.548	Go_X	1.0
306.655	0.4	stopsuccess	0.0	Go_X	1.0
309.188	1.0	go	0.0	Go_X	0.0
311.721	1.0	go	0.543	Go_O	1.0
314.255	1.0	go	0.862	Go_O	1.0
316.788	1.0	go	0.758	Go_X	1.0
319.321	1.0	go	0.824	Go_X	1.0
321.854	1.0	go	0.841	Go_O	1.0
324.388	0.45	stopsuccess	0.0	Go_O	1.0
326.921	1.0	go	0.601	Go_O	1.0
329.454	1.0	go	0.518	Go_X	1.0
331.987	1.0	go	0.52	Go_O	1.0
334.521	1.0	go	0.417	Go_X	1.0
337.054	1.0	go	0.43	Go_X	1.0
339.587	0.5	stopfail	0.437	Go_X	0.0
342.12	1.0	go	0.522	Go_O	1.0
344.654	1.0	go	0.717	Go_X	1.0
347.203	1.0	go	0.571	Go_O	1.0
349.737	1.0	go	0.602	Go_O	1.0
352.27	0.45	stopfail	0.457	Go_O	0.0
354.803	1.0	go	0.568	Go_X	1.0
357.336	1.0	go	0.431	Go_O	1.0
359.87	0.4	stopfail	0.436	Go_X	0.0
362.403	1.0	go	0.557	Go_X	1.0
364.936	0.35	stopsuccess	0.0	Go_O	1.0
367.469	1.0	go	0.439	Go_O	1.0
370.003	1.0	go	0.49	Go_X	1.0
372.536	1.0	go	0.362	Go_X	1.0
375.069	1.0	go	0.63	Go_O	1.0
377.602	1.0	go	0.465	Go_X	1.0
380.136	1.0	go	0.46	Go_O	1.0
382.669	1.0	go	0.4	Go_X	1.0
385.202	0.4	stopfail	0.431	Go_X	0.0
387.735	1.0	go	0.439	Go_O	1.0
390.269	1.0	go	0.442	Go_X	1.0
392.802	1.0	go	0.415	Go_O	1.0
395.335	0.35	stopsuccess	0.0	Go_O	1.0
397.868	1.0	go	0.279	Go_O	1.0
400.402	1.0	go	0.689	Go_X	1.0
402.935	1.0	go	0.837	Go_X	1.0
405.468	1.0	go	0.726	Go_O	1.0
408.001	0.4	stopfail	0.52	Go_X	0.0
410.535	1.0	go	0.474	Go_X	1.0
413.084	1.0	go	0.824	Go_O	1.0
415.618	0.35	stopsuccess	0.0	Go_O	1.0
418.151	1.0	go	0.349	Go_X	1.0
420.684	1.0	go	0.579	Go_O	1.0
423.217	0.4	stopfail	0.497	Go_X	0.0
425.751	1.0	go	0.509	Go_X	1.0
428.284	1.0	go	0.537	Go_O	1.0
430.817	0.35	stopfail	0.612	Go_O	0.0
433.35	1.0	go	0.417	Go_X	1.0
435.884	1.0	go	0.538	Go_O	1.0
438.417	1.0	go	0.528	Go_O	1.0
440.95	1.0	go	0.787	Go_X	1.0
443.483	1.0	go	0.802	Go_O	1.0
446.017	1.0	go	0.792	Go_X	1.0
448.55	0.3	stopsuccess	0.0	Go_X	1.0
451.083	1.0	go	0.855	Go_X	1.0
453.616	0.35	stopsuccess	0.0	Go_O	1.0
456.15	1.0	go	0.946	Go_O	1.0
458.683	1.0	go	0.0	Go_O	0.0
461.216	1.0	go	0.0	Go_X	0.0
463.749	1.0	go	0.716	Go_X	1.0
466.283	1.0	go	0.899	Go_O	1.0
468.816	0.4	stopsuccess	0.0	Go_X	1.0
471.349	1.0	go	0.752	Go_X	1.0
473.882	1.0	go	0.732	Go_O	1.0
476.416	1.0	go	0.829	Go_O	1.0
478.965	0.45	stopsuccess	0.0	Go_O	1.0
481.499	0.5	stopsuccess	0.0	Go_X	1.0
484.032	0.55	stopsuccess	0.0	Go_O	1.0
486.565	1.0	go	0.486	Go_X	1.0
489.098	0.6	stopfail	0.448	Go_X	0.0
491.632	1.0	go	0.37	Go_O	1.0
494.165	1.0	go	0.458	Go_X	1.0
496.698	1.0	go	0.444	Go_X	1.0
499.231	1.0	go	0.552	Go_O	1.0
501.765	1.0	go	0.455	Go_O	1.0
504.298	1.0	go	0.422	Go_X	1.0
506.831	1.0	go	0.587	Go_X	1.0
509.364	1.0	go	0.593	Go_O	1.0
511.898	0.55	stopfail	0.67	Go_O	0.0
514.431	1.0	go	0.768	Go_O	1.0
516.964	1.0	go	0.776	Go_X	1.0
519.497	0.5	stopfail	0.557	Go_X	0.0
522.031	1.0	go	0.592	Go_O	1.0
524.564	1.0	go	0.559	Go_X	1.0
527.097	1.0	go	0.595	Go_O	1.0
529.63	1.0	go	0.432	Go_X	1.0
532.164	1.0	go	0.647	Go_O	1.0
534.713	0.45	stopsuccess	0.0	Go_O	1.0
537.247	1.0	go	0.447	Go_X	1.0
539.78	1.0	go	0.576	Go_X	1.0
542.313	1.0	go	0.486	Go_O	1.0
544.846	0.5	stopfail	0.452	Go_X	0.0
547.38	1.0	go	0.523	Go_X	1.0
549.913	0.45	stopfail	0.549	Go_O	0.0
552.446	1.0	go	0.443	Go_O	1.0
554.979	1.0	go	0.401	Go_O	1.0
557.513	1.0	go	0.572	Go_X	1.0
560.046	1.0	go	0.576	Go_O	1.0
562.579	1.0	go	0.642	Go_X	1.0
565.112	1.0	go	0.689	Go_O	1.0
567.646	1.0	go	0.572	Go_X	1.0
570.179	0.4	stopsuccess	0.0	Go_X	1.0
572.712	1.0	go	0.548	Go_O	1.0
575.245	1.0	go	0.332	Go_X	1.0
577.779	1.0	go	0.44	Go_X	1.0
580.312	1.0	go	0.475	Go_O	1.0
582.845	0.45	stopfail	0.461	Go_O	0.0
585.378	1.0	go	0.47	Go_O	1.0
587.912	0.4	stopfail	0.491	Go_X	0.0
590.461	1.0	go	0.584	Go_X	1.0
592.995	1.0	go	0.448	Go_X	1.0
595.528	0.35	stopfail	0.586	Go_O	0.0
598.061	1.0	go	0.515	Go_O	1.0
600.594	1.0	go	0.406	Go_O	1.0
603.128	1.0	go	0.843	Go_X	1.0
605.661	1.0	go	0.424	Go_O	1.0
608.194	1.0	go	0.514	Go_X	1.0
610.727	1.0	go	0.838	Go_O	1.0
613.261	1.0	go	0.387	Go_X	1.0
615.794	1.0	go	0.158	Go_O	1.0
618.327	1.0	go	0.608	Go_X	1.0
620.86	1.0	go	0.376	Go_O	1.0
623.394	0.3	stopfail	0.206	Go_X	0.0
625.927	1.0	go	0.727	Go_X	1.0
628.46	1.0	go	0.55	Go_X	1.0
630.993	0.25	stopsuccess	0.0	Go_O	1.0
633.527	1.0	go	0.839	Go_O	1.0
636.06	0.3	stopfail	0.433	Go_X	0.0
638.593	1.0	go	0.441	Go_O	1.0
641.126	1.0	go	0.377	Go_X	1.0
643.66	0.25	stopsuccess	0.0	Go_O	1.0
646.193	1.0	go	0.549	Go_X	1.0
648.726	0.3	stopfail	0.527	Go_X	0.0
651.259	1.0	go	0.521	Go_O	1.0
653.793	1.0	go	0.466	Go_O	1.0
656.342	1.0	go	0.539	Go_X	1.0
658.876	0.25	stopfail	0.521	Go_O	0.0
661.409	1.0	go	0.463	Go_X	1.0
663.942	1.0	go	0.53	Go_O	1.0
666.475	1.0	go	0.559	Go_X	1.0
669.009	1.0	go	0.539	Go_O	1.0
671.542	0.2	stopfail	0.457	Go_X	0.0
674.075	1.0	go	0.547	Go_O	1.0
676.608	1.0	go	0.654	Go_X	1.0
679.142	0.15	stopsuccess	0.0	Go_O	1.0
681.675	1.0	go	0.577	Go_O	1.0
684.208	1.0	go	0.55	Go_X	1.0
686.741	1.0	go	0.544	Go_O	1.0
689.275	1.0	go	0.488	Go_X	1.0
691.808	0.2	stopsuccess	0.0	Go_X	1.0
694.341	1.0	go	0.708	Go_O	0.0
696.874	0.25	stopfail	0.432	Go_O	0.0
699.408	1.0	go	0.439	Go_X	1.0
701.941	1.0	go	0.499	Go_O	1.0
704.474	0.2	stopsuccess	0.0	Go_X	1.0
707.007	1.0	go	0.44	Go_X	1.0
709.541	1.0	go	0.476	Go_O	1.0
712.09	1.0	go	0.381	Go_X	1.0
714.624	1.0	go	0.575	Go_O	1.0
717.157	0.25	stopfail	0.341	Go_O	0.0
719.69	1.0	go	0.396	Go_X	1.0
722.223	0.2	stopfail	0.508	Go_X	0.0
724.757	1.0	go	0.957	Go_X	0.0
727.29	1.0	go	0.616	Go_O	1.0
729.823	1.0	go	0.47	Go_O	1.0
732.356	1.0	go	0.428	Go_X	1.0
734.89	1.0	go	0.495	Go_X	1.0
737.423	1.0	go	0.543	Go_O	1.0
739.956	0.15	stopsuccess	0.0	Go_O	1.0
742.489	1.0	go	0.651	Go_X	1.0
745.023	1.0	go	0.774	Go_O	1.0
747.556	0.2	stopsuccess	0.0	Go_X	1.0
750.089	1.0	go	0.468	Go_X	1.0
752.622	1.0	go	0.465	Go_O	1.0
755.156	0.25	stopsuccess	0.0	Go_O	1.0
757.689	1.0	go	0.43	Go_X	1.0
760.222	1.0	go	0.631	Go_O	1.0
762.755	1.0	go	0.418	Go_X	1.0
765.289	1.0	go	0.383	Go_O	1.0
767.838	0.3	stopfail	0.391	Go_X	0.0
770.372	1.0	go	0.56	Go_X	1.0
772.905	0.25	stopfail	0.562	Go_O	0.0
775.438	1.0	go	0.762	Go_O	1.0
777.971	1.0	go	0.502	Go_X	1.0
780.505	1.0	go	0.59	Go_O	1.0
783.038	1.0	go	0.887	Go_O	1.0
785.571	1.0	go	0.422	Go_X	1.0
788.104	0.2	stopsuccess	0.0	Go_X	1.0
790.638	1.0	go	0.677	Go_X	1.0
793.171	1.0	go	0.671	Go_O	1.0
795.704	0.25	stopsuccess	0.0	Go_O	1.0
798.237	0.3	stopfail	0.486	Go_X	0.0
800.771	1.0	go	0.533	Go_O	1.0
803.304	1.0	go	0.513	Go_X	1.0
805.837	1.0	go	0.487	Go_X	1.0
808.37	1.0	go	0.509	Go_O	1.0
810.904	0.25	stopfail	0.541	Go_O	0.0
813.437	1.0	go	0.446	Go_X	1.0
