onset	duration	trial_type	response_time	stim_file	accuracy
73.98	1.0	go	0.0	Go_X	0.0
76.505	1.0	go	0.58	Go_O	1.0
79.029	1.0	go	0.552	Go_X	1.0
81.57	1.0	go	0.648	Go_O	1.0
84.094	1.0	go	0.773	Go_X	1.0
86.618	1.0	go	0.696	Go_O	1.0
89.142	0.25	stop	0.0	Go_O	1.0
91.667	1.0	go	0.566	Go_X	1.0
94.191	0.3	stop	0.531	Go_X	0.0
96.715	1.0	go	0.641	Go_O	1.0
99.239	1.0	go	0.72	Go_O	1.0
101.763	1.0	go	0.849	Go_X	1.0
104.288	0.25	stop	0.0	Go_O	1.0
106.812	1.0	go	0.5	Go_O	1.0
109.336	1.0	go	0.642	Go_X	1.0
111.86	0.3	stop	0.0	Go_X	1.0
114.384	0.35	stop	0.481	Go_O	0.0
116.909	1.0	go	0.687	Go_X	1.0
119.433	1.0	go	0.603	Go_O	1.0
121.957	0.3	stop	0.0	Go_X	1.0
124.481	1.0	go	0.532	Go_O	1.0
127.006	1.0	go	0.828	Go_X	1.0
129.53	0.35	stop	0.0	Go_O	1.0
132.054	1.0	go	0.574	Go_O	1.0
134.578	1.0	go	0.677	Go_X	1.0
137.102	0.4	stop	0.0	Go_X	1.0
139.627	1.0	go	0.489	Go_X	1.0
142.151	1.0	go	0.644	Go_O	1.0
144.675	0.45	stop	0.0	Go_O	1.0
147.199	1.0	go	0.422	Go_O	1.0
149.723	1.0	go	0.549	Go_X	1.0
152.248	1.0	go	0.955	Go_O	1.0
154.772	1.0	go	0.545	Go_X	1.0
157.296	1.0	go	0.645	Go_X	1.0
159.82	0.5	stop	0.0	Go_X	1.0
162.361	1.0	go	0.489	Go_O	1.0
164.885	1.0	go	0.596	Go_X	0.0
167.41	1.0	go	0.736	Go_O	1.0
169.934	1.0	go	0.844	Go_X	1.0
172.458	1.0	go	0.578	Go_O	1.0
174.982	0.55	stop	0.714	Go_O	0.0
177.507	1.0	go	0.783	Go_X	1.0
180.031	1.0	go	0.756	Go_O	1.0
182.555	1.0	go	0.714	Go_O	1.0
185.079	1.0	go	0.823	Go_X	1.0
187.603	1.0	go	0.749	Go_O	1.0
190.128	1.0	go	0.793	Go_X	1.0
192.652	0.5	stop	0.561	Go_X	0.0
195.176	1.0	go	0.601	Go_X	1.0
197.7	1.0	go	0.65	Go_O	1.0
200.224	0.45	stop	0.638	Go_O	0.0
202.765	1.0	go	0.522	Go_X	1.0
205.29	0.4	stop	0.512	Go_X	0.0
207.814	0.35	stop	0.503	Go_O	0.0
210.338	1.0	go	0.607	Go_O	1.0
212.862	1.0	go	0.599	Go_X	1.0
215.386	1.0	go	0.508	Go_O	1.0
217.911	1.0	go	0.771	Go_O	1.0
220.435	0.3	stop	0.0	Go_X	1.0
222.959	1.0	go	0.875	Go_X	1.0
225.483	0.35	stop	0.0	Go_O	1.0
228.008	1.0	go	0.55	Go_O	1.0
230.532	1.0	go	0.726	Go_X	1.0
233.056	1.0	go	0.821	Go_O	1.0
235.58	1.0	go	0.696	Go_X	1.0
238.104	1.0	go	0.792	Go_X	1.0
240.629	1.0	go	0.691	Go_O	1.0
243.153	1.0	go	0.826	Go_O	1.0
245.677	1.0	go	0.706	Go_X	1.0
248.201	1.0	go	0.786	Go_X	1.0
250.725	0.4	stop	0.0	Go_X	1.0
253.25	1.0	go	0.552	Go_O	1.0
255.774	1.0	go	0.596	Go_O	1.0
258.298	1.0	go	0.665	Go_X	1.0
260.822	0.45	stop	0.546	Go_O	0.0
263.346	1.0	go	0.572	Go_X	1.0
265.871	1.0	go	0.724	Go_O	1.0
268.395	1.0	go	0.723	Go_O	1.0
270.919	1.0	go	0.735	Go_X	1.0
273.443	1.0	go	0.648	Go_O	1.0
275.968	1.0	go	0.792	Go_X	1.0
278.492	0.4	stop	0.806	Go_X	0.0
281.016	1.0	go	0.408	Go_X	1.0
283.54	1.0	go	0.727	Go_O	1.0
286.064	0.35	stop	0.0	Go_O	1.0
288.589	1.0	go	0.787	Go_X	0.0
291.113	1.0	go	0.653	Go_O	1.0
293.637	0.4	stop	0.0	Go_X	1.0
296.161	1.0	go	0.683	Go_O	1.0
298.685	0.45	stop	0.0	Go_O	1.0
301.21	1.0	go	0.575	Go_X	1.0
303.734	1.0	go	0.42	Go_O	0.0
306.258	1.0	go	0.818	Go_X	1.0
308.782	1.0	go	0.605	Go_O	1.0
311.307	1.0	go	0.729	Go_X	1.0
313.831	0.5	stop	0.552	Go_X	0.0
316.372	0.45	stop	0.628	Go_O	0.0
318.896	1.0	go	0.524	Go_X	1.0
321.42	1.0	go	0.652	Go_O	1.0
323.944	0.4	stop	0.0	Go_X	1.0
326.469	1.0	go	0.708	Go_X	1.0
328.993	1.0	go	0.689	Go_O	1.0
331.517	1.0	go	0.841	Go_O	1.0
334.041	1.0	go	0.579	Go_X	1.0
336.565	1.0	go	0.725	Go_X	0.0
339.09	1.0	go	0.721	Go_O	1.0
341.614	0.45	stop	0.0	Go_O	1.0
344.138	1.0	go	0.759	Go_O	1.0
346.662	1.0	go	0.771	Go_X	1.0
349.186	1.0	go	0.541	Go_X	1.0
351.711	1.0	go	0.742	Go_O	1.0
354.235	1.0	go	0.789	Go_O	1.0
356.759	0.5	stop	0.0	Go_X	1.0
359.283	1.0	go	0.725	Go_X	1.0
361.808	1.0	go	0.593	Go_X	1.0
364.332	1.0	go	0.7	Go_O	1.0
366.856	1.0	go	0.643	Go_O	1.0
369.38	0.55	stop	0.0	Go_O	1.0
371.904	1.0	go	0.854	Go_X	1.0
374.429	1.0	go	0.528	Go_O	0.0
376.953	0.6	stop	0.617	Go_X	0.0
379.477	1.0	go	0.647	Go_X	1.0
382.001	0.55	stop	0.539	Go_O	0.0
384.525	1.0	go	0.589	Go_O	1.0
387.05	1.0	go	0.729	Go_X	1.0
389.574	1.0	go	0.745	Go_X	1.0
392.098	1.0	go	0.697	Go_O	1.0
394.622	1.0	go	0.687	Go_O	1.0
397.147	1.0	go	0.865	Go_X	1.0
399.671	1.0	go	0.859	Go_X	1.0
402.195	0.5	stop	0.0	Go_X	1.0
404.719	1.0	go	0.511	Go_O	1.0
407.243	1.0	go	0.799	Go_O	1.0
409.768	1.0	go	0.592	Go_X	1.0
412.292	0.55	stop	0.788	Go_O	0.0
414.816	1.0	go	0.606	Go_O	1.0
417.34	1.0	go	0.714	Go_X	1.0
419.864	1.0	go	0.682	Go_O	1.0
422.389	1.0	go	0.736	Go_X	1.0
424.913	0.5	stop	0.0	Go_X	1.0
427.437	1.0	go	0.54	Go_O	1.0
429.961	1.0	go	0.643	Go_X	1.0
432.486	0.55	stop	0.579	Go_O	0.0
435.026	1.0	go	0.545	Go_O	1.0
437.551	1.0	go	0.81	Go_X	1.0
440.075	0.5	stop	0.542	Go_X	0.0
442.599	1.0	go	0.592	Go_O	1.0
445.123	1.0	go	0.772	Go_X	1.0
447.648	0.45	stop	0.0	Go_O	1.0
450.188	1.0	go	0.667	Go_X	1.0
452.713	1.0	go	0.64	Go_O	1.0
455.237	1.0	go	0.921	Go_O	1.0
457.761	1.0	go	0.846	Go_X	1.0
460.285	1.0	go	0.593	Go_O	1.0
462.81	1.0	go	0.479	Go_X	1.0
465.334	0.5	stop	0.0	Go_X	1.0
467.858	1.0	go	0.0	Go_X	0.0
470.382	0.55	stop	0.67	Go_O	0.0
472.906	1.0	go	0.808	Go_O	1.0
475.431	1.0	go	0.625	Go_O	1.0
477.955	1.0	go	0.826	Go_X	1.0
480.479	1.0	go	0.997	Go_O	1.0
483.003	1.0	go	0.588	Go_X	1.0
485.527	0.5	stop	0.0	Go_X	1.0
488.052	1.0	go	0.747	Go_O	1.0
490.576	1.0	go	0.795	Go_X	1.0
493.1	1.0	go	0.76	Go_X	1.0
495.624	0.55	stop	0.53	Go_O	0.0
498.149	0.5	stop	0.535	Go_X	0.0
500.689	0.45	stop	0.662	Go_O	0.0
503.214	1.0	go	0.658	Go_O	1.0
505.738	0.4	stop	0.0	Go_X	1.0
508.262	1.0	go	0.736	Go_X	1.0
510.786	1.0	go	0.728	Go_O	1.0
513.311	1.0	go	0.714	Go_O	1.0
515.835	1.0	go	0.64	Go_X	1.0
518.359	1.0	go	0.607	Go_O	1.0
520.883	1.0	go	0.686	Go_X	1.0
523.407	1.0	go	0.491	Go_O	1.0
525.932	1.0	go	0.512	Go_X	1.0
528.456	0.45	stop	0.685	Go_O	0.0
530.98	1.0	go	0.573	Go_O	1.0
533.504	1.0	go	0.695	Go_X	1.0
536.028	0.4	stop	0.592	Go_X	0.0
538.553	1.0	go	0.653	Go_X	1.0
541.077	1.0	go	0.589	Go_O	1.0
543.601	1.0	go	0.822	Go_X	1.0
546.125	1.0	go	0.765	Go_O	1.0
548.65	1.0	go	0.775	Go_O	1.0
551.174	0.35	stop	0.0	Go_O	1.0
553.698	1.0	go	0.674	Go_X	1.0
556.222	1.0	go	0.514	Go_O	1.0
558.746	1.0	go	0.542	Go_X	1.0
561.271	0.4	stop	0.0	Go_X	1.0
563.795	1.0	go	0.692	Go_X	1.0
566.319	0.45	stop	0.0	Go_O	1.0
568.843	1.0	go	0.617	Go_O	1.0
571.367	1.0	go	0.0	Go_X	0.0
573.892	1.0	go	0.595	Go_O	1.0
576.416	1.0	go	0.656	Go_O	1.0
578.94	1.0	go	0.61	Go_X	1.0
581.464	1.0	go	0.625	Go_O	1.0
583.989	1.0	go	0.553	Go_X	1.0
586.513	0.5	stop	0.61	Go_X	0.0
589.054	1.0	go	0.632	Go_O	1.0
591.578	1.0	go	0.55	Go_X	1.0
594.102	1.0	go	0.584	Go_O	0.0
596.626	1.0	go	0.571	Go_X	1.0
599.151	0.45	stop	0.657	Go_O	0.0
601.691	1.0	go	0.834	Go_O	1.0
604.218	0.4	stop	0.53	Go_X	0.0
606.757	1.0	go	0.529	Go_X	1.0
609.281	1.0	go	0.808	Go_X	1.0
611.805	0.35	stop	0.0	Go_O	1.0
614.329	1.0	go	0.756	Go_O	1.0
616.853	1.0	go	0.532	Go_X	1.0
619.378	1.0	go	0.695	Go_O	1.0
621.902	1.0	go	0.711	Go_O	1.0
624.426	1.0	go	0.794	Go_X	1.0
626.95	1.0	go	0.757	Go_O	1.0
629.474	1.0	go	0.705	Go_X	1.0
631.999	1.0	go	0.826	Go_O	1.0
634.523	1.0	go	0.735	Go_X	1.0
637.047	1.0	go	0.678	Go_X	1.0
639.571	0.4	stop	0.57	Go_X	0.0
642.096	1.0	go	0.674	Go_O	1.0
644.62	1.0	go	0.64	Go_O	1.0
647.144	0.35	stop	0.0	Go_O	1.0
649.668	1.0	go	0.549	Go_X	1.0
652.192	0.4	stop	0.0	Go_X	1.0
654.717	1.0	go	0.0	Go_X	0.0
657.241	1.0	go	0.412	Go_O	1.0
659.765	0.45	stop	0.0	Go_O	1.0
662.289	1.0	go	0.0	Go_O	0.0
664.813	0.5	stop	0.0	Go_X	1.0
667.338	1.0	go	0.473	Go_X	1.0
669.862	1.0	go	0.504	Go_O	1.0
672.386	1.0	go	0.547	Go_X	1.0
674.91	0.55	stop	0.487	Go_O	0.0
677.435	1.0	go	0.444	Go_O	1.0
679.959	1.0	go	0.645	Go_X	1.0
682.483	1.0	go	0.707	Go_X	1.0
685.007	1.0	go	0.641	Go_O	1.0
687.531	0.5	stop	0.63	Go_X	0.0
690.056	1.0	go	0.796	Go_O	1.0
692.58	1.0	go	0.775	Go_X	1.0
695.104	0.45	stop	0.0	Go_O	1.0
697.628	1.0	go	0.948	Go_O	1.0
700.153	1.0	go	0.466	Go_X	1.0
702.677	1.0	go	0.711	Go_O	1.0
705.201	1.0	go	0.472	Go_X	1.0
707.725	0.5	stop	0.404	Go_X	0.0
710.249	1.0	go	0.532	Go_O	1.0
712.774	0.45	stop	0.601	Go_O	0.0
715.298	1.0	go	0.552	Go_X	1.0
717.822	1.0	go	0.681	Go_O	1.0
720.346	0.4	stop	0.0	Go_X	1.0
722.87	1.0	go	0.549	Go_X	1.0
725.395	1.0	go	0.66	Go_X	1.0
727.919	1.0	go	0.517	Go_O	1.0
730.443	1.0	go	0.54	Go_X	1.0
732.967	0.45	stop	0.0	Go_O	1.0
735.491	1.0	go	0.756	Go_O	1.0
738.017	0.5	stop	0.749	Go_X	0.0
740.54	1.0	go	0.647	Go_X	1.0
743.064	1.0	go	0.0	Go_O	0.0
745.588	1.0	go	0.505	Go_X	1.0
748.113	1.0	go	0.622	Go_O	1.0
750.637	1.0	go	0.549	Go_X	1.0
753.161	1.0	go	0.846	Go_O	1.0
755.685	0.45	stop	0.0	Go_O	1.0
758.209	1.0	go	0.742	Go_O	1.0
760.75	1.0	go	0.482	Go_X	1.0
763.275	0.5	stop	0.641	Go_X	0.0
765.799	1.0	go	0.51	Go_X	1.0
768.323	1.0	go	0.653	Go_O	0.0
770.847	0.45	stop	0.611	Go_O	0.0
773.371	1.0	go	0.79	Go_X	1.0
775.896	1.0	go	0.686	Go_O	1.0
778.42	1.0	go	0.822	Go_X	1.0
780.944	1.0	go	0.718	Go_O	1.0
783.468	0.4	stop	0.0	Go_X	1.0
785.992	1.0	go	0.96	Go_O	1.0
788.517	0.45	stop	0.517	Go_O	0.0
791.041	1.0	go	0.534	Go_X	1.0
793.565	1.0	go	0.0	Go_X	0.0
796.089	1.0	go	0.527	Go_O	1.0
798.614	1.0	go	0.523	Go_O	1.0
801.138	1.0	go	0.557	Go_X	1.0
803.662	0.4	stop	0.0	Go_X	1.0
806.186	1.0	go	0.794	Go_X	1.0
808.71	1.0	go	0.0	Go_O	0.0
811.235	0.45	stop	0.56	Go_O	0.0
813.776	0.4	stop	0.658	Go_X	0.0
816.3	1.0	go	0.652	Go_X	1.0
818.824	1.0	go	0.685	Go_O	1.0
821.348	1.0	go	0.48	Go_O	1.0
823.872	1.0	go	0.483	Go_X	1.0
826.397	0.35	stop	0.521	Go_O	0.0
828.921	1.0	go	0.812	Go_X	1.0
