onset	duration	trial_type	response_time	stim_file	accuracy
42.375	1.0	go	0.0	Go_O	0.0
44.916	1.0	go	0.458	Go_X	1.0
47.457	1.0	go	0.671	Go_X	1.0
49.981	1.0	go	0.636	Go_O	1.0
52.505	1.0	go	0.816	Go_O	1.0
55.029	1.0	go	0.688	Go_X	1.0
57.553	0.25	stopsuccess	0.0	Go_O	1.0
60.094	1.0	go	0.521	Go_X	1.0
62.618	0.3	stopsuccess	0.0	Go_X	1.0
65.143	1.0	go	0.453	Go_O	1.0
67.667	1.0	go	0.674	Go_O	1.0
70.208	1.0	go	0.44	Go_X	1.0
72.732	0.35	stopsuccess	0.0	Go_O	1.0
75.273	1.0	go	0.388	Go_X	1.0
77.797	1.0	go	0.439	Go_O	1.0
80.321	0.4	stopfail	0.57	Go_X	0.0
82.845	0.35	stopfail	0.498	Go_O	0.0
85.386	1.0	go	0.655	Go_X	1.0
87.927	1.0	go	0.868	Go_O	1.0
90.451	0.3	stopsuccess	0.0	Go_X	1.0
92.992	1.0	go	0.506	Go_O	1.0
95.516	1.0	go	0.622	Go_X	1.0
98.04	0.35	stopsuccess	0.0	Go_O	1.0
100.565	1.0	go	0.495	Go_O	1.0
103.089	1.0	go	0.733	Go_X	1.0
105.613	0.4	stopsuccess	0.0	Go_X	1.0
108.154	1.0	go	0.39	Go_O	1.0
110.678	1.0	go	0.542	Go_X	1.0
113.202	0.45	stopfail	0.581	Go_O	0.0
115.743	1.0	go	0.586	Go_X	1.0
118.267	1.0	go	0.575	Go_O	1.0
120.792	1.0	go	0.622	Go_X	1.0
123.316	1.0	go	0.635	Go_O	1.0
125.84	1.0	go	0.72	Go_X	1.0
128.381	0.4	stopsuccess	0.0	Go_X	1.0
130.922	1.0	go	0.39	Go_O	1.0
133.446	1.0	go	0.611	Go_O	1.0
135.97	1.0	go	0.6	Go_X	1.0
138.494	1.0	go	0.609	Go_O	1.0
141.018	1.0	go	0.838	Go_X	1.0
143.543	0.45	stopfail	0.394	Go_O	0.0
146.067	1.0	go	0.314	Go_X	1.0
148.591	1.0	go	0.5	Go_O	1.0
151.115	1.0	go	0.563	Go_O	1.0
153.639	1.0	go	0.695	Go_X	1.0
156.164	1.0	go	0.505	Go_O	1.0
158.688	1.0	go	0.499	Go_X	1.0
161.212	0.4	stopsuccess	0.0	Go_X	1.0
163.736	1.0	go	0.439	Go_O	1.0
166.277	1.0	go	0.662	Go_X	0.0
168.818	0.45	stopfail	0.485	Go_O	0.0
171.342	1.0	go	0.622	Go_X	1.0
173.866	0.4	stopfail	0.528	Go_X	0.0
176.407	0.35	stopsuccess	0.0	Go_O	1.0
178.931	1.0	go	0.513	Go_O	1.0
181.455	1.0	go	0.538	Go_O	1.0
183.98	1.0	go	0.562	Go_X	1.0
186.521	1.0	go	0.0	Go_O	0.0
189.045	0.4	stopfail	0.491	Go_X	0.0
191.586	1.0	go	0.588	Go_X	1.0
194.11	0.35	stopfail	0.395	Go_O	0.0
196.651	1.0	go	0.632	Go_X	0.0
199.175	1.0	go	0.54	Go_O	1.0
201.699	1.0	go	0.504	Go_O	1.0
204.223	1.0	go	0.548	Go_X	1.0
206.764	1.0	go	0.648	Go_X	1.0
209.288	1.0	go	0.665	Go_O	1.0
211.813	1.0	go	0.617	Go_X	1.0
214.353	1.0	go	0.776	Go_O	1.0
216.894	1.0	go	0.502	Go_O	1.0
219.418	0.3	stopfail	0.395	Go_X	0.0
221.959	1.0	go	0.543	Go_X	1.0
224.484	1.0	go	0.534	Go_X	1.0
227.008	1.0	go	0.48	Go_O	1.0
229.532	0.25	stopsuccess	0.0	Go_O	1.0
232.073	1.0	go	0.656	Go_O	1.0
234.597	1.0	go	0.531	Go_X	1.0
237.121	1.0	go	0.558	Go_X	1.0
239.645	1.0	go	0.512	Go_O	1.0
242.17	1.0	go	0.463	Go_O	1.0
244.694	1.0	go	0.52	Go_X	1.0
247.218	0.3	stopsuccess	0.0	Go_X	1.0
249.742	1.0	go	0.389	Go_X	1.0
252.266	1.0	go	0.546	Go_O	1.0
254.791	0.35	stopfail	0.503	Go_O	0.0
257.315	1.0	go	0.482	Go_X	1.0
259.839	1.0	go	0.521	Go_O	1.0
262.363	0.3	stopsuccess	0.0	Go_X	1.0
264.904	1.0	go	0.556	Go_O	1.0
267.428	0.35	stopfail	0.508	Go_O	0.0
269.952	1.0	go	0.535	Go_X	1.0
272.476	1.0	go	0.641	Go_X	1.0
275.001	1.0	go	0.623	Go_O	1.0
277.525	1.0	go	0.637	Go_O	1.0
280.049	1.0	go	0.562	Go_X	1.0
282.573	0.3	stopfail	0.43	Go_X	0.0
285.097	0.25	stopfail	0.455	Go_O	0.0
287.622	1.0	go	0.487	Go_X	1.0
290.146	1.0	go	0.38	Go_O	1.0
292.67	0.2	stopsuccess	0.0	Go_X	1.0
295.194	1.0	go	0.406	Go_O	0.0
297.718	1.0	go	0.386	Go_X	1.0
300.243	1.0	go	0.441	Go_X	1.0
302.767	1.0	go	0.503	Go_O	1.0
305.291	1.0	go	0.905	Go_X	1.0
307.815	1.0	go	0.41	Go_O	1.0
310.339	0.25	stopfail	0.36	Go_O	0.0
312.88	1.0	go	0.537	Go_O	1.0
315.404	1.0	go	0.582	Go_X	1.0
317.928	1.0	go	0.455	Go_X	1.0
320.453	1.0	go	0.366	Go_O	1.0
322.994	1.0	go	0.589	Go_O	1.0
325.518	0.2	stopsuccess	0.0	Go_X	1.0
328.042	1.0	go	0.783	Go_X	1.0
330.566	1.0	go	0.384	Go_O	1.0
333.09	1.0	go	0.604	Go_X	1.0
335.614	1.0	go	0.433	Go_X	1.0
338.139	0.25	stopfail	0.57	Go_O	0.0
340.68	1.0	go	0.514	Go_O	1.0
343.22	1.0	go	0.664	Go_X	1.0
345.745	0.2	stopsuccess	0.0	Go_X	1.0
348.269	1.0	go	0.536	Go_O	1.0
350.793	0.25	stopfail	0.434	Go_O	0.0
353.317	1.0	go	0.55	Go_X	1.0
355.841	1.0	go	0.51	Go_O	1.0
358.366	1.0	go	0.511	Go_X	1.0
360.89	1.0	go	0.587	Go_O	1.0
363.414	1.0	go	0.44	Go_X	1.0
365.938	1.0	go	0.678	Go_O	1.0
368.462	1.0	go	0.486	Go_O	1.0
370.986	0.2	stopsuccess	0.0	Go_X	1.0
373.511	1.0	go	0.422	Go_X	1.0
376.035	1.0	go	0.704	Go_O	1.0
378.576	1.0	go	0.468	Go_X	1.0
381.1	0.25	stopsuccess	0.0	Go_O	1.0
383.641	1.0	go	0.448	Go_O	1.0
386.165	1.0	go	0.55	Go_X	1.0
388.689	1.0	go	0.519	Go_O	1.0
391.213	1.0	go	0.671	Go_X	1.0
393.738	0.3	stopsuccess	0.0	Go_X	1.0
396.278	1.0	go	0.423	Go_X	1.0
398.803	1.0	go	0.501	Go_O	1.0
401.327	0.35	stopfail	0.41	Go_O	0.0
403.868	1.0	go	0.51	Go_X	1.0
406.392	1.0	go	0.543	Go_O	1.0
408.916	0.3	stopsuccess	0.0	Go_X	1.0
411.44	1.0	go	0.456	Go_O	1.0
413.964	1.0	go	0.798	Go_X	1.0
416.489	0.35	stopfail	0.383	Go_O	0.0
419.03	1.0	go	0.43	Go_X	1.0
421.57	1.0	go	0.425	Go_O	1.0
424.095	1.0	go	0.454	Go_O	1.0
426.619	1.0	go	0.443	Go_X	1.0
429.143	1.0	go	0.495	Go_O	1.0
431.667	1.0	go	0.694	Go_X	1.0
434.191	0.3	stopfail	0.421	Go_X	0.0
436.732	1.0	go	0.412	Go_O	1.0
439.256	0.25	stopfail	0.417	Go_O	0.0
441.781	1.0	go	0.406	Go_X	1.0
444.305	1.0	go	0.314	Go_O	1.0
446.846	1.0	go	0.466	Go_X	1.0
449.37	1.0	go	0.442	Go_O	1.0
451.894	1.0	go	0.513	Go_X	1.0
454.418	0.2	stopfail	0.346	Go_X	0.0
456.942	1.0	go	0.414	Go_O	1.0
459.467	1.0	go	0.567	Go_X	1.0
461.991	1.0	go	0.477	Go_O	1.0
464.532	0.15	stopsuccess	0.0	Go_O	1.0
467.073	0.2	stopsuccess	0.0	Go_X	1.0
469.614	0.25	stopsuccess	0.0	Go_O	1.0
472.138	1.0	go	0.412	Go_X	1.0
474.679	0.3	stopfail	0.398	Go_X	0.0
477.219	1.0	go	0.541	Go_X	1.0
479.744	1.0	go	0.484	Go_O	1.0
482.268	1.0	go	0.495	Go_X	1.0
484.792	1.0	go	0.55	Go_O	1.0
487.333	1.0	go	0.48	Go_X	1.0
489.857	1.0	go	0.423	Go_O	1.0
492.398	1.0	go	0.44	Go_X	1.0
494.922	1.0	go	0.298	Go_O	1.0
497.446	0.25	stopsuccess	0.0	Go_O	1.0
499.971	1.0	go	0.562	Go_X	1.0
502.495	1.0	go	0.538	Go_O	1.0
505.019	0.3	stopfail	0.45	Go_X	0.0
507.56	1.0	go	0.387	Go_O	1.0
510.101	1.0	go	0.549	Go_X	1.0
512.625	1.0	go	0.501	Go_X	1.0
515.149	1.0	go	0.533	Go_O	1.0
517.673	1.0	go	0.376	Go_X	1.0
520.197	0.25	stopsuccess	0.0	Go_O	1.0
522.738	1.0	go	0.645	Go_O	1.0
525.263	1.0	go	0.639	Go_O	1.0
527.787	1.0	go	0.388	Go_X	1.0
530.311	0.3	stopfail	0.331	Go_X	0.0
532.835	1.0	go	0.454	Go_X	1.0
535.359	0.25	stopfail	0.375	Go_O	0.0
537.9	1.0	go	0.426	Go_O	1.0
540.424	1.0	go	0.402	Go_O	1.0
542.948	1.0	go	0.593	Go_X	0.0
545.473	1.0	go	0.44	Go_X	1.0
547.997	1.0	go	0.375	Go_O	1.0
550.521	1.0	go	0.269	Go_X	1.0
553.062	1.0	go	0.364	Go_O	0.0
555.586	0.2	stopsuccess	0.0	Go_X	1.0
558.11	1.0	go	0.686	Go_X	0.0
560.634	1.0	go	0.6	Go_O	1.0
563.159	1.0	go	0.314	Go_X	1.0
565.683	1.0	go	0.45	Go_O	1.0
568.207	0.25	stopfail	0.566	Go_O	0.0
570.748	1.0	go	0.377	Go_X	1.0
573.272	0.2	stopfail	0.333	Go_X	0.0
575.796	1.0	go	0.381	Go_O	1.0
578.32	1.0	go	0.489	Go_X	1.0
580.845	0.15	stopsuccess	0.0	Go_O	1.0
583.386	1.0	go	0.362	Go_O	1.0
585.91	1.0	go	0.485	Go_O	1.0
588.434	1.0	go	0.413	Go_X	1.0
590.958	1.0	go	0.703	Go_O	1.0
593.482	1.0	go	0.418	Go_X	1.0
596.006	1.0	go	0.396	Go_O	1.0
598.531	1.0	go	0.401	Go_X	1.0
601.055	1.0	go	0.528	Go_O	1.0
603.579	1.0	go	0.343	Go_X	1.0
606.103	1.0	go	0.384	Go_O	0.0
608.627	0.2	stopsuccess	0.0	Go_X	1.0
611.152	1.0	go	0.417	Go_X	1.0
613.676	1.0	go	0.429	Go_X	1.0
616.2	0.25	stopsuccess	0.0	Go_O	1.0
618.724	1.0	go	0.488	Go_O	1.0
621.248	0.3	stopfail	0.456	Go_X	0.0
623.772	1.0	go	0.404	Go_X	1.0
626.297	1.0	go	0.34	Go_O	0.0
628.821	0.25	stopfail	0.311	Go_O	0.0
631.345	1.0	go	0.434	Go_X	1.0
633.869	0.2	stopsuccess	0.0	Go_X	1.0
636.393	1.0	go	0.477	Go_O	1.0
638.918	1.0	go	0.445	Go_X	1.0
641.442	1.0	go	0.475	Go_O	1.0
643.966	0.25	stopfail	0.475	Go_O	0.0
646.49	1.0	go	0.667	Go_X	1.0
649.014	1.0	go	0.637	Go_O	1.0
651.538	1.0	go	0.39	Go_O	1.0
654.063	1.0	go	0.393	Go_X	1.0
656.587	0.2	stopfail	0.371	Go_X	0.0
659.111	1.0	go	0.421	Go_O	1.0
661.635	1.0	go	0.551	Go_X	1.0
664.159	0.15	stopsuccess	0.0	Go_O	1.0
666.684	1.0	go	0.384	Go_X	0.0
669.224	1.0	go	0.424	Go_O	1.0
671.749	1.0	go	0.515	Go_X	1.0
674.273	1.0	go	0.392	Go_O	1.0
676.797	0.2	stopsuccess	0.0	Go_X	1.0
679.321	1.0	go	0.407	Go_O	1.0
681.845	0.25	stopsuccess	0.0	Go_O	1.0
684.37	1.0	go	0.596	Go_X	1.0
686.894	1.0	go	0.528	Go_X	1.0
689.418	0.3	stopfail	0.47	Go_X	0.0
691.942	1.0	go	0.327	Go_O	1.0
694.466	1.0	go	0.495	Go_O	1.0
696.99	1.0	go	0.395	Go_X	1.0
699.531	1.0	go	0.512	Go_O	1.0
702.056	0.25	stopfail	0.399	Go_O	0.0
704.596	1.0	go	0.621	Go_X	1.0
707.121	0.2	stopfail	0.383	Go_X	0.0
709.645	1.0	go	0.514	Go_X	1.0
712.186	1.0	go	0.458	Go_O	1.0
714.71	1.0	go	0.779	Go_X	1.0
717.251	1.0	go	0.364	Go_O	1.0
719.792	1.0	go	0.614	Go_O	1.0
722.316	1.0	go	0.516	Go_X	1.0
724.84	0.15	stopsuccess	0.0	Go_O	1.0
727.381	1.0	go	0.56	Go_X	1.0
729.905	1.0	go	0.716	Go_O	1.0
732.429	0.2	stopfail	0.473	Go_X	0.0
734.954	1.0	go	0.514	Go_X	1.0
737.478	1.0	go	0.57	Go_O	1.0
740.002	0.15	stopsuccess	0.0	Go_O	1.0
742.543	1.0	go	0.415	Go_X	1.0
745.067	1.0	go	0.61	Go_O	1.0
747.591	1.0	go	0.517	Go_O	1.0
750.115	1.0	go	0.59	Go_X	1.0
752.64	0.2	stopsuccess	0.0	Go_X	1.0
755.164	1.0	go	0.417	Go_O	1.0
757.688	0.25	stopfail	0.466	Go_O	0.0
760.229	1.0	go	0.426	Go_X	1.0
762.753	1.0	go	0.529	Go_O	1.0
765.277	1.0	go	0.508	Go_X	1.0
767.801	1.0	go	0.524	Go_X	1.0
770.326	1.0	go	0.364	Go_O	1.0
772.85	0.2	stopsuccess	0.0	Go_X	1.0
775.391	1.0	go	0.378	Go_X	1.0
777.932	1.0	go	0.561	Go_O	1.0
780.456	0.25	stopfail	0.431	Go_O	0.0
782.997	0.2	stopsuccess	0.0	Go_X	1.0
785.538	1.0	go	0.449	Go_X	1.0
788.062	1.0	go	0.558	Go_O	1.0
790.586	1.0	go	0.438	Go_O	1.0
793.11	1.0	go	0.487	Go_X	1.0
795.634	0.25	stopfail	0.544	Go_O	0.0
798.158	1.0	go	0.435	Go_X	1.0
