onset	duration	trial_type	response_time	stim_file	accuracy
39.679	1.0	go	0.688	Go_X	0.0
42.203	1.0	go	0.466	Go_O	0.0
44.727	1.0	go	0.281	Go_X	0.0
47.251	1.0	go	0.279	Go_O	0.0
49.775	1.0	go	0.422	Go_X	0.0
52.3	1.0	go	0.251	Go_O	0.0
54.824	0.25	stopsuccess	0.0	Go_O	1.0
57.348	1.0	go	0.442	Go_X	0.0
59.872	0.3	stopfail	0.359	Go_X	0.0
62.396	1.0	go	0.562	Go_O	0.0
64.921	1.0	go	0.368	Go_X	1.0
67.445	1.0	go	0.515	Go_O	0.0
69.969	0.25	stopsuccess	0.0	Go_O	1.0
72.493	1.0	go	0.339	Go_X	0.0
75.017	1.0	go	0.544	Go_O	0.0
77.541	0.3	stopfail	0.428	Go_X	0.0
80.066	0.25	stopfail	0.375	Go_O	0.0
82.59	1.0	go	0.425	Go_X	0.0
85.114	1.0	go	0.564	Go_O	0.0
87.638	0.2	stopsuccess	0.0	Go_X	1.0
90.162	1.0	go	0.41	Go_X	0.0
92.687	1.0	go	0.531	Go_O	0.0
95.211	0.25	stopsuccess	0.0	Go_O	1.0
97.735	1.0	go	0.426	Go_O	0.0
100.259	1.0	go	0.446	Go_X	0.0
102.783	0.3	stopsuccess	0.0	Go_X	1.0
105.307	1.0	go	0.381	Go_X	0.0
107.832	1.0	go	0.606	Go_O	0.0
110.356	0.35	stopfail	0.495	Go_O	0.0
112.88	1.0	go	0.444	Go_X	0.0
115.404	1.0	go	0.464	Go_O	0.0
117.928	1.0	go	0.522	Go_X	0.0
120.453	1.0	go	0.724	Go_O	0.0
122.977	1.0	go	0.544	Go_O	0.0
125.501	0.3	stopfail	0.449	Go_X	0.0
128.025	1.0	go	0.644	Go_X	0.0
130.549	1.0	go	0.526	Go_O	0.0
133.073	1.0	go	0.469	Go_X	0.0
135.598	1.0	go	0.536	Go_O	0.0
138.122	1.0	go	0.652	Go_X	0.0
140.646	0.25	stopsuccess	0.0	Go_O	1.0
143.17	1.0	go	0.528	Go_O	0.0
145.694	1.0	go	0.489	Go_X	0.0
148.219	1.0	go	0.412	Go_X	0.0
150.743	1.0	go	0.447	Go_O	1.0
153.267	1.0	go	0.501	Go_O	0.0
155.791	1.0	go	0.542	Go_X	0.0
158.315	0.3	stopfail	0.438	Go_X	0.0
160.839	1.0	go	0.477	Go_O	0.0
163.364	1.0	go	0.403	Go_X	0.0
165.888	0.25	stopsuccess	0.0	Go_O	1.0
168.412	1.0	go	0.533	Go_O	0.0
170.936	0.3	stopfail	0.349	Go_X	0.0
173.46	0.25	stopfail	0.281	Go_O	0.0
175.985	1.0	go	0.511	Go_X	0.0
178.509	1.0	go	0.4	Go_O	0.0
181.033	1.0	go	0.422	Go_X	0.0
183.557	1.0	go	0.559	Go_X	0.0
186.081	0.2	stopsuccess	0.0	Go_X	1.0
188.605	1.0	go	0.526	Go_O	0.0
191.13	0.25	stopsuccess	0.0	Go_O	1.0
193.654	1.0	go	0.463	Go_X	1.0
196.178	1.0	go	0.566	Go_O	0.0
198.702	1.0	go	0.464	Go_O	0.0
201.226	1.0	go	0.723	Go_X	0.0
203.751	1.0	go	0.668	Go_X	0.0
206.275	1.0	go	0.63	Go_O	0.0
208.799	1.0	go	0.605	Go_O	0.0
211.323	1.0	go	0.54	Go_X	0.0
213.847	1.0	go	0.596	Go_X	0.0
216.371	0.3	stopsuccess	0.0	Go_X	1.0
218.896	1.0	go	0.486	Go_O	0.0
221.42	1.0	go	0.476	Go_X	0.0
223.944	1.0	go	0.503	Go_O	0.0
226.468	0.35	stopfail	0.467	Go_O	0.0
228.992	1.0	go	0.495	Go_O	0.0
231.517	1.0	go	0.395	Go_X	0.0
234.041	1.0	go	0.4	Go_O	0.0
236.565	1.0	go	0.482	Go_X	0.0
239.089	1.0	go	0.711	Go_O	0.0
241.613	1.0	go	0.619	Go_X	0.0
244.138	0.3	stopsuccess	0.0	Go_X	1.0
246.662	1.0	go	0.387	Go_X	0.0
249.186	1.0	go	0.719	Go_O	0.0
251.71	0.35	stopsuccess	0.0	Go_O	1.0
254.234	1.0	go	0.361	Go_X	0.0
256.758	1.0	go	0.513	Go_O	0.0
259.283	0.4	stopsuccess	0.0	Go_X	1.0
261.807	1.0	go	0.402	Go_O	0.0
264.331	0.45	stopfail	0.552	Go_O	0.0
266.855	1.0	go	0.408	Go_X	0.0
269.379	1.0	go	0.434	Go_X	0.0
271.904	1.0	go	0.556	Go_O	0.0
274.428	1.0	go	0.537	Go_O	0.0
276.952	1.0	go	0.519	Go_X	0.0
279.476	0.4	stopsuccess	0.0	Go_X	1.0
282.0	0.45	stopfail	0.604	Go_O	0.0
284.524	1.0	go	0.542	Go_O	0.0
287.049	1.0	go	0.557	Go_X	0.0
289.573	0.4	stopsuccess	0.0	Go_X	1.0
292.097	1.0	go	0.413	Go_O	0.0
294.621	1.0	go	0.459	Go_X	0.0
297.145	1.0	go	0.886	Go_X	0.0
299.67	1.0	go	0.493	Go_O	0.0
302.194	1.0	go	0.352	Go_X	0.0
304.718	1.0	go	0.422	Go_O	0.0
307.242	0.45	stopfail	0.51	Go_O	0.0
309.766	1.0	go	0.372	Go_X	0.0
312.29	1.0	go	0.47	Go_O	0.0
314.815	1.0	go	0.341	Go_O	1.0
317.339	1.0	go	0.88	Go_X	0.0
319.863	1.0	go	0.607	Go_O	0.0
322.387	0.4	stopfail	0.525	Go_X	0.0
324.911	1.0	go	0.529	Go_X	0.0
327.436	1.0	go	0.449	Go_X	0.0
329.96	1.0	go	0.445	Go_O	0.0
332.484	1.0	go	0.432	Go_X	0.0
335.008	0.35	stopsuccess	0.0	Go_O	1.0
337.532	1.0	go	0.526	Go_O	0.0
340.056	1.0	go	0.336	Go_O	0.0
342.581	0.4	stopfail	0.501	Go_X	0.0
345.105	1.0	go	0.489	Go_X	0.0
347.629	0.35	stopfail	0.394	Go_O	0.0
350.153	1.0	go	0.436	Go_O	0.0
352.677	1.0	go	0.489	Go_X	0.0
355.202	1.0	go	0.582	Go_O	1.0
357.726	1.0	go	0.299	Go_X	0.0
360.25	1.0	go	0.465	Go_X	0.0
362.774	1.0	go	0.483	Go_O	0.0
365.298	1.0	go	0.562	Go_O	0.0
367.822	0.3	stopfail	0.493	Go_X	0.0
370.347	1.0	go	0.534	Go_X	0.0
372.871	1.0	go	0.637	Go_O	0.0
375.395	1.0	go	0.446	Go_X	0.0
377.919	0.25	stopsuccess	0.0	Go_O	1.0
380.443	1.0	go	0.374	Go_X	0.0
382.968	1.0	go	0.508	Go_O	0.0
385.492	1.0	go	0.569	Go_O	0.0
388.016	1.0	go	0.568	Go_X	0.0
390.54	0.3	stopsuccess	0.0	Go_X	1.0
393.064	1.0	go	0.498	Go_O	0.0
395.588	1.0	go	0.645	Go_X	0.0
398.113	0.35	stopsuccess	0.0	Go_O	1.0
400.637	1.0	go	0.496	Go_O	0.0
403.161	1.0	go	0.607	Go_X	0.0
405.685	0.4	stopsuccess	0.0	Go_X	1.0
408.209	1.0	go	0.4	Go_O	0.0
410.734	1.0	go	0.51	Go_X	0.0
413.258	0.45	stopsuccess	0.0	Go_O	1.0
415.782	1.0	go	0.43	Go_X	0.0
418.306	1.0	go	0.62	Go_O	0.0
420.83	1.0	go	0.676	Go_O	0.0
423.354	1.0	go	0.739	Go_X	0.0
425.879	1.0	go	0.859	Go_X	0.0
428.403	1.0	go	0.561	Go_O	0.0
430.927	0.5	stopfail	0.561	Go_X	0.0
433.451	1.0	go	0.808	Go_O	0.0
435.975	0.45	stopfail	0.466	Go_O	0.0
438.5	1.0	go	0.572	Go_X	0.0
441.024	1.0	go	0.614	Go_O	0.0
443.548	1.0	go	0.583	Go_X	0.0
446.072	1.0	go	0.615	Go_O	0.0
448.596	1.0	go	0.557	Go_X	0.0
451.12	0.4	stopfail	0.548	Go_X	0.0
453.645	1.0	go	0.533	Go_X	0.0
456.169	1.0	go	0.675	Go_O	0.0
458.693	1.0	go	0.521	Go_X	0.0
461.217	0.35	stopfail	0.519	Go_O	0.0
463.741	0.3	stopfail	0.406	Go_X	0.0
466.266	0.25	stopfail	0.395	Go_O	0.0
468.79	1.0	go	0.618	Go_O	0.0
471.314	0.2	stopsuccess	0.0	Go_X	1.0
473.838	1.0	go	0.481	Go_O	0.0
476.362	1.0	go	0.516	Go_X	0.0
478.886	1.0	go	0.556	Go_O	0.0
481.411	1.0	go	0.527	Go_X	0.0
483.935	1.0	go	0.667	Go_X	0.0
486.459	1.0	go	0.642	Go_O	0.0
488.983	1.0	go	0.562	Go_X	0.0
491.507	1.0	go	0.489	Go_O	0.0
494.032	0.25	stopsuccess	0.0	Go_O	1.0
496.556	1.0	go	0.485	Go_X	0.0
499.08	1.0	go	0.675	Go_O	0.0
501.604	0.3	stopsuccess	0.0	Go_X	1.0
504.128	1.0	go	0.475	Go_X	0.0
506.652	1.0	go	0.618	Go_O	0.0
509.177	1.0	go	0.593	Go_X	0.0
511.701	1.0	go	0.623	Go_O	0.0
514.225	1.0	go	0.673	Go_O	0.0
516.749	0.35	stopsuccess	0.0	Go_O	1.0
519.273	1.0	go	0.436	Go_X	0.0
521.798	1.0	go	0.486	Go_X	0.0
524.322	1.0	go	0.557	Go_O	0.0
526.846	0.4	stopsuccess	0.0	Go_X	1.0
529.37	1.0	go	0.55	Go_O	0.0
531.894	0.45	stopsuccess	0.0	Go_O	1.0
534.419	1.0	go	0.452	Go_X	0.0
536.943	1.0	go	0.658	Go_X	0.0
539.467	1.0	go	0.682	Go_O	0.0
541.991	1.0	go	0.429	Go_O	0.0
544.515	1.0	go	0.522	Go_X	0.0
547.039	1.0	go	0.51	Go_O	0.0
549.564	1.0	go	0.747	Go_X	1.0
552.088	0.5	stopfail	0.523	Go_X	0.0
554.612	1.0	go	0.486	Go_X	0.0
557.136	1.0	go	0.448	Go_O	0.0
559.66	1.0	go	0.381	Go_X	0.0
562.185	1.0	go	0.667	Go_O	0.0
564.709	0.45	stopfail	0.626	Go_O	0.0
567.233	1.0	go	0.452	Go_O	1.0
569.757	0.4	stopfail	0.322	Go_X	0.0
572.281	1.0	go	0.566	Go_X	0.0
574.805	1.0	go	0.48	Go_O	0.0
577.33	0.35	stopsuccess	0.0	Go_O	1.0
579.854	1.0	go	0.294	Go_X	0.0
582.378	1.0	go	0.445	Go_O	0.0
584.902	1.0	go	0.43	Go_X	0.0
587.426	1.0	go	0.362	Go_O	0.0
589.951	1.0	go	0.274	Go_X	0.0
592.475	1.0	go	0.301	Go_O	0.0
594.999	1.0	go	0.508	Go_X	0.0
597.523	1.0	go	0.614	Go_X	0.0
600.047	1.0	go	0.537	Go_O	0.0
602.571	1.0	go	0.732	Go_X	0.0
605.096	0.4	stopsuccess	0.0	Go_X	1.0
607.62	1.0	go	0.42	Go_O	0.0
610.144	1.0	go	0.569	Go_X	0.0
612.668	0.45	stopfail	0.79	Go_O	0.0
615.192	1.0	go	0.65	Go_O	0.0
617.717	0.4	stopfail	0.438	Go_X	0.0
620.241	1.0	go	0.527	Go_X	0.0
622.765	1.0	go	0.513	Go_O	0.0
625.289	0.35	stopsuccess	0.0	Go_O	1.0
627.813	1.0	go	0.499	Go_O	0.0
630.337	0.4	stopfail	0.508	Go_X	0.0
632.862	1.0	go	0.391	Go_X	0.0
635.386	1.0	go	0.52	Go_X	0.0
637.91	1.0	go	0.538	Go_O	0.0
640.434	0.35	stopsuccess	0.0	Go_O	1.0
642.958	1.0	go	0.503	Go_O	0.0
645.483	1.0	go	0.628	Go_X	0.0
648.007	1.0	go	0.454	Go_O	0.0
650.531	1.0	go	0.451	Go_X	0.0
653.055	0.4	stopfail	0.582	Go_X	0.0
655.579	1.0	go	0.437	Go_X	0.0
658.103	1.0	go	0.498	Go_O	0.0
660.628	0.35	stopfail	0.348	Go_O	0.0
663.152	1.0	go	0.721	Go_X	0.0
665.676	1.0	go	0.937	Go_O	0.0
668.2	1.0	go	0.449	Go_X	0.0
670.724	1.0	go	0.46	Go_O	0.0
673.249	0.3	stopsuccess	0.0	Go_X	1.0
675.773	1.0	go	0.509	Go_O	0.0
678.297	0.35	stopfail	0.499	Go_O	0.0
680.821	1.0	go	0.555	Go_X	0.0
683.345	1.0	go	0.72	Go_X	0.0
685.869	0.3	stopsuccess	0.0	Go_X	1.0
688.394	1.0	go	0.455	Go_O	0.0
690.918	1.0	go	0.526	Go_X	0.0
693.442	1.0	go	0.623	Go_O	0.0
695.966	1.0	go	0.604	Go_O	0.0
698.49	0.35	stopsuccess	0.0	Go_O	1.0
701.015	1.0	go	0.451	Go_X	0.0
703.539	0.4	stopfail	0.513	Go_X	0.0
706.063	1.0	go	0.382	Go_X	0.0
708.587	1.0	go	0.324	Go_O	0.0
711.111	1.0	go	0.521	Go_X	0.0
713.635	1.0	go	0.481	Go_O	0.0
716.16	1.0	go	0.525	Go_X	0.0
718.684	1.0	go	0.388	Go_O	0.0
721.208	0.35	stopsuccess	0.0	Go_O	1.0
723.732	1.0	go	0.571	Go_O	0.0
726.256	1.0	go	0.478	Go_X	0.0
728.781	0.4	stopfail	0.49	Go_X	0.0
731.305	1.0	go	0.323	Go_O	1.0
733.829	1.0	go	0.422	Go_X	0.0
736.353	0.35	stopfail	0.289	Go_O	0.0
738.877	1.0	go	0.698	Go_X	0.0
741.401	1.0	go	0.351	Go_O	0.0
743.926	1.0	go	0.521	Go_O	0.0
746.45	1.0	go	0.595	Go_X	0.0
748.974	0.3	stopsuccess	0.0	Go_X	1.0
751.498	1.0	go	0.499	Go_X	0.0
754.022	0.35	stopfail	0.519	Go_O	0.0
756.547	1.0	go	0.498	Go_O	0.0
759.071	1.0	go	0.279	Go_X	0.0
761.595	1.0	go	0.377	Go_O	0.0
764.119	1.0	go	0.473	Go_X	0.0
766.643	1.0	go	0.544	Go_O	0.0
769.167	0.3	stopfail	0.44	Go_X	0.0
771.692	1.0	go	0.649	Go_X	0.0
774.216	1.0	go	0.513	Go_O	0.0
776.74	0.25	stopsuccess	0.0	Go_O	1.0
779.264	0.3	stopfail	0.273	Go_X	0.0
781.788	1.0	go	0.285	Go_X	0.0
784.313	1.0	go	0.538	Go_O	0.0
786.837	1.0	go	0.325	Go_O	1.0
789.361	1.0	go	0.304	Go_X	0.0
791.885	0.25	stopfail	0.271	Go_O	0.0
794.409	1.0	go	0.445	Go_X	0.0
