onset	duration	trial_type	response_time	stim_file	accuracy
43.844	1.0	go	0.976	Go_O	1.0
46.435	1.0	go	0.559	Go_X	1.0
48.959	1.0	go	0.439	Go_O	1.0
51.483	1.0	go	0.58	Go_X	1.0
54.007	1.0	go	0.497	Go_O	1.0
56.531	1.0	go	0.437	Go_X	1.0
59.056	0.25	stop	0.0	Go_O	1.0
61.58	1.0	go	0.471	Go_O	1.0
64.104	0.3	stop	0.438	Go_X	0.0
66.628	1.0	go	0.543	Go_X	1.0
69.152	1.0	go	0.424	Go_O	1.0
71.677	1.0	go	0.533	Go_X	1.0
74.201	0.25	stop	0.0	Go_O	1.0
76.725	1.0	go	0.538	Go_X	1.0
79.249	1.0	go	0.713	Go_O	1.0
81.773	0.3	stop	0.0	Go_X	1.0
84.298	0.35	stop	0.0	Go_O	1.0
86.822	1.0	go	0.428	Go_X	1.0
89.346	1.0	go	0.587	Go_O	1.0
91.87	0.4	stop	0.485	Go_X	0.0
94.394	1.0	go	0.605	Go_X	1.0
96.919	1.0	go	0.556	Go_O	1.0
99.443	0.35	stop	0.48	Go_O	0.0
101.967	1.0	go	0.529	Go_X	1.0
104.491	1.0	go	0.467	Go_O	1.0
107.015	0.3	stop	0.0	Go_X	1.0
109.54	1.0	go	0.439	Go_O	1.0
112.064	1.0	go	0.537	Go_X	1.0
114.588	0.35	stop	0.0	Go_O	1.0
117.112	1.0	go	0.459	Go_O	1.0
119.636	1.0	go	0.63	Go_X	1.0
122.16	1.0	go	0.563	Go_X	1.0
124.685	1.0	go	0.433	Go_O	1.0
127.209	1.0	go	0.748	Go_O	1.0
129.733	0.4	stop	0.0	Go_X	1.0
132.257	1.0	go	0.47	Go_X	1.0
134.781	1.0	go	0.589	Go_X	1.0
137.306	1.0	go	0.4	Go_O	1.0
139.83	1.0	go	0.378	Go_X	1.0
142.354	1.0	go	0.25	Go_O	1.0
144.878	0.45	stop	0.396	Go_O	0.0
147.402	1.0	go	0.614	Go_O	1.0
149.927	1.0	go	0.347	Go_X	1.0
152.451	1.0	go	0.557	Go_X	1.0
154.975	1.0	go	0.486	Go_O	1.0
157.499	1.0	go	0.488	Go_O	1.0
160.023	1.0	go	0.42	Go_X	1.0
162.548	0.4	stop	0.339	Go_X	0.0
165.072	1.0	go	0.502	Go_X	1.0
167.596	1.0	go	0.484	Go_O	1.0
170.12	0.35	stop	0.0	Go_O	1.0
172.644	1.0	go	0.409	Go_O	1.0
175.168	0.4	stop	0.0	Go_X	1.0
177.693	0.45	stop	0.462	Go_O	0.0
180.217	1.0	go	0.638	Go_X	1.0
182.741	1.0	go	0.518	Go_O	1.0
185.265	1.0	go	0.38	Go_X	1.0
187.789	1.0	go	0.3	Go_O	1.0
190.314	0.4	stop	0.305	Go_X	0.0
192.838	1.0	go	0.289	Go_X	0.0
195.362	0.35	stop	0.437	Go_O	0.0
197.886	1.0	go	0.51	Go_O	1.0
200.41	1.0	go	0.688	Go_X	1.0
202.935	1.0	go	0.539	Go_X	1.0
205.459	1.0	go	0.372	Go_O	1.0
207.983	1.0	go	0.559	Go_O	1.0
210.507	1.0	go	0.569	Go_X	1.0
213.031	1.0	go	0.953	Go_X	1.0
215.556	1.0	go	0.65	Go_O	1.0
218.08	1.0	go	0.427	Go_O	1.0
220.604	0.3	stop	0.0	Go_X	1.0
223.128	1.0	go	0.393	Go_X	1.0
225.652	1.0	go	0.489	Go_X	1.0
228.177	1.0	go	0.58	Go_O	1.0
230.701	0.35	stop	0.0	Go_O	1.0
233.225	1.0	go	0.4	Go_O	1.0
235.749	1.0	go	0.534	Go_X	1.0
238.273	1.0	go	0.533	Go_X	1.0
240.798	1.0	go	0.529	Go_O	1.0
243.322	1.0	go	0.581	Go_X	1.0
245.846	1.0	go	0.561	Go_O	1.0
248.37	0.4	stop	0.0	Go_X	1.0
250.894	1.0	go	0.563	Go_O	1.0
253.418	1.0	go	0.562	Go_X	1.0
255.943	0.45	stop	0.57	Go_O	0.0
258.467	1.0	go	0.789	Go_X	1.0
260.991	1.0	go	0.517	Go_O	1.0
263.515	0.4	stop	0.0	Go_X	1.0
266.039	1.0	go	0.708	Go_O	1.0
268.564	0.45	stop	0.604	Go_O	0.0
271.088	1.0	go	0.526	Go_X	1.0
273.612	1.0	go	0.408	Go_O	1.0
276.136	1.0	go	0.565	Go_X	1.0
278.66	1.0	go	0.557	Go_X	1.0
281.185	1.0	go	0.379	Go_O	1.0
283.709	0.4	stop	0.0	Go_X	1.0
286.233	0.45	stop	0.453	Go_O	0.0
288.757	1.0	go	0.634	Go_X	1.0
291.281	1.0	go	0.604	Go_O	1.0
293.806	0.4	stop	0.567	Go_X	0.0
296.33	1.0	go	0.638	Go_X	1.0
298.854	1.0	go	0.44	Go_O	1.0
301.378	1.0	go	0.532	Go_X	1.0
303.902	1.0	go	0.512	Go_O	1.0
306.426	1.0	go	0.435	Go_X	1.0
308.951	1.0	go	0.438	Go_O	1.0
311.475	0.35	stop	0.418	Go_O	0.0
313.999	1.0	go	0.453	Go_O	1.0
316.523	1.0	go	0.464	Go_X	1.0
319.047	1.0	go	0.397	Go_X	1.0
321.572	1.0	go	0.311	Go_O	1.0
324.096	1.0	go	0.22	Go_X	1.0
326.62	0.3	stop	0.0	Go_X	1.0
329.144	1.0	go	0.332	Go_O	1.0
331.668	1.0	go	0.318	Go_X	1.0
334.193	1.0	go	0.345	Go_O	1.0
336.717	1.0	go	0.392	Go_X	1.0
339.241	0.35	stop	0.348	Go_O	0.0
341.765	1.0	go	0.565	Go_O	1.0
344.289	1.0	go	0.469	Go_X	1.0
346.814	0.3	stop	0.0	Go_X	1.0
349.338	1.0	go	0.541	Go_O	1.0
351.862	0.35	stop	0.482	Go_O	0.0
354.386	1.0	go	0.472	Go_O	1.0
356.91	1.0	go	0.582	Go_X	1.0
359.435	1.0	go	0.52	Go_O	1.0
361.959	1.0	go	0.351	Go_X	1.0
364.483	1.0	go	0.528	Go_O	1.0
367.007	1.0	go	0.555	Go_X	1.0
369.531	1.0	go	0.469	Go_X	1.0
372.056	0.3	stop	0.0	Go_X	1.0
374.58	1.0	go	0.503	Go_O	1.0
377.104	1.0	go	0.616	Go_X	1.0
379.628	1.0	go	0.402	Go_O	1.0
382.152	0.35	stop	0.415	Go_O	0.0
384.676	1.0	go	0.306	Go_X	1.0
387.201	1.0	go	0.51	Go_O	1.0
389.725	1.0	go	0.365	Go_O	1.0
392.249	1.0	go	0.491	Go_X	1.0
394.773	0.3	stop	0.0	Go_X	1.0
397.297	1.0	go	0.411	Go_O	1.0
399.822	1.0	go	0.714	Go_X	1.0
402.346	0.35	stop	0.506	Go_O	0.0
404.87	1.0	go	0.434	Go_X	1.0
407.394	1.0	go	0.729	Go_O	1.0
409.918	0.3	stop	0.447	Go_X	0.0
412.443	1.0	go	0.579	Go_X	1.0
414.967	1.0	go	0.624	Go_O	1.0
417.491	0.25	stop	0.429	Go_O	0.0
420.015	1.0	go	0.565	Go_O	1.0
422.539	1.0	go	0.345	Go_X	1.0
425.064	1.0	go	0.477	Go_O	1.0
427.588	1.0	go	0.47	Go_X	1.0
430.112	1.0	go	0.44	Go_X	1.0
432.636	1.0	go	0.36	Go_O	1.0
435.16	0.2	stop	0.362	Go_X	0.0
437.685	1.0	go	0.519	Go_O	1.0
440.209	0.15	stop	0.0	Go_O	1.0
442.733	1.0	go	0.355	Go_X	1.0
445.257	1.0	go	0.476	Go_O	1.0
447.781	1.0	go	0.486	Go_X	1.0
450.305	1.0	go	0.584	Go_X	0.0
452.83	1.0	go	0.374	Go_O	1.0
455.354	0.2	stop	0.0	Go_X	1.0
457.878	1.0	go	0.406	Go_O	1.0
460.402	1.0	go	0.339	Go_X	1.0
462.926	1.0	go	0.383	Go_O	1.0
465.451	0.25	stop	0.374	Go_O	0.0
467.975	0.2	stop	0.319	Go_X	0.0
470.499	0.15	stop	0.0	Go_O	1.0
473.023	1.0	go	0.375	Go_X	1.0
475.547	0.2	stop	0.0	Go_X	1.0
478.072	1.0	go	0.685	Go_O	1.0
480.596	1.0	go	0.439	Go_X	1.0
483.12	1.0	go	0.437	Go_X	1.0
485.644	1.0	go	0.59	Go_O	1.0
488.168	1.0	go	0.657	Go_X	1.0
490.693	1.0	go	0.384	Go_O	1.0
493.217	1.0	go	0.486	Go_O	1.0
495.741	1.0	go	0.372	Go_X	1.0
498.265	0.25	stop	0.0	Go_O	1.0
500.789	1.0	go	0.374	Go_O	1.0
503.313	1.0	go	0.474	Go_X	1.0
505.838	0.3	stop	0.0	Go_X	1.0
508.362	1.0	go	0.605	Go_O	1.0
510.886	1.0	go	0.488	Go_X	1.0
513.41	1.0	go	0.545	Go_X	1.0
515.934	1.0	go	0.356	Go_O	1.0
518.459	1.0	go	0.426	Go_X	1.0
520.983	0.35	stop	0.476	Go_O	0.0
523.507	1.0	go	0.424	Go_O	1.0
526.031	1.0	go	0.611	Go_X	1.0
528.555	1.0	go	0.628	Go_O	1.0
531.08	0.3	stop	0.0	Go_X	1.0
533.604	1.0	go	0.84	Go_O	1.0
536.128	0.35	stop	0.396	Go_O	0.0
538.652	1.0	go	0.417	Go_X	1.0
541.176	1.0	go	0.408	Go_X	1.0
543.701	1.0	go	0.421	Go_O	1.0
546.225	1.0	go	0.509	Go_O	1.0
548.749	1.0	go	0.463	Go_X	1.0
551.273	1.0	go	0.538	Go_O	1.0
553.797	1.0	go	0.487	Go_X	1.0
556.322	0.3	stop	0.0	Go_X	1.0
558.846	1.0	go	0.383	Go_X	1.0
561.37	1.0	go	0.496	Go_O	1.0
563.894	1.0	go	0.543	Go_O	1.0
566.418	1.0	go	0.409	Go_X	1.0
568.942	0.35	stop	0.39	Go_O	0.0
571.467	1.0	go	0.491	Go_X	1.0
573.991	0.3	stop	0.388	Go_X	0.0
576.515	1.0	go	0.562	Go_O	1.0
579.039	1.0	go	0.533	Go_X	1.0
581.563	0.25	stop	0.0	Go_O	1.0
584.088	1.0	go	0.529	Go_O	1.0
586.612	1.0	go	0.548	Go_X	1.0
589.136	1.0	go	0.4	Go_O	1.0
591.66	1.0	go	0.618	Go_O	1.0
594.184	1.0	go	0.68	Go_X	1.0
596.709	1.0	go	0.377	Go_X	1.0
599.233	1.0	go	0.323	Go_O	0.0
601.757	1.0	go	0.443	Go_X	1.0
604.281	1.0	go	0.496	Go_O	1.0
606.805	1.0	go	0.442	Go_O	1.0
609.33	0.3	stop	0.344	Go_X	0.0
611.854	1.0	go	0.422	Go_X	1.0
614.378	1.0	go	0.43	Go_X	1.0
616.902	0.25	stop	0.0	Go_O	1.0
619.426	1.0	go	0.513	Go_O	1.0
621.951	0.3	stop	0.417	Go_X	0.0
624.475	1.0	go	0.393	Go_X	1.0
626.999	1.0	go	0.625	Go_O	1.0
629.523	0.25	stop	0.0	Go_O	1.0
632.047	1.0	go	0.637	Go_X	1.0
634.571	0.3	stop	0.0	Go_X	1.0
637.096	1.0	go	0.637	Go_O	1.0
639.62	1.0	go	0.382	Go_O	1.0
642.144	1.0	go	0.419	Go_X	1.0
644.668	0.35	stop	0.0	Go_O	1.0
647.192	1.0	go	0.397	Go_X	1.0
649.717	1.0	go	0.449	Go_O	1.0
652.241	1.0	go	0.325	Go_O	1.0
654.765	1.0	go	0.348	Go_X	1.0
657.289	0.4	stop	0.516	Go_X	0.0
659.813	1.0	go	0.592	Go_X	1.0
662.338	1.0	go	0.502	Go_O	1.0
664.862	0.35	stop	0.336	Go_O	0.0
667.386	1.0	go	0.526	Go_X	1.0
669.91	1.0	go	0.488	Go_O	1.0
672.434	1.0	go	0.46	Go_O	1.0
674.959	1.0	go	0.555	Go_X	1.0
677.483	0.3	stop	0.0	Go_X	1.0
680.007	1.0	go	0.516	Go_X	1.0
682.531	0.35	stop	0.0	Go_O	1.0
685.055	1.0	go	0.501	Go_O	1.0
687.58	1.0	go	0.566	Go_O	1.0
690.104	0.4	stop	0.0	Go_X	1.0
692.628	1.0	go	0.457	Go_X	1.0
695.152	1.0	go	0.606	Go_X	1.0
697.676	1.0	go	0.475	Go_O	1.0
700.2	1.0	go	0.622	Go_O	1.0
702.725	0.45	stop	0.485	Go_O	0.0
705.249	1.0	go	0.577	Go_X	1.0
707.773	0.4	stop	0.457	Go_X	0.0
710.297	1.0	go	0.446	Go_X	1.0
712.821	1.0	go	0.668	Go_O	1.0
715.346	1.0	go	0.389	Go_X	1.0
717.87	1.0	go	0.608	Go_O	1.0
720.394	1.0	go	0.523	Go_X	1.0
722.918	1.0	go	0.447	Go_O	1.0
725.442	0.35	stop	0.498	Go_O	0.0
727.967	1.0	go	0.387	Go_X	1.0
730.491	1.0	go	0.413	Go_O	1.0
733.015	0.3	stop	0.0	Go_X	1.0
735.539	1.0	go	0.422	Go_O	1.0
738.063	1.0	go	0.457	Go_X	1.0
740.588	0.35	stop	0.0	Go_O	1.0
743.112	1.0	go	0.602	Go_O	1.0
745.636	1.0	go	0.0	Go_X	0.0
748.16	1.0	go	0.401	Go_O	1.0
750.684	1.0	go	0.387	Go_X	1.0
753.209	0.4	stop	0.56	Go_X	0.0
755.733	1.0	go	0.452	Go_X	1.0
758.257	0.35	stop	0.483	Go_O	0.0
760.781	1.0	go	0.522	Go_O	1.0
763.305	1.0	go	0.482	Go_X	1.0
765.829	1.0	go	0.716	Go_O	1.0
768.354	1.0	go	0.606	Go_X	1.0
770.878	1.0	go	0.405	Go_O	1.0
773.402	0.3	stop	0.0	Go_X	1.0
775.926	1.0	go	0.41	Go_O	1.0
778.45	1.0	go	0.562	Go_X	1.0
780.975	0.35	stop	0.622	Go_O	0.0
783.499	0.3	stop	0.0	Go_X	1.0
786.023	1.0	go	0.392	Go_O	1.0
788.547	1.0	go	0.536	Go_X	1.0
791.071	1.0	go	0.54	Go_O	1.0
793.596	1.0	go	0.547	Go_X	1.0
796.12	0.35	stop	0.0	Go_O	1.0
798.644	1.0	go	0.656	Go_O	1.0
