frame	onset	duration	trial_type	event_type	response_type	response_time	stim_file	accuracy
0	231.728		loss-noreward	ImageDisplay1		0.0		
0	233.968	0.75	loss-noreward	StartDisplay				
0	234.721		loss-noreward	ImageDisplay2		0.0		
0	237.713	1.6	loss-noreward	ChoiceDisplay	1	0.681	1	1
0	238.415	0.919	loss-noreward	ChosenDisplay		0.0		
0	239.318	0.25	loss-noreward	TurnDisplay				
0	239.569	0.75	loss-noreward	OutcomeDisplay				
1	240.321		loss-reward	ImageDisplay1		0.0		
1	242.31	0.75	loss-reward	StartDisplay				
1	243.062		loss-reward	ImageDisplay2		0.0		
1	246.322	1.6	loss-reward	ChoiceDisplay	1	0.491	1	1
1	246.84	1.109	loss-reward	ChosenDisplay		0.0		
1	247.927	0.25	loss-reward	TurnDisplay				
1	248.178	0.75	loss-reward	OutcomeDisplay				
2	248.93		control-reward	ImageDisplay1		0.0		
2	250.919	0.75	control-reward	StartDisplay				
2	251.671		control-reward	ImageDisplay2		0.0		
2	254.931	1.6	control-reward	ChoiceDisplay	1	0.871	1	1
2	255.817	0.729	control-reward	ChosenDisplay		0.0		
2	256.536	0.25	control-reward	TurnDisplay				
2	256.787	0.75	control-reward	OutcomeDisplay				
3	257.539		win-reward	ImageDisplay1		0.0		
3	259.779	0.75	win-reward	StartDisplay				
3	260.531		win-reward	ImageDisplay2		0.0		
3	263.54	1.6	win-reward	ChoiceDisplay	1	0.392	1	1
3	263.958	1.208	win-reward	ChosenDisplay		0.0		
3	265.145	0.25	win-reward	TurnDisplay				
3	265.396	0.75	win-reward	OutcomeDisplay				
4	266.148		win-reward	ImageDisplay1		0.0		
4	268.137	0.75	win-reward	StartDisplay				
4	268.889		win-reward	ImageDisplay2		0.0		
4	272.149	1.6	win-reward	ChoiceDisplay	1	0.673	1	1
4	272.834	0.927	win-reward	ChosenDisplay		0.0		
4	273.754	0.25	win-reward	TurnDisplay				
4	274.005	0.75	win-reward	OutcomeDisplay				
5	274.757		control-noreward	ImageDisplay1		0.0		
5	276.746	0.75	control-noreward	StartDisplay				
5	277.498		control-noreward	ImageDisplay2		0.0		
5	280.758	1.6	control-noreward	ChoiceDisplay	1	0.4	1	1
5	281.176	1.2	control-noreward	ChosenDisplay		0.0		
5	282.363	0.25	control-noreward	TurnDisplay				
5	282.614	0.75	control-noreward	OutcomeDisplay				
6	283.366		control-reward	ImageDisplay1		0.0		
6	285.355	0.75	control-reward	StartDisplay				
6	286.107		control-reward	ImageDisplay2		0.0		
6	289.367	1.6	control-reward	ChoiceDisplay	1	0.759	1	1
6	290.153	0.841	control-reward	ChosenDisplay		0.0		
6	290.972	0.25	control-reward	TurnDisplay				
6	291.222	0.75	control-reward	OutcomeDisplay				
7	291.975		loss-reward	ImageDisplay1		0.0		
7	293.964	0.75	loss-reward	StartDisplay				
7	294.716		loss-reward	ImageDisplay2		0.0		
7	297.976	1.6	loss-reward	ChoiceDisplay	1	0.667	1	1
7	298.661	0.933	loss-reward	ChosenDisplay		0.0		
7	299.581	0.25	loss-reward	TurnDisplay				
7	299.831	0.75	loss-reward	OutcomeDisplay				
8	300.584		control-noreward	ImageDisplay1		0.0		
8	302.573	0.75	control-noreward	StartDisplay				
8	303.325		control-noreward	ImageDisplay2		0.0		
8	306.585	1.6	control-noreward	ChoiceDisplay	1	0.667	1	1
8	307.27	0.933	control-noreward	ChosenDisplay		0.0		
8	308.19	0.25	control-noreward	TurnDisplay				
8	308.44	0.75	control-noreward	OutcomeDisplay				
9	309.193		control-reward	ImageDisplay1		0.0		
9	311.182	0.75	control-reward	StartDisplay				
9	311.934		control-reward	ImageDisplay2		0.0		
9	315.194	1.6	control-reward	ChoiceDisplay	1	0.259	1	1
9	315.478	1.341	control-reward	ChosenDisplay		0.0		
9	316.799	0.25	control-reward	TurnDisplay				
9	317.049	0.75	control-reward	OutcomeDisplay				
10	317.802		loss-noreward	ImageDisplay1		0.0		
10	320.042	0.75	loss-noreward	StartDisplay				
10	320.794		loss-noreward	ImageDisplay2		0.0		
10	323.803	1.6	loss-noreward	ChoiceDisplay	1	0.675	1	1
10	324.505	0.925	loss-noreward	ChosenDisplay		0.0		
10	325.408	0.25	loss-noreward	TurnDisplay				
10	325.658	0.75	loss-noreward	OutcomeDisplay				
11	326.411		control-reward	ImageDisplay1		0.0		
11	328.651	0.75	control-reward	StartDisplay				
11	329.403		control-reward	ImageDisplay2		0.0		
11	332.412	1.6	control-reward	ChoiceDisplay	1	0.55	1	1
11	332.98	1.05	control-reward	ChosenDisplay		0.0		
11	334.017	0.25	control-reward	TurnDisplay				
11	334.267	0.75	control-reward	OutcomeDisplay				
12	335.02		control-noreward	ImageDisplay1		0.0		
12	337.009	0.75	control-noreward	StartDisplay				
12	337.761		control-noreward	ImageDisplay2		0.0		
12	341.021	1.6	control-noreward	ChoiceDisplay	1	0.57	1	1
12	341.606	1.03	control-noreward	ChosenDisplay		0.0		
12	342.626	0.25	control-noreward	TurnDisplay				
12	342.876	0.75	control-noreward	OutcomeDisplay				
13	343.629		loss-reward	ImageDisplay1		0.0		
13	345.618	0.75	loss-reward	StartDisplay				
13	346.37		loss-reward	ImageDisplay2		0.0		
13	349.63	1.6	loss-reward	ChoiceDisplay	1	0.553	1	1
13	350.198	1.047	loss-reward	ChosenDisplay		0.0		
13	351.235	0.25	loss-reward	TurnDisplay				
13	351.485	0.75	loss-reward	OutcomeDisplay				
14	352.238		loss-noreward	ImageDisplay1		0.0		
14	354.227	0.75	loss-noreward	StartDisplay				
14	354.979		loss-noreward	ImageDisplay2		0.0		
14	358.239	1.6	loss-noreward	ChoiceDisplay	1	0.646	1	1
14	358.908	0.954	loss-noreward	ChosenDisplay		0.0		
14	359.844	0.25	loss-noreward	TurnDisplay				
14	360.095	0.75	loss-noreward	OutcomeDisplay				
15	360.847		loss-reward	ImageDisplay1		0.0		
15	362.836	0.75	loss-reward	StartDisplay				
15	363.588		loss-reward	ImageDisplay2		0.0		
15	366.848	1.6	loss-reward	ChoiceDisplay	1	0.532	1	1
15	367.4	1.068	loss-reward	ChosenDisplay		0.0		
15	368.453	0.25	loss-reward	TurnDisplay				
15	368.704	0.75	loss-reward	OutcomeDisplay				
16	369.456		win-noreward	ImageDisplay1		0.0		
16	371.696	0.75	win-noreward	StartDisplay				
16	372.448		win-noreward	ImageDisplay2		0.0		
16	375.457	1.6	win-noreward	ChoiceDisplay	1	0.515	1	1
16	375.992	1.085	win-noreward	ChosenDisplay		0.0		
16	377.062	0.25	win-noreward	TurnDisplay				
16	377.313	0.75	win-noreward	OutcomeDisplay				
17	378.065		loss-reward	ImageDisplay1		0.0		
17	380.305	0.75	loss-reward	StartDisplay				
17	381.057		loss-reward	ImageDisplay2		0.0		
17	384.066	1.6	loss-reward	ChoiceDisplay	1	0.735	1	1
17	384.818	0.865	loss-reward	ChosenDisplay		0.0		
17	385.671	0.25	loss-reward	TurnDisplay				
17	385.922	0.75	loss-reward	OutcomeDisplay				
18	386.674		win-reward	ImageDisplay1		0.0		
18	388.663	0.75	win-reward	StartDisplay				
18	389.415		win-reward	ImageDisplay2		0.0		
18	392.675	1.6	win-reward	ChoiceDisplay	1	0.71	1	1
18	393.41	0.89	win-reward	ChosenDisplay		0.0		
18	394.28	0.25	win-reward	TurnDisplay				
18	394.53	0.75	win-reward	OutcomeDisplay				
19	395.283		win-noreward	ImageDisplay1		0.0		
19	397.272	0.75	win-noreward	StartDisplay				
19	398.024		win-noreward	ImageDisplay2		0.0		
19	401.284	1.6	win-noreward	ChoiceDisplay	1	0.788	1	1
19	402.086	0.812	win-noreward	ChosenDisplay		0.0		
19	402.889	0.25	win-noreward	TurnDisplay				
19	403.139	0.75	win-noreward	OutcomeDisplay				
20	403.892		control-noreward	ImageDisplay1		0.0		
20	406.132	0.75	control-noreward	StartDisplay				
20	406.884		control-noreward	ImageDisplay2		0.0		
20	409.893	1.6	control-noreward	ChoiceDisplay	1	0.802	1	1
20	410.712	0.798	control-noreward	ChosenDisplay		0.0		
20	411.498	0.25	control-noreward	TurnDisplay				
20	411.749	0.75	control-noreward	OutcomeDisplay				
21	412.501		control-reward	ImageDisplay1		0.0		
21	414.49	0.75	control-reward	StartDisplay				
21	415.242		control-reward	ImageDisplay2		0.0		
21	418.502	1.6	control-reward	ChoiceDisplay	1	0.764	1	1
21	419.288	0.836	control-reward	ChosenDisplay		0.0		
21	420.107	0.25	control-reward	TurnDisplay				
21	420.357	0.75	control-reward	OutcomeDisplay				
22	421.11		win-reward	ImageDisplay1		0.0		
22	423.35	0.75	win-reward	StartDisplay				
22	424.102		win-reward	ImageDisplay2		0.0		
22	427.111	1.6	win-reward	ChoiceDisplay	1	0.628	1	1
22	427.763	0.972	win-reward	ChosenDisplay		0.0		
22	428.716	0.25	win-reward	TurnDisplay				
22	428.966	0.75	win-reward	OutcomeDisplay				
23	429.719		loss-noreward	ImageDisplay1		0.0		
23	431.708	0.75	loss-noreward	StartDisplay				
23	432.46		loss-noreward	ImageDisplay2		0.0		
23	435.72	1.6	loss-noreward	ChoiceDisplay	1	0.655	1	1
23	436.389	0.945	loss-noreward	ChosenDisplay		0.0		
23	437.325	0.25	loss-noreward	TurnDisplay				
23	437.575	0.75	loss-noreward	OutcomeDisplay				
24	438.328		loss-reward	ImageDisplay1		0.0		
24	440.317	0.75	loss-reward	StartDisplay				
24	441.069		loss-reward	ImageDisplay2		0.0		
24	444.329	1.6	loss-reward	ChoiceDisplay	1	0.618	1	1
24	444.964	0.982	loss-reward	ChosenDisplay		0.0		
24	445.934	0.25	loss-reward	TurnDisplay				
24	446.185	0.75	loss-reward	OutcomeDisplay				
25	446.937		win-reward	ImageDisplay1		0.0		
25	449.177	0.75	win-reward	StartDisplay				
25	449.929		win-reward	ImageDisplay2		0.0		
25	452.938	1.6	win-reward	ChoiceDisplay	1	0.546	1	1
25	453.506	1.054	win-reward	ChosenDisplay		0.0		
25	454.543	0.25	win-reward	TurnDisplay				
25	454.794	0.75	win-reward	OutcomeDisplay				
26	455.546		loss-noreward	ImageDisplay1		0.0		
26	457.535	0.75	loss-noreward	StartDisplay				
26	458.287		loss-noreward	ImageDisplay2		0.0		
26	461.547	1.6	loss-noreward	ChoiceDisplay	1	0.982	1	1
26	462.55	0.618	loss-noreward	ChosenDisplay		0.0		
26	463.152	0.25	loss-noreward	TurnDisplay				
26	463.402	0.75	loss-noreward	OutcomeDisplay				
27	464.155		win-noreward	ImageDisplay1		0.0		
27	466.395	0.75	win-noreward	StartDisplay				
27	467.147		win-noreward	ImageDisplay2		0.0		
27	470.156	1.6	win-noreward	ChoiceDisplay	1	0.706	1	1
27	470.875	0.894	win-noreward	ChosenDisplay		0.0		
27	471.761	0.25	win-noreward	TurnDisplay				
27	472.011	0.75	win-noreward	OutcomeDisplay				
28	472.764		loss-reward	ImageDisplay1		0.0		
28	474.753	0.75	loss-reward	StartDisplay				
28	475.505		loss-reward	ImageDisplay2		0.0		
28	478.765	1.6	loss-reward	ChoiceDisplay	1	0.468	1	1
28	479.25	1.132	loss-reward	ChosenDisplay		0.0		
28	480.37	0.25	loss-reward	TurnDisplay				
28	480.621	0.75	loss-reward	OutcomeDisplay				
29	481.373		loss-reward	ImageDisplay1		0.0		
29	483.362	0.75	loss-reward	StartDisplay				
29	484.114		loss-reward	ImageDisplay2		0.0		
29	487.374	1.6	loss-reward	ChoiceDisplay	1	0.488	1	1
29	487.875	1.112	loss-reward	ChosenDisplay		0.0		
29	488.979	0.25	loss-reward	TurnDisplay				
29	489.229	0.75	loss-reward	OutcomeDisplay				
30	489.982		loss-reward	ImageDisplay1		0.0		
30	492.222	0.75	loss-reward	StartDisplay				
30	492.974		loss-reward	ImageDisplay2		0.0		
30	495.983	1.6	loss-reward	ChoiceDisplay	1	0.511	1	1
30	496.518	1.089	loss-reward	ChosenDisplay		0.0		
30	497.588	0.25	loss-reward	TurnDisplay				
30	497.838	0.75	loss-reward	OutcomeDisplay				
31	498.591		loss-noreward	ImageDisplay1		0.0		
31	500.58	0.75	loss-noreward	StartDisplay				
31	501.332		loss-noreward	ImageDisplay2		0.0		
31	504.592	1.6	loss-noreward	ChoiceDisplay	1	0.599	1	1
31	505.21	1.001	loss-noreward	ChosenDisplay		0.0		
31	506.197	0.25	loss-noreward	TurnDisplay				
31	506.447	0.75	loss-noreward	OutcomeDisplay				
32	507.2		loss-reward	ImageDisplay1		0.0		
32	509.44	0.75	loss-reward	StartDisplay				
32	510.192		loss-reward	ImageDisplay2		0.0		
32	513.201	1.6	loss-reward	ChoiceDisplay	1	0.848	1	1
32	514.07	0.752	loss-reward	ChosenDisplay		0.0		
32	514.806	0.25	loss-reward	TurnDisplay				
32	515.056	0.75	loss-reward	OutcomeDisplay				
33	515.809		loss-reward	ImageDisplay1		0.0		
33	518.049	0.75	loss-reward	StartDisplay				
33	518.801		loss-reward	ImageDisplay2		0.0		
33	521.81	1.6	loss-reward	ChoiceDisplay	1	0.858	1	1
33	522.696	0.742	loss-reward	ChosenDisplay		0.0		
33	523.415	0.25	loss-reward	TurnDisplay				
33	523.665	0.75	loss-reward	OutcomeDisplay				
34	524.418		control-reward	ImageDisplay1		0.0		
34	526.658	0.75	control-reward	StartDisplay				
34	527.41		control-reward	ImageDisplay2		0.0		
34	530.419	1.6	control-reward	ChoiceDisplay	1	0.769	1	1
34	531.205	0.831	control-reward	ChosenDisplay		0.0		
34	532.024	0.25	control-reward	TurnDisplay				
34	532.274	0.75	control-reward	OutcomeDisplay				
35	533.027		control-noreward	ImageDisplay1		0.0		
35	535.016	0.75	control-noreward	StartDisplay				
35	535.768		control-noreward	ImageDisplay2		0.0		
35	539.028	1.6	control-noreward	ChoiceDisplay	1	0.849	1	1
35	539.897	0.751	control-noreward	ChosenDisplay		0.0		
35	540.633	0.25	control-noreward	TurnDisplay				
35	540.884	0.75	control-noreward	OutcomeDisplay				
36	541.636		control-noreward	ImageDisplay1		0.0		
36	543.876	0.75	control-noreward	StartDisplay				
36	544.628		control-noreward	ImageDisplay2		0.0		
36	547.637	1.6	control-noreward	ChoiceDisplay	1	0.678	1	1
36	548.339	0.922	control-noreward	ChosenDisplay		0.0		
36	549.242	0.25	control-noreward	TurnDisplay				
36	549.492	0.75	control-noreward	OutcomeDisplay				
37	550.245		loss-reward	ImageDisplay1		0.0		
37	552.485	0.75	loss-reward	StartDisplay				
37	553.237		loss-reward	ImageDisplay2		0.0		
37	556.246	1.6	loss-reward	ChoiceDisplay	1	0.579	1	1
37	556.848	1.021	loss-reward	ChosenDisplay		0.0		
37	557.851	0.25	loss-reward	TurnDisplay				
37	558.102	0.75	loss-reward	OutcomeDisplay				
38	558.854		win-noreward	ImageDisplay1		0.0		
38	560.843	0.75	win-noreward	StartDisplay				
38	561.595		win-noreward	ImageDisplay2		0.0		
38	564.855	1.6	win-noreward	ChoiceDisplay	1	0.501	1	1
38	565.373	1.099	win-noreward	ChosenDisplay		0.0		
38	566.46	0.25	win-noreward	TurnDisplay				
38	566.71	0.75	win-noreward	OutcomeDisplay				
39	567.463		control-noreward	ImageDisplay1		0.0		
39	569.703	0.75	control-noreward	StartDisplay				
39	570.455		control-noreward	ImageDisplay2		0.0		
39	573.464	1.6	control-noreward	ChoiceDisplay	1	0.618	1	1
39	574.099	0.982	control-noreward	ChosenDisplay		0.0		
39	575.069	0.25	control-noreward	TurnDisplay				
39	575.32	0.75	control-noreward	OutcomeDisplay				
40	576.072		loss-noreward	ImageDisplay1		0.0		
40	578.312	0.75	loss-noreward	StartDisplay				
40	579.064		loss-noreward	ImageDisplay2		0.0		
40	582.073	1.6	loss-noreward	ChoiceDisplay	1	0.642	1	1
40	582.742	0.958	loss-noreward	ChosenDisplay		0.0		
40	583.678	0.25	loss-noreward	TurnDisplay				
40	583.928	0.75	loss-noreward	OutcomeDisplay				
41	584.681		win-noreward	ImageDisplay1		0.0		
41	586.67	0.75	win-noreward	StartDisplay				
41	587.422		win-noreward	ImageDisplay2		0.0		
41	590.682	1.6	win-noreward	ChoiceDisplay	1	0.787	1	1
41	591.484	0.813	win-noreward	ChosenDisplay		0.0		
41	592.287	0.25	win-noreward	TurnDisplay				
41	592.537	0.75	win-noreward	OutcomeDisplay				
42	593.29		win-noreward	ImageDisplay1		0.0		
42	595.279	0.75	win-noreward	StartDisplay				
42	596.031		win-noreward	ImageDisplay2		0.0		
42	599.291	1.6	win-noreward	ChoiceDisplay	1	0.726	1	1
42	600.043	0.874	win-noreward	ChosenDisplay		0.0		
42	600.896	0.25	win-noreward	TurnDisplay				
42	601.146	0.75	win-noreward	OutcomeDisplay				
43	601.899		win-noreward	ImageDisplay1		0.0		
43	604.139	0.75	win-noreward	StartDisplay				
43	604.891		win-noreward	ImageDisplay2		0.0		
43	607.9	1.6	win-noreward	ChoiceDisplay	1	0.482	1	1
43	608.401	1.118	win-noreward	ChosenDisplay		0.0		
43	609.505	0.25	win-noreward	TurnDisplay				
43	609.756	0.75	win-noreward	OutcomeDisplay				
44	610.508		loss-reward	ImageDisplay1		0.0		
44	612.748	0.75	loss-reward	StartDisplay				
44	613.5		loss-reward	ImageDisplay2		0.0		
44	616.509	1.6	loss-reward	ChoiceDisplay	1	0.447	1	1
44	616.977	1.153	loss-reward	ChosenDisplay		0.0		
44	618.114	0.25	loss-reward	TurnDisplay				
44	618.364	0.75	loss-reward	OutcomeDisplay				
45	619.117		control-noreward	ImageDisplay1		0.0		
45	621.106	0.75	control-noreward	StartDisplay				
45	621.858		control-noreward	ImageDisplay2		0.0		
45	625.118	1.6	control-noreward	ChoiceDisplay	1	0.545	1	1
45	625.686	1.055	control-noreward	ChosenDisplay		0.0		
45	626.723	0.25	control-noreward	TurnDisplay				
45	626.973	0.75	control-noreward	OutcomeDisplay				
46	627.726		control-noreward	ImageDisplay1		0.0		
46	629.966	0.75	control-noreward	StartDisplay				
46	630.718		control-noreward	ImageDisplay2		0.0		
46	633.727	1.6	control-noreward	ChoiceDisplay	1	0.607	1	1
46	634.362	0.993	control-noreward	ChosenDisplay		0.0		
46	635.332	0.25	control-noreward	TurnDisplay				
46	635.582	0.75	control-noreward	OutcomeDisplay				
47	636.335		win-noreward	ImageDisplay1		0.0		
47	638.575	0.75	win-noreward	StartDisplay				
47	639.327		win-noreward	ImageDisplay2		0.0		
47	642.336	1.6	win-noreward	ChoiceDisplay	1	0.563	1	1
47	642.921	1.037	win-noreward	ChosenDisplay		0.0		
47	643.941	0.25	win-noreward	TurnDisplay				
47	644.191	0.75	win-noreward	OutcomeDisplay				
48	644.944		win-reward	ImageDisplay1		0.0		
48	646.933	0.75	win-reward	StartDisplay				
48	647.685		win-reward	ImageDisplay2		0.0		
48	650.945	1.6	win-reward	ChoiceDisplay	1	0.471	1	1
48	651.43	1.129	win-reward	ChosenDisplay		0.0		
48	652.55	0.25	win-reward	TurnDisplay				
48	652.8	0.75	win-reward	OutcomeDisplay				
49	653.553		control-reward	ImageDisplay1		0.0		
49	655.793	0.75	control-reward	StartDisplay				
49	656.545		control-reward	ImageDisplay2		0.0		
49	659.554	1.6	control-reward	ChoiceDisplay	1	0.632	1	1
49	660.206	0.968	control-reward	ChosenDisplay		0.0		
49	661.159	0.25	control-reward	TurnDisplay				
49	661.41	0.75	control-reward	OutcomeDisplay				
50	662.162		control-noreward	ImageDisplay1		0.0		
50	664.151	0.75	control-noreward	StartDisplay				
50	664.903		control-noreward	ImageDisplay2		0.0		
50	668.163	1.6	control-noreward	ChoiceDisplay	1	0.62	1	1
50	668.798	0.98	control-noreward	ChosenDisplay		0.0		
50	669.768	0.25	control-noreward	TurnDisplay				
50	670.019	0.75	control-noreward	OutcomeDisplay				
51	670.771		control-noreward	ImageDisplay1		0.0		
51	672.76	0.75	control-noreward	StartDisplay				
51	673.512		control-noreward	ImageDisplay2		0.0		
51	676.772	1.6	control-noreward	ChoiceDisplay	1	0.733	1	1
51	677.524	0.867	control-noreward	ChosenDisplay		0.0		
51	678.377	0.25	control-noreward	TurnDisplay				
51	678.627	0.75	control-noreward	OutcomeDisplay				
52	679.38		win-reward	ImageDisplay1		0.0		
52	681.62	0.75	win-reward	StartDisplay				
52	682.372		win-reward	ImageDisplay2		0.0		
52	685.381	1.6	win-reward	ChoiceDisplay	1	0.719	1	1
52	686.116	0.881	win-reward	ChosenDisplay		0.0		
52	686.986	0.25	win-reward	TurnDisplay				
52	687.236	0.75	win-reward	OutcomeDisplay				
53	687.989		win-reward	ImageDisplay1		0.0		
53	690.229	0.75	win-reward	StartDisplay				
53	690.981		win-reward	ImageDisplay2		0.0		
53	693.99	1.6	win-reward	ChoiceDisplay	1	0.82	1	1
53	694.826	0.78	win-reward	ChosenDisplay		0.0		
53	695.595	0.25	win-reward	TurnDisplay				
53	695.846	0.75	win-reward	OutcomeDisplay				
54	696.598		control-reward	ImageDisplay1		0.0		
54	698.587	0.75	control-reward	StartDisplay				
54	699.339		control-reward	ImageDisplay2		0.0		
54	702.599	1.6	control-reward	ChoiceDisplay	1	0.741	1	1
54	703.368	0.859	control-reward	ChosenDisplay		0.0		
54	704.204	0.25	control-reward	TurnDisplay				
54	704.454	0.75	control-reward	OutcomeDisplay				
55	705.207		win-reward	ImageDisplay1		0.0		
55	707.447	0.75	win-reward	StartDisplay				
55	708.199		win-reward	ImageDisplay2		0.0		
55	711.208	1.6	win-reward	ChoiceDisplay	1	0.874	1	1
55	712.094	0.726	win-reward	ChosenDisplay		0.0		
55	712.813	0.25	win-reward	TurnDisplay				
55	713.063	0.75	win-reward	OutcomeDisplay				
56	713.816		win-reward	ImageDisplay1		0.0		
56	715.805	0.75	win-reward	StartDisplay				
56	716.557		win-reward	ImageDisplay2		0.0		
56	719.817	1.6	win-reward	ChoiceDisplay	1	0.789	1	1
56	720.619	0.811	win-reward	ChosenDisplay		0.0		
56	721.422	0.25	win-reward	TurnDisplay				
56	721.672	0.75	win-reward	OutcomeDisplay				
57	722.425		win-noreward	ImageDisplay1		0.0		
57	724.414	0.75	win-noreward	StartDisplay				
57	725.166		win-noreward	ImageDisplay2		0.0		
57	728.426	1.6	win-noreward	ChoiceDisplay	1	0.787	1	1
57	729.228	0.813	win-noreward	ChosenDisplay		0.0		
57	730.031	0.25	win-noreward	TurnDisplay				
57	730.281	0.75	win-noreward	OutcomeDisplay				
58	731.034		control-noreward	ImageDisplay1		0.0		
58	733.274	0.75	control-noreward	StartDisplay				
58	734.026		control-noreward	ImageDisplay2		0.0		
58	737.035	1.6	control-noreward	ChoiceDisplay	1	0.996	1	1
58	738.055	0.604	control-noreward	ChosenDisplay		0.0		
58	738.64	0.25	control-noreward	TurnDisplay				
58	738.89	0.75	control-noreward	OutcomeDisplay				
59	739.643		loss-noreward	ImageDisplay1		0.0		
59	741.632	0.75	loss-noreward	StartDisplay				
59	742.384		loss-noreward	ImageDisplay2		0.0		
59	745.644	1.6	loss-noreward	ChoiceDisplay	1	0.647	1	1
59	746.313	0.953	loss-noreward	ChosenDisplay		0.0		
59	747.249	0.25	loss-noreward	TurnDisplay				
59	747.5	0.75	loss-noreward	OutcomeDisplay				
60	748.252		win-reward	ImageDisplay1		0.0		
60	750.241	0.75	win-reward	StartDisplay				
60	750.993		win-reward	ImageDisplay2		0.0		
60	754.253	1.6	win-reward	ChoiceDisplay	1	0.966	1	1
60	755.239	0.634	win-reward	ChosenDisplay		0.0		
60	755.858	0.25	win-reward	TurnDisplay				
60	756.109	0.75	win-reward	OutcomeDisplay				
61	756.861		control-reward	ImageDisplay1		0.0		
61	759.101	0.75	control-reward	StartDisplay				
61	759.853		control-reward	ImageDisplay2		0.0		
61	762.862	1.6	control-reward	ChoiceDisplay	1	0.878	1	1
61	763.765	0.722	control-reward	ChosenDisplay		0.0		
61	764.467	0.25	control-reward	TurnDisplay				
61	764.717	0.75	control-reward	OutcomeDisplay				
62	765.47		loss-noreward	ImageDisplay1		0.0		
62	767.459	0.75	loss-noreward	StartDisplay				
62	768.211		loss-noreward	ImageDisplay2		0.0		
62	771.471	1.6	loss-noreward	ChoiceDisplay	1	0.989	1	1
62	772.474	0.611	loss-noreward	ChosenDisplay		0.0		
62	773.076	0.25	loss-noreward	TurnDisplay				
62	773.327	0.75	loss-noreward	OutcomeDisplay				
63	774.079		control-reward	ImageDisplay1		0.0		
63	776.068	0.75	control-reward	StartDisplay				
63	776.82		control-reward	ImageDisplay2		0.0		
63	780.08	1.6	control-reward	ChoiceDisplay	1	0.986	1	1
63	781.083	0.614	control-reward	ChosenDisplay		0.0		
63	781.685	0.25	control-reward	TurnDisplay				
63	781.935	0.75	control-reward	OutcomeDisplay				
64	782.688		win-reward	ImageDisplay1		0.0		
64	784.677	0.75	win-reward	StartDisplay				
64	785.429		win-reward	ImageDisplay2		0.0		
64	788.689	1.6	win-reward	ChoiceDisplay	1	0.859	1	1
64	789.575	0.741	win-reward	ChosenDisplay		0.0		
64	790.294	0.25	win-reward	TurnDisplay				
64	790.544	0.75	win-reward	OutcomeDisplay				
65	791.297		control-noreward	ImageDisplay1		0.0		
65	793.537	0.75	control-noreward	StartDisplay				
65	794.289		control-noreward	ImageDisplay2		0.0		
65	797.298	1.6	control-noreward	ChoiceDisplay	1	1.211	1	1
65	798.535	0.389	control-noreward	ChosenDisplay		0.0		
65	798.903	0.25	control-noreward	TurnDisplay				
65	799.153	0.75	control-noreward	OutcomeDisplay				
66	799.906		win-noreward	ImageDisplay1		0.0		
66	801.895	0.75	win-noreward	StartDisplay				
66	802.647		win-noreward	ImageDisplay2		0.0		
66	805.907	1.6	win-noreward	ChoiceDisplay	1	1.206	1	1
66	807.127	0.394	win-noreward	ChosenDisplay		0.0		
66	807.512	0.25	win-noreward	TurnDisplay				
66	807.762	0.75	win-noreward	OutcomeDisplay				
67	808.515		loss-reward	ImageDisplay1		0.0		
67	810.504	0.75	loss-reward	StartDisplay				
67	811.256		loss-reward	ImageDisplay2		0.0		
67	814.516	1.6	loss-reward	ChoiceDisplay	1	0.956	1	1
67	815.486	0.644	loss-reward	ChosenDisplay		0.0		
67	816.121	0.25	loss-reward	TurnDisplay				
67	816.371	0.75	loss-reward	OutcomeDisplay				
68	817.124		control-noreward	ImageDisplay1		0.0		
68	819.364	0.75	control-noreward	StartDisplay				
68	820.116		control-noreward	ImageDisplay2		0.0		
68	823.125	1.6	control-noreward	ChoiceDisplay	1	1.07	1	1
68	824.212	0.53	control-noreward	ChosenDisplay		0.0		
68	824.73	0.25	control-noreward	TurnDisplay				
68	824.98	0.75	control-noreward	OutcomeDisplay				
69	825.733		control-noreward	ImageDisplay1		0.0		
69	827.722	0.75	control-noreward	StartDisplay				
69	828.474		control-noreward	ImageDisplay2		0.0		
69	831.734	1.6	control-noreward	ChoiceDisplay	1	1.177	1	1
69	832.938	0.423	control-noreward	ChosenDisplay		0.0		
69	833.339	0.25	control-noreward	TurnDisplay				
69	833.589	0.75	control-noreward	OutcomeDisplay				
70	834.342		control-reward	ImageDisplay1		0.0		
70	836.582	0.75	control-reward	StartDisplay				
70	837.334		control-reward	ImageDisplay2		0.0		
70	840.343	1.6	control-reward	ChoiceDisplay	1	0.872	1	1
70	841.229	0.728	control-reward	ChosenDisplay		0.0		
70	841.948	0.25	control-reward	TurnDisplay				
70	842.198	0.75	control-reward	OutcomeDisplay				
71	842.951		win-reward	ImageDisplay1		0.0		
71	844.94	0.75	win-reward	StartDisplay				
71	845.692		win-reward	ImageDisplay2		0.0		
71	848.952	1.6	win-reward	ChoiceDisplay	1	1.059	1	1
71	850.039	0.541	win-reward	ChosenDisplay		0.0		
71	850.557	0.25	win-reward	TurnDisplay				
71	850.807	0.75	win-reward	OutcomeDisplay				
72	851.56		loss-noreward	ImageDisplay1		0.0		
72	853.8	0.75	loss-noreward	StartDisplay				
72	854.552		loss-noreward	ImageDisplay2		0.0		
72	857.561	1.6	loss-noreward	ChoiceDisplay	1	1.088	1	1
72	858.664	0.512	loss-noreward	ChosenDisplay		0.0		
72	859.166	0.25	loss-noreward	TurnDisplay				
72	859.416	0.75	loss-noreward	OutcomeDisplay				
73	860.169		loss-noreward	ImageDisplay1		0.0		
73	862.409	0.75	loss-noreward	StartDisplay				
73	863.161		loss-noreward	ImageDisplay2		0.0		
73	866.17	1.6	loss-noreward	ChoiceDisplay	1	1.119	1	1
73	867.307	0.481	loss-noreward	ChosenDisplay		0.0		
73	867.775	0.25	loss-noreward	TurnDisplay				
73	868.025	0.75	loss-noreward	OutcomeDisplay				
74	868.778		win-reward	ImageDisplay1		0.0		
74	871.018	0.75	win-reward	StartDisplay				
74	871.77		win-reward	ImageDisplay2		0.0		
74	874.779	1.6	win-reward	ChoiceDisplay	1	1.254	1	1
74	876.049	0.346	win-reward	ChosenDisplay		0.0		
74	876.384	0.25	win-reward	TurnDisplay				
74	876.634	0.75	win-reward	OutcomeDisplay				
75	877.387		loss-noreward	ImageDisplay1		0.0		
75	879.376	0.75	loss-noreward	StartDisplay				
75	880.128		loss-noreward	ImageDisplay2		0.0		
75	883.388	1.6	loss-noreward	ChoiceDisplay	1	1.163	1	1
75	884.575	0.437	loss-noreward	ChosenDisplay		0.0		
75	884.993	0.25	loss-noreward	TurnDisplay				
75	885.243	0.75	loss-noreward	OutcomeDisplay				
76	885.996		win-reward	ImageDisplay1		0.0		
76	888.236	0.75	win-reward	StartDisplay				
76	888.988		win-reward	ImageDisplay2		0.0		
76	891.997	1.6	win-reward	ChoiceDisplay	1	1.102	1	1
76	893.117	0.498	win-reward	ChosenDisplay		0.0		
76	893.602	0.25	win-reward	TurnDisplay				
76	893.853	0.75	win-reward	OutcomeDisplay				
77	894.605		loss-noreward	ImageDisplay1		0.0		
77	896.845	0.75	loss-noreward	StartDisplay				
77	897.597		loss-noreward	ImageDisplay2		0.0		
77	900.606	1.6	loss-noreward	ChoiceDisplay	1	0.963	1	1
77	901.592	0.637	loss-noreward	ChosenDisplay		0.0		
77	902.211	0.25	loss-noreward	TurnDisplay				
77	902.461	0.75	loss-noreward	OutcomeDisplay				
78	903.214		win-reward	ImageDisplay1		0.0		
78	905.203	0.75	win-reward	StartDisplay				
78	905.955		win-reward	ImageDisplay2		0.0		
78	909.215	1.6	win-reward	ChoiceDisplay	1	0.956	1	1
78	910.185	0.644	win-reward	ChosenDisplay		0.0		
78	910.82	0.25	win-reward	TurnDisplay				
78	911.071	0.75	win-reward	OutcomeDisplay				
79	911.823		loss-reward	ImageDisplay1		0.0		
79	914.063	0.75	loss-reward	StartDisplay				
79	914.815		loss-reward	ImageDisplay2		0.0		
79	917.824	1.6	loss-reward	ChoiceDisplay	1	1.167	1	1
79	919.011	0.433	loss-reward	ChosenDisplay		0.0		
79	919.429	0.25	loss-reward	TurnDisplay				
79	919.679	0.75	loss-reward	OutcomeDisplay				
80	920.432		control-reward	ImageDisplay1		0.0		
80	922.672	0.75	control-reward	StartDisplay				
80	923.424		control-reward	ImageDisplay2		0.0		
80	926.433	1.6	control-reward	ChoiceDisplay	1	1.08	1	1
80	927.536	0.52	control-reward	ChosenDisplay		0.0		
80	928.038	0.25	control-reward	TurnDisplay				
80	928.288	0.75	control-reward	OutcomeDisplay				
81	929.041		control-reward	ImageDisplay1		0.0		
81	931.281	0.75	control-reward	StartDisplay				
81	932.033		control-reward	ImageDisplay2		0.0		
81	935.042	1.6	control-reward	ChoiceDisplay	1	1.014	1	1
81	936.078	0.586	control-reward	ChosenDisplay		0.0		
81	936.647	0.25	control-reward	TurnDisplay				
81	936.897	0.75	control-reward	OutcomeDisplay				
82	937.65		win-noreward	ImageDisplay1		0.0		
82	939.89	0.75	win-noreward	StartDisplay				
82	940.642		win-noreward	ImageDisplay2		0.0		
82	943.651	1.6	win-noreward	ChoiceDisplay	1	0.849	1	1
82	944.52	0.751	win-noreward	ChosenDisplay		0.0		
82	945.256	0.25	win-noreward	TurnDisplay				
82	945.507	0.75	win-noreward	OutcomeDisplay				
83	946.259		control-reward	ImageDisplay1		0.0		
83	948.499	0.75	control-reward	StartDisplay				
83	949.251		control-reward	ImageDisplay2		0.0		
83	952.26	1.6	control-reward	ChoiceDisplay	1	0.838	1	1
83	953.113	0.762	control-reward	ChosenDisplay		0.0		
83	953.865	0.25	control-reward	TurnDisplay				
83	954.115	0.75	control-reward	OutcomeDisplay				
84	954.868		win-noreward	ImageDisplay1		0.0		
84	956.857	0.75	win-noreward	StartDisplay				
84	957.609		win-noreward	ImageDisplay2		0.0		
84	960.869	1.6	win-noreward	ChoiceDisplay	1	0.823	1	1
84	961.705	0.777	win-noreward	ChosenDisplay		0.0		
84	962.474	0.25	win-noreward	TurnDisplay				
84	962.725	0.75	win-noreward	OutcomeDisplay				
85	963.477		win-noreward	ImageDisplay1		0.0		
85	965.717	0.75	win-noreward	StartDisplay				
85	966.469		win-noreward	ImageDisplay2		0.0		
85	969.478	1.6	win-noreward	ChoiceDisplay	1	1.011	1	1
85	970.514	0.589	win-noreward	ChosenDisplay		0.0		
85	971.083	0.25	win-noreward	TurnDisplay				
85	971.333	0.75	win-noreward	OutcomeDisplay				
86	972.086		loss-reward	ImageDisplay1		0.0		
86	974.326	0.75	loss-reward	StartDisplay				
86	975.078		loss-reward	ImageDisplay2		0.0		
86	978.087	1.6	loss-reward	ChoiceDisplay	1	0.751	1	1
86	978.856	0.849	loss-reward	ChosenDisplay		0.0		
86	979.692	0.25	loss-reward	TurnDisplay				
86	979.942	0.75	loss-reward	OutcomeDisplay				
87	980.695		win-reward	ImageDisplay1		0.0		
87	982.935	0.75	win-reward	StartDisplay				
87	983.687		win-reward	ImageDisplay2		0.0		
87	986.696	1.6	win-reward	ChoiceDisplay	1	0.695	1	1
87	987.415	0.905	win-reward	ChosenDisplay		0.0		
87	988.301	0.25	win-reward	TurnDisplay				
87	988.551	0.75	win-reward	OutcomeDisplay				
88	989.304		control-noreward	ImageDisplay1		0.0		
88	991.544	0.75	control-noreward	StartDisplay				
88	992.296		control-noreward	ImageDisplay2		0.0		
88	995.305	1.6	control-noreward	ChoiceDisplay	1	0.881	1	1
88	996.208	0.719	control-noreward	ChosenDisplay		0.0		
88	996.91	0.25	control-noreward	TurnDisplay				
88	997.16	0.75	control-noreward	OutcomeDisplay				
89	997.913		loss-reward	ImageDisplay1		0.0		
89	1000.153	0.75	loss-reward	StartDisplay				
89	1000.905		loss-reward	ImageDisplay2		0.0		
89	1003.914	1.6	loss-reward	ChoiceDisplay	1	1.151	1	1
89	1005.084	0.449	loss-reward	ChosenDisplay		0.0		
89	1005.519	0.25	loss-reward	TurnDisplay				
89	1005.769	0.75	loss-reward	OutcomeDisplay				
90	1006.522		loss-reward	ImageDisplay1		0.0		
90	1008.511	0.75	loss-reward	StartDisplay				
90	1009.263		loss-reward	ImageDisplay2		0.0		
90	1012.523	1.6	loss-reward	ChoiceDisplay	1	0.952	1	1
90	1013.493	0.648	loss-reward	ChosenDisplay		0.0		
90	1014.128	0.25	loss-reward	TurnDisplay				
90	1014.379	0.75	loss-reward	OutcomeDisplay				
91	1015.131		win-reward	ImageDisplay1		0.0		
91	1017.12	0.75	win-reward	StartDisplay				
91	1017.872		win-reward	ImageDisplay2		0.0		
91	1021.132	1.6	win-reward	ChoiceDisplay	1	1.092	1	1
91	1022.252	0.508	win-reward	ChosenDisplay		0.0		
91	1022.737	0.25	win-reward	TurnDisplay				
91	1022.987	0.75	win-reward	OutcomeDisplay				
92	1023.74		win-noreward	ImageDisplay1		0.0		
92	1025.98	0.75	win-noreward	StartDisplay				
92	1026.732		win-noreward	ImageDisplay2		0.0		
92	1029.741	1.6	win-noreward	ChoiceDisplay	1	0.987	1	1
92	1030.744	0.613	win-noreward	ChosenDisplay		0.0		
92	1031.346	0.25	win-noreward	TurnDisplay				
92	1031.596	0.75	win-noreward	OutcomeDisplay				
93	1032.349		control-reward	ImageDisplay1		0.0		
93	1034.338	0.75	control-reward	StartDisplay				
93	1035.09		control-reward	ImageDisplay2		0.0		
93	1038.35	1.6	control-reward	ChoiceDisplay	1	0.909	1	1
93	1039.286	0.691	control-reward	ChosenDisplay		0.0		
93	1039.955	0.25	control-reward	TurnDisplay				
93	1040.205	0.75	control-reward	OutcomeDisplay				
94	1040.958		loss-noreward	ImageDisplay1		0.0		
94	1043.198	0.75	loss-noreward	StartDisplay				
94	1043.95		loss-noreward	ImageDisplay2		0.0		
94	1046.959	1.6	loss-noreward	ChoiceDisplay	1	0.983	1	1
94	1047.962	0.617	loss-noreward	ChosenDisplay		0.0		
94	1048.564	0.25	loss-noreward	TurnDisplay				
94	1048.815	0.75	loss-noreward	OutcomeDisplay				
95	1049.567		control-reward	ImageDisplay1		0.0		
95	1051.556	0.75	control-reward	StartDisplay				
95	1052.308		control-reward	ImageDisplay2		0.0		
95	1055.568	1.6	control-reward	ChoiceDisplay	1	0.845	1	1
95	1056.437	0.755	control-reward	ChosenDisplay		0.0		
95	1057.173	0.25	control-reward	TurnDisplay				
95	1057.424	0.75	control-reward	OutcomeDisplay				
