onset	duration	trial_type	response_time	stim_file	accuracy
32.936	1.0	go	0.0	Go_O	0.0
35.47	1.0	go	0.603	Go_X	0.0
38.003	1.0	go	0.495	Go_O	1.0
40.536	1.0	go	0.438	Go_X	1.0
43.07	1.0	go	0.466	Go_X	1.0
45.603	1.0	go	0.475	Go_O	1.0
48.136	0.25	stop	0.0	Go_O	1.0
50.669	1.0	go	0.407	Go_X	1.0
53.203	0.3	stop	0.0	Go_X	1.0
55.736	1.0	go	0.53	Go_O	1.0
58.269	1.0	go	0.681	Go_O	1.0
60.803	1.0	go	0.636	Go_X	1.0
63.352	0.35	stop	0.0	Go_O	1.0
65.886	1.0	go	0.763	Go_X	1.0
68.419	1.0	go	0.686	Go_O	1.0
70.952	0.4	stop	0.0	Go_X	1.0
73.486	0.45	stop	0.451	Go_O	0.0
76.035	1.0	go	0.514	Go_X	1.0
78.569	1.0	go	0.673	Go_O	1.0
81.102	0.4	stop	0.0	Go_X	1.0
83.635	1.0	go	0.716	Go_O	1.0
86.169	1.0	go	0.56	Go_X	1.0
88.702	0.45	stop	0.0	Go_O	1.0
91.235	1.0	go	0.824	Go_X	1.0
93.768	1.0	go	0.829	Go_O	1.0
96.302	0.5	stop	0.0	Go_X	1.0
98.835	1.0	go	0.62	Go_O	1.0
101.368	1.0	go	0.64	Go_X	1.0
103.901	0.55	stop	0.0	Go_O	1.0
106.435	1.0	go	0.573	Go_O	1.0
108.968	1.0	go	0.692	Go_X	1.0
111.501	1.0	go	0.0	Go_O	0.0
114.035	1.0	go	0.684	Go_X	1.0
116.568	1.0	go	0.824	Go_O	1.0
119.101	0.6	stop	0.0	Go_X	1.0
121.634	1.0	go	0.745	Go_X	1.0
124.168	1.0	go	0.693	Go_O	1.0
126.701	1.0	go	0.53	Go_X	1.0
129.234	1.0	go	0.691	Go_X	1.0
131.767	1.0	go	0.667	Go_O	1.0
134.301	0.65	stop	0.556	Go_O	0.0
136.834	1.0	go	0.54	Go_X	1.0
139.367	1.0	go	0.672	Go_O	1.0
141.901	1.0	go	0.668	Go_X	1.0
144.434	1.0	go	0.774	Go_O	1.0
146.967	1.0	go	0.729	Go_O	1.0
149.5	1.0	go	0.846	Go_X	1.0
152.034	0.6	stop	0.0	Go_X	1.0
154.567	1.0	go	0.477	Go_O	1.0
157.1	1.0	go	0.0	Go_X	0.0
159.634	0.65	stop	0.661	Go_O	0.0
162.183	1.0	go	0.701	Go_X	1.0
164.717	0.6	stop	0.66	Go_X	0.0
167.25	0.55	stop	0.0	Go_O	1.0
169.783	1.0	go	0.546	Go_O	1.0
172.317	1.0	go	0.634	Go_X	1.0
174.85	1.0	go	0.892	Go_O	1.0
177.383	1.0	go	0.0	Go_O	0.0
179.916	0.6	stop	0.674	Go_X	0.0
182.45	1.0	go	0.59	Go_X	1.0
184.983	0.55	stop	0.0	Go_O	1.0
187.516	1.0	go	0.621	Go_O	1.0
190.049	1.0	go	0.0	Go_X	0.0
192.583	1.0	go	0.943	Go_O	1.0
195.116	1.0	go	0.79	Go_X	1.0
197.649	1.0	go	0.797	Go_X	1.0
200.183	1.0	go	0.759	Go_O	1.0
202.716	1.0	go	0.424	Go_O	1.0
205.249	1.0	go	0.711	Go_X	1.0
207.782	1.0	go	0.775	Go_O	1.0
210.316	0.6	stop	0.695	Go_X	0.0
212.849	1.0	go	0.294	Go_X	1.0
215.382	1.0	go	0.62	Go_O	1.0
217.915	1.0	go	0.832	Go_X	1.0
220.449	0.55	stop	0.0	Go_O	1.0
222.982	1.0	go	0.336	Go_X	1.0
225.515	1.0	go	0.565	Go_O	1.0
228.049	1.0	go	0.582	Go_O	1.0
230.582	1.0	go	0.687	Go_X	1.0
233.115	1.0	go	0.741	Go_X	1.0
235.648	1.0	go	0.699	Go_O	1.0
238.182	0.6	stop	0.76	Go_X	0.0
240.715	1.0	go	0.345	Go_X	1.0
243.248	1.0	go	0.692	Go_O	1.0
245.782	0.55	stop	0.0	Go_O	1.0
248.331	1.0	go	0.351	Go_X	1.0
250.865	1.0	go	0.677	Go_O	1.0
253.398	0.6	stop	0.619	Go_X	0.0
255.931	1.0	go	0.45	Go_X	1.0
258.465	0.55	stop	0.0	Go_O	1.0
260.998	1.0	go	0.714	Go_O	1.0
263.531	1.0	go	0.841	Go_X	1.0
266.064	1.0	go	0.736	Go_O	1.0
268.598	1.0	go	0.829	Go_X	1.0
271.131	1.0	go	0.0	Go_O	0.0
273.664	0.6	stop	0.0	Go_X	1.0
276.197	0.65	stop	0.353	Go_O	0.0
278.731	1.0	go	0.585	Go_X	1.0
281.264	1.0	go	0.844	Go_O	1.0
283.797	0.6	stop	0.0	Go_X	1.0
286.331	1.0	go	0.594	Go_X	1.0
288.864	1.0	go	0.729	Go_O	1.0
291.397	1.0	go	0.0	Go_X	0.0
293.93	1.0	go	0.639	Go_O	1.0
296.464	1.0	go	0.953	Go_O	1.0
298.997	1.0	go	0.615	Go_X	1.0
301.53	0.65	stop	0.528	Go_O	0.0
304.063	1.0	go	0.666	Go_X	1.0
306.597	1.0	go	0.795	Go_O	1.0
309.13	1.0	go	0.676	Go_O	1.0
311.663	1.0	go	0.831	Go_X	1.0
314.197	1.0	go	0.0	Go_X	0.0
316.73	0.6	stop	0.557	Go_X	0.0
319.263	1.0	go	0.574	Go_O	1.0
321.796	1.0	go	0.618	Go_O	1.0
324.33	1.0	go	0.986	Go_X	1.0
326.863	1.0	go	0.0	Go_O	0.0
329.396	0.55	stop	0.683	Go_O	0.0
331.93	1.0	go	0.842	Go_X	1.0
334.479	1.0	go	0.834	Go_O	1.0
337.013	0.5	stop	0.0	Go_X	1.0
339.546	1.0	go	0.889	Go_X	1.0
342.079	0.55	stop	0.805	Go_O	0.0
344.613	1.0	go	0.735	Go_X	1.0
347.146	1.0	go	0.774	Go_O	1.0
349.679	1.0	go	0.759	Go_X	0.0
352.212	1.0	go	0.0	Go_O	0.0
354.746	1.0	go	0.57	Go_O	1.0
357.279	1.0	go	0.83	Go_X	1.0
359.812	1.0	go	0.936	Go_X	0.0
362.345	0.5	stop	0.0	Go_X	1.0
364.879	1.0	go	0.746	Go_O	1.0
367.412	1.0	go	0.879	Go_X	1.0
369.945	1.0	go	0.732	Go_O	1.0
372.479	0.55	stop	0.0	Go_O	1.0
375.012	1.0	go	0.679	Go_O	1.0
377.545	1.0	go	0.939	Go_X	1.0
380.078	1.0	go	0.709	Go_O	1.0
382.612	1.0	go	0.0	Go_X	0.0
385.145	0.6	stop	0.776	Go_X	0.0
387.678	1.0	go	0.582	Go_X	1.0
390.211	1.0	go	0.0	Go_O	0.0
392.745	0.55	stop	0.372	Go_O	0.0
395.278	1.0	go	0.516	Go_O	1.0
397.811	1.0	go	0.534	Go_X	1.0
400.345	0.5	stop	0.0	Go_X	1.0
402.878	1.0	go	0.0	Go_X	0.0
405.411	1.0	go	0.0	Go_O	0.0
407.944	0.55	stop	0.656	Go_O	0.0
410.478	1.0	go	0.716	Go_O	1.0
413.011	1.0	go	0.696	Go_X	1.0
415.544	1.0	go	0.627	Go_O	1.0
418.078	1.0	go	0.0	Go_X	0.0
420.627	1.0	go	0.601	Go_O	1.0
423.161	1.0	go	0.0	Go_X	0.0
425.694	0.5	stop	0.0	Go_X	1.0
428.227	1.0	go	0.696	Go_O	1.0
430.761	0.55	stop	0.0	Go_O	1.0
433.294	1.0	go	0.0	Go_X	0.0
435.827	1.0	go	0.788	Go_X	1.0
438.36	1.0	go	0.0	Go_O	0.0
440.894	1.0	go	0.0	Go_X	0.0
443.427	1.0	go	0.689	Go_O	1.0
445.96	0.6	stop	0.667	Go_X	0.0
448.493	1.0	go	0.0	Go_X	0.0
451.027	1.0	go	0.0	Go_O	0.0
453.56	1.0	go	0.79	Go_O	1.0
456.093	0.55	stop	0.0	Go_O	1.0
458.627	0.6	stop	0.0	Go_X	1.0
461.16	0.65	stop	0.0	Go_O	1.0
463.693	1.0	go	0.0	Go_X	0.0
466.226	0.7	stop	0.0	Go_X	1.0
468.76	1.0	go	0.729	Go_X	1.0
471.293	1.0	go	0.752	Go_O	1.0
473.826	1.0	go	0.786	Go_O	1.0
476.359	1.0	go	0.777	Go_X	0.0
478.893	1.0	go	0.0	Go_X	0.0
481.426	1.0	go	0.0	Go_O	0.0
483.959	1.0	go	0.767	Go_O	1.0
486.493	1.0	go	0.0	Go_X	0.0
489.026	0.75	stop	0.0	Go_O	1.0
491.559	1.0	go	0.0	Go_O	0.0
494.092	1.0	go	0.627	Go_X	1.0
496.626	0.8	stop	0.0	Go_X	1.0
499.159	1.0	go	0.0	Go_X	0.0
501.692	1.0	go	0.754	Go_O	1.0
504.226	1.0	go	0.0	Go_X	0.0
506.775	1.0	go	0.0	Go_O	0.0
509.309	1.0	go	0.717	Go_X	0.0
511.842	0.85	stop	0.642	Go_O	0.0
514.375	1.0	go	0.0	Go_O	0.0
516.909	1.0	go	0.0	Go_O	0.0
519.442	1.0	go	0.669	Go_X	0.0
521.975	0.8	stop	0.874	Go_X	0.0
524.508	1.0	go	0.0	Go_X	0.0
527.042	0.75	stop	0.0	Go_O	1.0
529.575	1.0	go	0.0	Go_O	0.0
532.108	1.0	go	0.0	Go_X	0.0
534.641	1.0	go	0.0	Go_O	0.0
537.175	1.0	go	0.0	Go_O	0.0
539.708	1.0	go	0.0	Go_X	0.0
542.241	1.0	go	0.0	Go_O	0.0
544.775	1.0	go	0.0	Go_X	0.0
547.308	0.8	stop	0.0	Go_X	1.0
549.841	1.0	go	0.0	Go_X	0.0
552.374	1.0	go	0.616	Go_O	0.0
554.908	1.0	go	0.701	Go_X	1.0
557.441	1.0	go	0.692	Go_O	1.0
559.974	0.85	stop	0.874	Go_O	0.0
562.507	1.0	go	0.776	Go_X	1.0
565.041	0.8	stop	0.0	Go_X	1.0
567.574	1.0	go	0.0	Go_O	0.0
570.107	1.0	go	0.0	Go_X	0.0
572.641	0.85	stop	0.0	Go_O	1.0
575.174	1.0	go	0.0	Go_O	0.0
577.707	1.0	go	0.0	Go_X	0.0
580.24	1.0	go	0.0	Go_O	0.0
582.774	1.0	go	0.0	Go_X	0.0
585.307	1.0	go	0.0	Go_O	0.0
587.84	1.0	go	0.0	Go_X	0.0
590.373	1.0	go	0.0	Go_O	0.0
592.907	1.0	go	0.0	Go_O	0.0
595.44	1.0	go	0.762	Go_X	1.0
597.973	1.0	go	0.0	Go_X	0.0
600.507	0.9	stop	0.0	Go_X	1.0
603.04	1.0	go	0.0	Go_O	0.0
605.573	1.0	go	0.0	Go_X	0.0
608.106	0.95	stop	0.0	Go_O	1.0
610.64	1.0	go	0.0	Go_O	0.0
613.173	1.0	stop	0.0	Go_X	1.0
615.723	1.0	go	0.0	Go_X	0.0
618.256	1.0	go	0.0	Go_O	0.0
620.789	1.05	stop	0.0	Go_O	1.0
623.389	1.0	go	0.67	Go_O	0.0
625.923	1.1	stop	0.763	Go_X	0.0
628.573	1.0	go	0.731	Go_X	1.0
631.106	1.0	go	0.681	Go_O	1.0
633.639	1.0	go	0.693	Go_X	1.0
636.172	1.05	stop	0.739	Go_O	0.0
638.772	1.0	go	0.948	Go_O	1.0
641.306	1.0	go	0.0	Go_X	0.0
643.839	1.0	go	0.641	Go_O	1.0
646.372	1.0	go	0.804	Go_X	1.0
648.905	1.0	stop	0.699	Go_X	0.0
651.455	1.0	go	0.0	Go_O	0.0
653.989	1.0	go	0.0	Go_X	0.0
656.522	0.95	stop	0.0	Go_O	1.0
659.055	1.0	go	0.0	Go_O	0.0
661.589	1.0	go	0.841	Go_X	0.0
664.138	1.0	go	0.0	Go_X	0.0
666.672	1.0	go	0.58	Go_O	1.0
669.205	1.0	stop	0.769	Go_X	0.0
671.755	1.0	go	0.0	Go_X	0.0
674.288	0.95	stop	0.0	Go_O	1.0
676.821	1.0	go	0.0	Go_O	0.0
679.355	1.0	go	0.0	Go_X	0.0
681.888	1.0	stop	0.0	Go_X	1.0
684.438	1.0	go	0.0	Go_O	0.0
686.971	1.0	go	0.0	Go_X	0.0
689.505	1.0	go	0.0	Go_O	0.0
692.054	1.0	go	0.0	Go_O	0.0
694.588	1.05	stop	0.0	Go_O	1.0
697.188	1.0	go	0.0	Go_X	0.0
699.721	1.1	stop	0.0	Go_X	1.0
702.371	1.0	go	0.0	Go_X	0.0
704.904	1.0	go	0.0	Go_O	0.0
707.437	1.0	go	0.0	Go_X	0.0
709.971	1.0	go	0.0	Go_O	0.0
712.504	1.0	go	0.0	Go_O	0.0
715.037	1.0	go	0.0	Go_X	0.0
717.571	1.15	stop	0.0	Go_O	1.0
720.27	1.0	go	0.0	Go_X	0.0
722.804	1.0	go	0.0	Go_O	0.0
725.337	1.2	stop	0.0	Go_X	1.0
728.087	1.0	go	0.0	Go_O	0.0
730.62	1.0	go	0.0	Go_X	0.0
733.153	1.25	stop	0.0	Go_O	1.0
735.953	1.0	go	0.0	Go_O	0.0
738.487	1.0	go	0.0	Go_X	0.0
741.02	1.0	go	0.898	Go_X	1.0
743.553	1.0	go	0.0	Go_O	0.0
746.087	1.3	stop	0.912	Go_X	0.0
748.953	1.0	go	0.924	Go_O	1.0
751.486	1.25	stop	0.0	Go_O	1.0
754.286	1.0	go	0.888	Go_X	1.0
756.82	1.0	go	0.0	Go_O	0.0
759.353	1.0	go	0.0	Go_X	0.0
761.886	1.0	go	0.0	Go_O	0.0
764.419	1.0	go	0.0	Go_X	0.0
766.953	1.3	stop	0.0	Go_X	1.0
769.803	1.0	go	0.0	Go_O	0.0
772.336	1.0	go	0.0	Go_X	0.0
774.869	1.35	stop	0.0	Go_O	1.0
777.769	1.4	stop	0.0	Go_X	1.0
780.719	1.0	go	0.0	Go_X	0.0
783.252	1.0	go	0.0	Go_O	0.0
785.786	1.0	go	0.494	Go_O	1.0
788.319	1.0	go	0.95	Go_X	1.0
790.852	1.45	stop	0.0	Go_O	1.0
793.852	1.0	go	0.0	Go_X	0.0
