onset	duration	trial_type	response_time	stim_file	accuracy
44.894	1.0	go	0.876	Go_X	1.0
47.435	1.0	go	0.473	Go_O	1.0
49.959	1.0	go	0.422	Go_X	1.0
52.483	1.0	go	0.696	Go_O	1.0
55.008	1.0	go	0.471	Go_X	1.0
57.532	1.0	go	0.341	Go_O	1.0
60.056	0.25	stop	0.0	Go_O	1.0
62.58	1.0	go	0.356	Go_X	1.0
65.104	0.3	stop	0.548	Go_X	0.0
67.629	1.0	go	0.465	Go_O	1.0
70.153	1.0	go	0.428	Go_X	1.0
72.677	1.0	go	0.335	Go_O	1.0
75.201	0.25	stop	0.345	Go_O	0.0
77.725	1.0	go	0.467	Go_O	1.0
80.249	1.0	go	0.307	Go_X	1.0
82.774	0.2	stop	0.415	Go_X	0.0
85.315	0.15	stop	0.0	Go_O	1.0
87.855	1.0	go	0.436	Go_O	1.0
90.38	1.0	go	0.392	Go_X	1.0
92.904	0.2	stop	0.0	Go_X	1.0
95.428	1.0	go	0.482	Go_X	1.0
97.952	1.0	go	0.31	Go_O	1.0
100.476	0.25	stop	0.0	Go_O	1.0
103.003	1.0	go	0.397	Go_X	1.0
105.525	1.0	go	0.619	Go_O	1.0
108.049	0.3	stop	0.404	Go_X	0.0
110.573	1.0	go	0.611	Go_O	1.0
113.097	1.0	go	0.774	Go_X	1.0
115.622	0.25	stop	0.0	Go_O	1.0
118.163	1.0	go	0.964	Go_O	1.0
120.687	1.0	go	0.376	Go_X	1.0
123.211	1.0	go	0.453	Go_O	1.0
125.735	1.0	go	0.61	Go_X	1.0
128.259	1.0	go	0.463	Go_X	1.0
130.783	0.3	stop	0.0	Go_X	1.0
133.308	1.0	go	0.692	Go_O	1.0
135.832	1.0	go	0.61	Go_X	1.0
138.356	1.0	go	0.584	Go_O	1.0
140.88	1.0	go	0.318	Go_X	1.0
143.404	1.0	go	0.52	Go_O	1.0
145.929	0.35	stop	0.0	Go_O	1.0
148.453	1.0	go	0.693	Go_O	1.0
150.977	1.0	go	0.52	Go_X	1.0
153.501	1.0	go	0.796	Go_X	1.0
156.025	1.0	go	0.592	Go_O	1.0
158.55	1.0	go	0.606	Go_X	1.0
161.074	1.0	go	0.603	Go_O	1.0
163.598	0.4	stop	0.0	Go_X	1.0
166.122	1.0	go	0.577	Go_X	1.0
168.646	1.0	go	0.579	Go_O	1.0
171.187	0.45	stop	0.5	Go_O	0.0
173.711	1.0	go	0.508	Go_X	1.0
176.236	0.4	stop	0.0	Go_X	1.0
178.76	0.45	stop	0.0	Go_O	1.0
181.301	1.0	go	0.685	Go_O	1.0
183.825	1.0	go	0.58	Go_X	1.0
186.349	1.0	go	0.829	Go_O	1.0
188.873	1.0	go	0.566	Go_O	1.0
191.398	0.5	stop	0.718	Go_X	0.0
193.922	1.0	go	0.682	Go_X	1.0
196.446	0.45	stop	0.271	Go_O	0.0
198.97	1.0	go	0.498	Go_O	1.0
201.494	1.0	go	0.375	Go_X	1.0
204.018	1.0	go	0.453	Go_X	1.0
206.543	1.0	go	0.401	Go_O	1.0
209.067	1.0	go	0.35	Go_X	0.0
211.591	1.0	go	0.371	Go_O	1.0
214.115	1.0	go	0.526	Go_O	1.0
216.639	1.0	go	0.296	Go_X	1.0
219.164	1.0	go	0.652	Go_X	1.0
221.688	0.4	stop	0.461	Go_X	0.0
224.212	1.0	go	0.706	Go_O	1.0
226.736	1.0	go	0.717	Go_X	1.0
229.26	1.0	go	0.601	Go_O	1.0
231.785	0.35	stop	0.382	Go_O	0.0
234.309	1.0	go	0.459	Go_X	1.0
236.833	1.0	go	0.43	Go_O	1.0
239.357	1.0	go	0.452	Go_O	1.0
241.881	1.0	go	0.596	Go_X	1.0
244.406	1.0	go	0.561	Go_X	0.0
246.93	1.0	go	0.499	Go_O	1.0
249.471	0.3	stop	0.369	Go_X	0.0
252.012	1.0	go	0.532	Go_O	1.0
254.536	1.0	go	0.425	Go_X	1.0
257.06	0.25	stop	0.0	Go_O	1.0
259.584	1.0	go	0.327	Go_X	0.0
262.108	1.0	go	0.53	Go_O	1.0
264.633	0.3	stop	0.286	Go_X	0.0
267.173	1.0	go	0.458	Go_O	1.0
269.698	0.25	stop	0.0	Go_O	1.0
272.222	1.0	go	0.375	Go_X	1.0
274.746	1.0	go	0.62	Go_X	1.0
277.27	1.0	go	0.425	Go_O	1.0
279.794	1.0	go	0.89	Go_X	1.0
282.319	1.0	go	0.743	Go_O	1.0
284.843	0.3	stop	0.0	Go_X	1.0
287.384	0.35	stop	0.0	Go_O	1.0
289.925	1.0	go	0.62	Go_O	1.0
292.449	1.0	go	0.531	Go_X	1.0
294.973	0.4	stop	0.529	Go_X	0.0
297.514	1.0	go	0.566	Go_X	1.0
300.038	1.0	go	0.449	Go_O	1.0
302.562	1.0	go	0.511	Go_X	1.0
305.086	1.0	go	0.966	Go_O	1.0
307.611	1.0	go	0.629	Go_X	1.0
310.135	1.0	go	0.668	Go_O	1.0
312.676	0.35	stop	0.0	Go_O	1.0
315.2	1.0	go	0.631	Go_X	1.0
317.741	1.0	go	0.605	Go_O	1.0
320.265	1.0	go	0.904	Go_O	1.0
322.789	1.0	go	0.634	Go_X	1.0
325.313	1.0	go	0.559	Go_O	1.0
327.838	0.4	stop	0.588	Go_X	0.0
330.362	1.0	go	0.801	Go_X	1.0
332.886	1.0	go	0.585	Go_O	1.0
335.41	1.0	go	0.545	Go_X	1.0
337.934	1.0	go	0.973	Go_X	1.0
340.459	0.35	stop	0.0	Go_O	1.0
342.983	1.0	go	0.393	Go_O	1.0
345.507	1.0	go	0.517	Go_X	1.0
348.031	0.4	stop	0.553	Go_X	0.0
350.572	1.0	go	0.927	Go_O	1.0
353.113	0.35	stop	0.457	Go_O	0.0
355.637	1.0	go	0.491	Go_X	1.0
358.178	1.0	go	0.782	Go_O	1.0
360.702	1.0	go	0.71	Go_X	1.0
363.226	1.0	go	0.562	Go_O	1.0
365.751	1.0	go	0.46	Go_X	1.0
368.275	1.0	go	0.426	Go_O	1.0
370.799	1.0	go	0.25	Go_X	1.0
373.323	0.3	stop	0.0	Go_X	1.0
375.847	1.0	go	0.722	Go_O	1.0
378.372	1.0	go	0.516	Go_O	1.0
380.896	1.0	go	0.34	Go_X	1.0
383.42	0.35	stop	0.0	Go_O	1.0
385.961	1.0	go	0.477	Go_X	1.0
388.485	1.0	go	0.469	Go_O	1.0
391.009	1.0	go	0.763	Go_X	1.0
393.533	1.0	go	0.579	Go_O	1.0
396.058	0.4	stop	0.679	Go_X	0.0
398.599	1.0	go	0.51	Go_X	1.0
401.123	1.0	go	0.647	Go_O	1.0
403.647	0.35	stop	0.0	Go_O	1.0
406.171	1.0	go	0.72	Go_O	1.0
408.695	1.0	go	0.674	Go_X	1.0
411.22	0.4	stop	0.577	Go_X	0.0
413.76	1.0	go	0.506	Go_X	1.0
416.285	1.0	go	0.645	Go_O	1.0
418.809	0.35	stop	0.643	Go_O	0.0
421.333	1.0	go	0.473	Go_X	1.0
423.857	1.0	go	0.879	Go_O	1.0
426.381	1.0	go	0.415	Go_O	1.0
428.906	1.0	go	0.422	Go_X	1.0
431.43	1.0	go	0.0	Go_O	0.0
433.954	1.0	go	0.435	Go_X	1.0
436.478	0.3	stop	0.44	Go_X	0.0
439.002	1.0	go	0.46	Go_X	1.0
441.527	0.25	stop	0.383	Go_O	0.0
444.051	1.0	go	0.38	Go_O	1.0
446.592	1.0	go	0.475	Go_O	1.0
449.116	1.0	go	0.354	Go_X	1.0
451.64	1.0	go	0.447	Go_X	1.0
454.164	1.0	go	0.303	Go_O	1.0
456.688	0.2	stop	0.295	Go_X	0.0
459.213	1.0	go	0.329	Go_X	0.0
461.737	1.0	go	0.513	Go_O	1.0
464.261	1.0	go	0.267	Go_X	1.0
466.785	0.15	stop	0.0	Go_O	1.0
469.326	0.2	stop	0.249	Go_X	0.0
471.85	0.15	stop	0.332	Go_O	0.0
474.375	1.0	go	0.385	Go_O	0.0
476.899	0.1	stop	0.0	Go_X	1.0
479.44	1.0	go	0.584	Go_X	0.0
481.964	1.0	go	0.57	Go_O	1.0
484.505	1.0	go	0.599	Go_O	1.0
487.029	1.0	go	0.372	Go_X	1.0
489.553	1.0	go	0.755	Go_O	1.0
492.077	1.0	go	0.463	Go_X	1.0
494.618	1.0	go	0.238	Go_O	1.0
497.142	1.0	go	0.453	Go_X	1.0
499.667	0.15	stop	0.0	Go_O	1.0
502.207	1.0	go	0.895	Go_X	1.0
504.732	1.0	go	0.0	Go_O	0.0
507.256	0.2	stop	0.393	Go_X	0.0
509.78	1.0	go	0.495	Go_O	1.0
512.304	1.0	go	0.524	Go_X	1.0
514.83	1.0	go	0.636	Go_O	1.0
517.353	1.0	go	0.567	Go_X	1.0
519.877	1.0	go	0.635	Go_O	0.0
522.401	0.15	stop	0.0	Go_O	1.0
524.925	1.0	go	0.559	Go_X	1.0
527.449	1.0	go	0.543	Go_X	1.0
529.974	1.0	go	0.541	Go_O	1.0
532.498	0.2	stop	0.0	Go_X	1.0
535.039	1.0	go	0.596	Go_X	1.0
537.563	0.25	stop	0.0	Go_O	1.0
540.087	1.0	go	0.0	Go_O	0.0
542.611	1.0	go	0.788	Go_X	1.0
545.135	1.0	go	0.835	Go_O	1.0
547.66	1.0	go	0.56	Go_O	1.0
550.184	1.0	go	0.576	Go_X	1.0
552.708	1.0	go	0.944	Go_X	0.0
555.232	1.0	go	0.851	Go_O	1.0
557.756	0.3	stop	0.0	Go_X	1.0
560.281	1.0	go	0.494	Go_X	1.0
562.805	1.0	go	0.548	Go_O	1.0
565.329	1.0	go	0.355	Go_X	1.0
567.853	1.0	go	0.391	Go_O	1.0
570.377	0.35	stop	0.482	Go_O	0.0
572.918	1.0	go	0.645	Go_X	1.0
575.443	0.3	stop	0.0	Go_X	1.0
577.983	1.0	go	0.98	Go_O	0.0
580.508	1.0	go	0.577	Go_O	1.0
583.032	0.35	stop	0.569	Go_O	0.0
585.573	1.0	go	0.481	Go_X	1.0
588.114	1.0	go	0.467	Go_X	1.0
590.638	1.0	go	0.367	Go_O	1.0
593.162	1.0	go	0.463	Go_O	1.0
595.686	1.0	go	0.365	Go_X	1.0
598.21	1.0	go	0.578	Go_X	1.0
600.735	1.0	go	0.817	Go_O	1.0
603.276	1.0	go	0.474	Go_O	1.0
605.8	1.0	go	0.335	Go_X	1.0
608.324	1.0	go	0.647	Go_O	1.0
610.848	0.3	stop	0.0	Go_X	1.0
613.372	1.0	go	0.0	Go_X	0.0
615.896	1.0	go	0.659	Go_O	1.0
618.421	0.35	stop	0.0	Go_O	1.0
620.945	1.0	go	0.0	Go_X	0.0
623.473	0.4	stop	0.576	Go_X	0.0
626.01	1.0	go	0.742	Go_O	1.0
628.534	1.0	go	0.792	Go_X	1.0
631.058	0.35	stop	0.0	Go_O	1.0
633.582	1.0	go	0.422	Go_O	1.0
636.107	0.4	stop	0.0	Go_X	1.0
638.648	1.0	go	0.811	Go_X	1.0
641.172	1.0	go	0.0	Go_X	0.0
643.696	1.0	go	0.507	Go_O	1.0
646.22	0.45	stop	0.0	Go_O	1.0
648.761	1.0	go	0.903	Go_O	0.0
651.285	1.0	go	0.683	Go_X	0.0
653.81	1.0	go	0.617	Go_X	1.0
656.334	1.0	go	0.0	Go_O	0.0
658.858	0.5	stop	0.0	Go_X	1.0
661.382	1.0	go	0.0	Go_O	0.0
663.906	1.0	go	0.51	Go_X	1.0
666.43	0.55	stop	0.459	Go_O	0.0
668.955	1.0	go	0.591	Go_X	1.0
671.479	1.0	go	0.0	Go_O	0.0
674.003	1.0	go	0.745	Go_X	1.0
676.527	1.0	go	0.934	Go_O	1.0
679.051	0.5	stop	0.0	Go_X	1.0
681.576	1.0	go	0.786	Go_O	0.0
684.1	0.55	stop	0.0	Go_O	1.0
686.641	1.0	go	0.81	Go_X	1.0
689.165	1.0	go	0.0	Go_O	0.0
691.689	0.6	stop	0.0	Go_X	1.0
694.213	1.0	go	0.0	Go_X	0.0
696.737	1.0	go	0.545	Go_O	1.0
699.262	1.0	go	0.0	Go_X	0.0
701.786	1.0	go	0.816	Go_X	1.0
704.31	0.65	stop	0.0	Go_O	1.0
706.834	1.0	go	0.58	Go_O	0.0
709.358	0.7	stop	0.563	Go_X	0.0
711.883	1.0	go	0.513	Go_X	1.0
714.407	1.0	go	0.878	Go_O	1.0
716.931	1.0	go	0.349	Go_O	1.0
719.455	1.0	go	0.716	Go_X	1.0
721.979	1.0	go	0.0	Go_X	0.0
724.504	1.0	go	0.576	Go_O	1.0
727.028	0.65	stop	0.778	Go_O	0.0
729.552	1.0	go	0.42	Go_O	1.0
732.076	1.0	go	0.0	Go_X	0.0
734.6	0.6	stop	0.384	Go_X	0.0
737.125	1.0	go	0.42	Go_X	1.0
739.649	1.0	go	0.396	Go_O	1.0
742.173	0.55	stop	0.626	Go_O	0.0
744.697	1.0	go	0.442	Go_O	1.0
747.221	1.0	go	0.487	Go_X	1.0
749.762	1.0	go	0.852	Go_O	1.0
752.286	1.0	go	0.413	Go_X	1.0
754.811	0.5	stop	0.328	Go_X	0.0
757.335	1.0	go	0.441	Go_X	1.0
759.859	0.45	stop	0.387	Go_O	0.0
762.383	1.0	go	0.492	Go_O	1.0
764.907	1.0	go	0.549	Go_X	1.0
767.432	1.0	go	0.442	Go_O	1.0
769.956	1.0	go	0.59	Go_X	1.0
772.48	1.0	go	0.738	Go_O	1.0
775.004	0.4	stop	0.328	Go_X	0.0
777.528	1.0	go	0.501	Go_O	1.0
780.053	1.0	go	0.416	Go_X	1.0
782.577	0.35	stop	0.386	Go_O	0.0
785.101	0.3	stop	0.518	Go_X	0.0
787.625	1.0	go	0.444	Go_X	1.0
790.149	1.0	go	0.381	Go_O	0.0
792.673	1.0	go	0.399	Go_O	1.0
795.198	1.0	go	0.677	Go_X	1.0
797.722	0.25	stop	0.288	Go_O	0.0
800.246	1.0	go	0.408	Go_O	1.0
