onset	duration	trial_type	response_time	stim_file	accuracy
98.144	1.0	go	0.0	Go_O	0.0
100.677	1.0	go	0.381	Go_X	1.0
103.21	1.0	go	0.411	Go_O	1.0
105.744	1.0	go	0.421	Go_X	1.0
108.277	1.0	go	0.437	Go_O	1.0
110.81	1.0	go	0.531	Go_X	1.0
113.344	0.25	stopfail	0.462	Go_O	0.0
115.877	1.0	go	0.515	Go_O	1.0
118.41	0.2	stopfail	0.284	Go_X	0.0
120.943	1.0	go	0.0	Go_X	0.0
123.477	1.0	go	0.592	Go_X	1.0
126.01	1.0	go	0.439	Go_O	1.0
128.543	0.15	stopsuccess	0.0	Go_O	1.0
131.077	1.0	go	0.562	Go_O	1.0
133.61	1.0	go	0.462	Go_X	1.0
136.143	0.2	stopfail	0.554	Go_X	0.0
138.676	0.15	stopsuccess	0.0	Go_O	1.0
141.21	1.0	go	0.54	Go_O	1.0
143.743	1.0	go	0.485	Go_X	1.0
146.276	0.2	stopsuccess	0.0	Go_X	1.0
148.81	1.0	go	0.37	Go_O	1.0
151.343	1.0	go	0.629	Go_X	1.0
153.876	0.25	stopfail	0.498	Go_O	0.0
156.409	1.0	go	0.458	Go_O	0.0
158.943	1.0	go	0.551	Go_X	1.0
161.476	0.2	stopsuccess	0.0	Go_X	1.0
164.009	1.0	go	0.658	Go_X	1.0
166.543	1.0	go	0.437	Go_O	1.0
169.076	0.25	stopsuccess	0.0	Go_O	1.0
171.609	1.0	go	0.395	Go_X	1.0
174.142	1.0	go	0.344	Go_O	1.0
176.676	1.0	go	0.526	Go_O	1.0
179.209	1.0	go	0.383	Go_X	1.0
181.742	1.0	go	0.427	Go_X	1.0
184.276	0.3	stopsuccess	0.0	Go_X	1.0
186.809	1.0	go	0.361	Go_O	1.0
189.342	1.0	go	0.58	Go_X	1.0
191.875	1.0	go	0.331	Go_O	1.0
194.409	1.0	go	0.682	Go_X	1.0
196.942	1.0	go	0.508	Go_O	1.0
199.475	0.35	stopfail	0.48	Go_O	0.0
202.009	1.0	go	0.677	Go_O	1.0
204.542	1.0	go	0.483	Go_X	1.0
207.075	1.0	go	0.521	Go_X	1.0
209.608	1.0	go	0.614	Go_O	1.0
212.142	1.0	go	0.63	Go_O	1.0
214.675	1.0	go	0.397	Go_X	1.0
217.208	0.3	stopsuccess	0.0	Go_X	1.0
219.742	1.0	go	0.543	Go_X	1.0
222.275	1.0	go	0.325	Go_O	1.0
224.808	0.35	stopfail	0.424	Go_O	0.0
227.341	1.0	go	0.49	Go_O	1.0
229.875	0.3	stopsuccess	0.0	Go_X	1.0
232.408	0.35	stopfail	0.476	Go_O	0.0
234.941	1.0	go	0.485	Go_X	1.0
237.475	1.0	go	0.414	Go_O	1.0
240.008	1.0	go	0.563	Go_X	1.0
242.541	1.0	go	0.437	Go_O	1.0
245.074	0.3	stopsuccess	0.0	Go_X	1.0
247.608	1.0	go	0.319	Go_X	1.0
250.141	0.35	stopsuccess	0.0	Go_O	1.0
252.674	1.0	go	0.54	Go_X	1.0
255.208	1.0	go	0.436	Go_O	1.0
257.741	1.0	go	0.632	Go_X	1.0
260.274	1.0	go	0.525	Go_O	1.0
262.807	1.0	go	0.681	Go_O	1.0
265.341	1.0	go	0.67	Go_X	1.0
267.874	1.0	go	0.524	Go_O	1.0
270.407	1.0	go	0.36	Go_X	1.0
272.941	1.0	go	0.377	Go_O	1.0
275.474	0.4	stopfail	0.353	Go_X	0.0
278.007	1.0	go	0.585	Go_X	1.0
280.54	1.0	go	0.5	Go_O	1.0
283.074	1.0	go	0.577	Go_X	1.0
285.607	0.35	stopsuccess	0.0	Go_O	1.0
288.14	1.0	go	0.488	Go_X	1.0
290.674	1.0	go	0.399	Go_O	1.0
293.207	1.0	go	0.385	Go_X	1.0
295.74	1.0	go	0.542	Go_O	1.0
298.273	1.0	go	0.356	Go_X	1.0
300.807	1.0	go	0.309	Go_O	1.0
303.34	0.4	stopfail	0.33	Go_X	0.0
305.873	1.0	go	0.5	Go_X	1.0
308.407	1.0	go	0.432	Go_O	1.0
310.94	0.35	stopfail	0.219	Go_O	0.0
313.473	1.0	go	0.591	Go_X	0.0
316.006	1.0	go	0.488	Go_O	1.0
318.54	0.3	stopsuccess	0.0	Go_X	1.0
321.073	1.0	go	0.291	Go_X	1.0
323.606	0.35	stopfail	0.505	Go_O	0.0
326.14	1.0	go	0.501	Go_O	1.0
328.673	1.0	go	0.568	Go_O	1.0
331.206	1.0	go	0.546	Go_X	1.0
333.739	1.0	go	0.659	Go_O	1.0
336.273	1.0	go	0.453	Go_X	1.0
338.806	0.3	stopsuccess	0.0	Go_X	1.0
341.339	0.35	stopfail	0.339	Go_O	0.0
343.873	1.0	go	0.652	Go_X	1.0
346.406	1.0	go	0.479	Go_O	1.0
348.939	0.3	stopfail	0.403	Go_X	0.0
351.472	1.0	go	0.781	Go_O	1.0
354.006	1.0	go	0.594	Go_X	1.0
356.539	1.0	go	0.554	Go_O	1.0
359.072	1.0	go	0.51	Go_X	1.0
361.606	1.0	go	0.765	Go_O	1.0
364.139	1.0	go	0.592	Go_X	1.0
366.672	0.25	stopsuccess	0.0	Go_O	1.0
369.205	1.0	go	0.233	Go_O	1.0
371.739	1.0	go	0.507	Go_X	1.0
374.272	1.0	go	0.817	Go_X	1.0
376.805	1.0	go	0.636	Go_O	1.0
379.339	1.0	go	0.307	Go_O	0.0
381.872	0.3	stopsuccess	0.0	Go_X	1.0
384.405	1.0	go	0.365	Go_X	1.0
386.938	1.0	go	0.599	Go_O	1.0
389.472	1.0	go	0.402	Go_X	1.0
392.005	1.0	go	0.654	Go_O	1.0
394.538	0.35	stopfail	0.623	Go_O	0.0
397.072	1.0	go	0.265	Go_X	1.0
399.605	1.0	go	0.507	Go_X	1.0
402.138	0.3	stopsuccess	0.0	Go_X	1.0
404.671	1.0	go	0.314	Go_O	1.0
407.205	0.35	stopfail	0.481	Go_O	0.0
409.738	1.0	go	0.0	Go_O	0.0
412.271	1.0	go	0.382	Go_X	1.0
414.805	1.0	go	0.386	Go_O	1.0
417.338	1.0	go	0.378	Go_X	1.0
419.871	1.0	go	0.749	Go_X	1.0
422.404	1.0	go	0.886	Go_O	1.0
424.938	1.0	go	0.437	Go_X	1.0
427.471	0.3	stopfail	0.423	Go_X	0.0
430.004	1.0	go	0.388	Go_O	1.0
432.538	1.0	go	0.402	Go_X	1.0
435.087	1.0	go	0.606	Go_O	1.0
437.621	0.25	stopsuccess	0.0	Go_O	1.0
440.154	1.0	go	0.444	Go_X	1.0
442.687	1.0	go	0.505	Go_O	1.0
445.221	1.0	go	0.493	Go_O	1.0
447.754	1.0	go	0.66	Go_X	1.0
450.287	0.3	stopfail	0.444	Go_X	0.0
452.82	1.0	go	0.47	Go_O	1.0
455.354	1.0	go	0.473	Go_X	1.0
457.887	0.25	stopfail	0.32	Go_O	0.0
460.42	1.0	go	0.51	Go_O	1.0
462.954	1.0	go	0.668	Go_X	1.0
465.487	0.2	stopsuccess	0.0	Go_X	1.0
468.02	1.0	go	0.451	Go_O	1.0
470.553	1.0	go	0.466	Go_X	1.0
473.087	0.25	stopfail	0.423	Go_O	0.0
475.62	1.0	go	0.386	Go_O	0.0
478.153	1.0	go	0.824	Go_X	1.0
480.687	1.0	go	0.538	Go_O	1.0
483.22	1.0	go	0.569	Go_X	1.0
485.753	1.0	go	0.517	Go_X	1.0
488.286	1.0	go	0.357	Go_O	1.0
490.82	0.2	stopsuccess	0.0	Go_X	1.0
493.353	1.0	go	0.475	Go_X	1.0
495.886	0.25	stopsuccess	0.0	Go_O	1.0
498.42	1.0	go	0.419	Go_O	1.0
500.953	1.0	go	0.562	Go_O	1.0
503.486	1.0	go	0.438	Go_X	1.0
506.019	1.0	go	0.411	Go_X	1.0
508.553	1.0	go	0.561	Go_O	1.0
511.086	0.3	stopfail	0.376	Go_X	0.0
513.619	1.0	go	0.574	Go_O	1.0
516.153	1.0	go	0.358	Go_X	1.0
518.686	1.0	go	0.305	Go_O	1.0
521.219	0.25	stopfail	0.624	Go_O	0.0
523.752	0.2	stopsuccess	0.0	Go_X	1.0
526.286	0.25	stopsuccess	0.0	Go_O	1.0
528.819	1.0	go	0.677	Go_X	1.0
531.352	0.3	stopsuccess	0.0	Go_X	1.0
533.886	1.0	go	0.623	Go_X	1.0
536.419	1.0	go	0.718	Go_O	1.0
538.952	1.0	go	0.687	Go_O	1.0
541.485	1.0	go	0.642	Go_X	1.0
544.019	1.0	go	0.417	Go_X	0.0
546.552	1.0	go	0.517	Go_O	1.0
549.085	1.0	go	0.718	Go_O	1.0
551.619	1.0	go	0.474	Go_X	1.0
554.152	0.35	stopsuccess	0.0	Go_O	1.0
556.685	1.0	go	0.551	Go_O	1.0
559.218	1.0	go	0.664	Go_X	1.0
561.752	0.4	stopfail	0.539	Go_X	0.0
564.285	1.0	go	0.572	Go_O	1.0
566.818	1.0	go	0.54	Go_X	1.0
569.352	1.0	go	0.468	Go_O	1.0
571.885	1.0	go	0.841	Go_X	1.0
574.418	1.0	go	0.448	Go_X	1.0
576.951	0.35	stopfail	0.393	Go_O	0.0
579.485	1.0	go	0.282	Go_O	1.0
582.018	1.0	go	0.541	Go_X	1.0
584.551	1.0	go	0.0	Go_O	0.0
587.085	0.3	stopsuccess	0.0	Go_X	1.0
589.618	1.0	go	0.584	Go_O	1.0
592.151	0.35	stopsuccess	0.0	Go_O	1.0
594.684	1.0	go	0.663	Go_X	1.0
597.218	1.0	go	0.651	Go_X	1.0
599.751	1.0	go	0.528	Go_O	1.0
602.284	1.0	go	0.393	Go_O	1.0
604.818	1.0	go	0.658	Go_X	1.0
607.351	1.0	go	0.647	Go_X	1.0
609.884	1.0	go	0.532	Go_O	1.0
612.417	0.4	stopfail	0.574	Go_X	0.0
614.951	1.0	go	0.551	Go_O	1.0
617.484	1.0	go	0.504	Go_X	1.0
620.017	1.0	go	0.732	Go_X	1.0
622.551	1.0	go	0.462	Go_O	1.0
625.084	0.35	stopfail	0.604	Go_O	0.0
627.617	1.0	go	0.429	Go_O	1.0
630.15	0.3	stopfail	0.279	Go_X	0.0
632.684	1.0	go	0.646	Go_X	1.0
635.217	1.0	go	0.545	Go_X	1.0
637.75	0.25	stopfail	0.407	Go_O	0.0
640.284	1.0	go	0.417	Go_O	1.0
642.817	1.0	go	0.59	Go_O	1.0
645.35	1.0	go	0.446	Go_X	1.0
647.883	1.0	go	0.752	Go_O	1.0
650.417	1.0	go	0.641	Go_X	1.0
652.95	1.0	go	0.622	Go_O	1.0
655.483	1.0	go	0.464	Go_X	1.0
658.017	1.0	go	0.761	Go_O	1.0
660.55	1.0	go	0.517	Go_X	1.0
663.083	1.0	go	0.805	Go_X	1.0
665.616	0.2	stopsuccess	0.0	Go_X	1.0
668.15	1.0	go	0.836	Go_O	1.0
670.683	1.0	go	0.603	Go_O	1.0
673.216	0.25	stopsuccess	0.0	Go_O	1.0
675.75	1.0	go	0.658	Go_X	1.0
678.283	0.3	stopsuccess	0.0	Go_X	1.0
680.816	1.0	go	0.517	Go_X	1.0
683.349	1.0	go	0.599	Go_O	1.0
685.883	0.35	stopfail	0.539	Go_O	0.0
688.416	1.0	go	0.636	Go_O	1.0
690.949	0.3	stopsuccess	0.0	Go_X	1.0
693.483	1.0	go	0.0	Go_X	0.0
696.016	1.0	go	0.412	Go_O	1.0
698.549	1.0	go	0.608	Go_X	1.0
701.082	0.35	stopfail	0.528	Go_O	0.0
703.616	1.0	go	0.722	Go_X	1.0
706.149	1.0	go	0.535	Go_O	1.0
708.682	1.0	go	0.585	Go_X	1.0
711.216	1.0	go	0.618	Go_O	1.0
713.749	0.3	stopfail	0.302	Go_X	0.0
716.282	1.0	go	0.648	Go_O	1.0
718.815	1.0	go	0.412	Go_X	1.0
721.349	0.25	stopsuccess	0.0	Go_O	1.0
723.882	1.0	go	0.811	Go_O	1.0
726.415	1.0	go	0.362	Go_X	1.0
728.949	1.0	go	0.0	Go_X	0.0
731.482	1.0	go	0.472	Go_O	1.0
734.015	0.3	stopsuccess	0.0	Go_X	1.0
736.548	1.0	go	0.592	Go_X	1.0
739.082	0.35	stopsuccess	0.0	Go_O	1.0
741.615	1.0	go	0.0	Go_O	0.0
744.148	1.0	go	0.561	Go_O	1.0
746.682	0.4	stopfail	0.454	Go_X	0.0
749.215	1.0	go	0.455	Go_X	1.0
751.748	1.0	go	0.673	Go_O	1.0
754.281	1.0	go	0.534	Go_X	1.0
756.815	1.0	go	0.0	Go_X	0.0
759.348	0.35	stopfail	0.517	Go_O	0.0
761.881	1.0	go	0.588	Go_O	1.0
764.415	0.3	stopsuccess	0.0	Go_X	1.0
766.948	1.0	go	0.403	Go_O	1.0
769.481	1.0	go	0.388	Go_X	1.0
772.014	1.0	go	0.256	Go_O	1.0
774.548	1.0	go	0.569	Go_X	1.0
777.081	1.0	go	0.461	Go_X	0.0
779.614	1.0	go	0.0	Go_O	0.0
782.148	0.35	stopsuccess	0.0	Go_O	1.0
784.681	1.0	go	0.954	Go_X	1.0
787.214	1.0	go	0.294	Go_O	1.0
789.747	0.4	stopsuccess	0.0	Go_X	1.0
792.281	1.0	go	0.351	Go_O	0.0
794.814	1.0	go	0.571	Go_X	1.0
797.347	0.45	stopfail	0.717	Go_O	0.0
799.881	1.0	go	0.721	Go_X	1.0
802.414	1.0	go	0.0	Go_O	0.0
804.947	1.0	go	0.773	Go_O	1.0
807.48	1.0	go	0.511	Go_X	1.0
810.014	0.4	stopfail	0.535	Go_X	0.0
812.547	1.0	go	0.746	Go_O	1.0
815.08	0.35	stopsuccess	0.0	Go_O	1.0
817.614	1.0	go	0.0	Go_X	0.0
820.147	1.0	go	0.0	Go_O	0.0
822.68	1.0	go	0.499	Go_X	1.0
825.213	1.0	go	0.582	Go_X	0.0
827.747	1.0	go	0.726	Go_O	1.0
830.28	0.4	stopfail	0.456	Go_X	0.0
832.813	1.0	go	0.661	Go_X	1.0
835.347	1.0	go	0.71	Go_O	1.0
837.88	0.35	stopsuccess	0.0	Go_O	1.0
840.413	0.4	stopsuccess	0.0	Go_X	1.0
842.946	1.0	go	0.494	Go_O	1.0
845.48	1.0	go	0.73	Go_X	1.0
848.013	1.0	go	0.506	Go_O	1.0
850.546	1.0	go	0.254	Go_X	1.0
853.08	0.45	stopfail	0.767	Go_O	0.0
855.613	1.0	go	0.524	Go_X	1.0
