onset	duration	trial_type	response_time	stim_file	accuracy
73.618	1.0	go	0.0	Go_X	0.0
76.142	1.0	go	0.438	Go_O	1.0
78.666	1.0	go	0.411	Go_X	1.0
81.19	1.0	go	0.538	Go_O	1.0
83.715	1.0	go	0.676	Go_O	0.0
86.239	1.0	go	0.0	Go_X	0.0
88.763	0.25	stop	0.386	Go_O	0.0
91.287	1.0	go	0.0	Go_O	0.0
93.811	0.2	stop	0.0	Go_X	1.0
96.335	1.0	go	0.401	Go_X	1.0
98.86	1.0	go	0.0	Go_O	0.0
101.384	1.0	go	0.767	Go_X	1.0
103.908	0.25	stop	0.0	Go_O	1.0
106.432	1.0	go	0.0	Go_X	0.0
108.956	1.0	go	0.0	Go_O	0.0
111.481	0.3	stop	0.5	Go_X	0.0
114.021	0.25	stop	0.0	Go_O	1.0
116.546	1.0	go	0.0	Go_X	0.0
119.07	1.0	go	0.511	Go_O	1.0
121.594	0.3	stop	0.0	Go_X	1.0
124.118	1.0	go	0.389	Go_X	1.0
126.642	1.0	go	0.644	Go_O	1.0
129.166	0.35	stop	0.0	Go_O	1.0
131.691	1.0	go	0.496	Go_X	1.0
134.215	1.0	go	0.843	Go_O	1.0
136.739	0.4	stop	0.0	Go_X	1.0
139.263	1.0	go	0.48	Go_O	1.0
141.787	1.0	go	0.428	Go_X	1.0
144.311	0.45	stop	0.543	Go_O	0.0
146.836	1.0	go	0.552	Go_O	1.0
149.36	1.0	go	0.48	Go_X	1.0
151.884	1.0	go	0.964	Go_X	1.0
154.408	1.0	go	0.809	Go_O	1.0
156.932	1.0	go	0.904	Go_X	1.0
159.456	0.4	stop	0.0	Go_X	1.0
161.981	1.0	go	0.547	Go_O	1.0
164.505	1.0	go	0.739	Go_O	1.0
167.029	1.0	go	0.751	Go_X	1.0
169.553	1.0	go	0.0	Go_O	0.0
172.077	1.0	go	0.778	Go_X	1.0
174.602	0.45	stop	0.0	Go_O	1.0
177.126	1.0	go	0.52	Go_X	1.0
179.65	1.0	go	0.493	Go_O	1.0
182.174	1.0	go	0.943	Go_X	1.0
184.698	1.0	go	0.727	Go_O	1.0
187.222	1.0	go	0.586	Go_O	0.0
189.747	1.0	go	0.646	Go_X	1.0
192.271	0.5	stop	0.0	Go_X	1.0
194.795	1.0	go	0.596	Go_O	1.0
197.319	1.0	go	0.765	Go_X	1.0
199.843	0.55	stop	0.643	Go_O	0.0
202.367	1.0	go	0.678	Go_O	1.0
204.892	0.5	stop	0.0	Go_X	1.0
207.416	0.55	stop	0.626	Go_O	0.0
209.94	1.0	go	0.777	Go_X	1.0
212.464	1.0	go	0.873	Go_X	1.0
214.988	1.0	go	0.934	Go_O	1.0
217.512	1.0	go	0.968	Go_X	1.0
220.037	0.5	stop	0.734	Go_X	0.0
222.561	1.0	go	0.79	Go_O	1.0
225.085	0.45	stop	0.0	Go_O	1.0
227.609	1.0	go	0.653	Go_X	1.0
230.133	1.0	go	0.0	Go_O	0.0
232.657	1.0	go	0.909	Go_X	1.0
235.182	1.0	go	0.917	Go_O	1.0
237.706	1.0	go	0.744	Go_O	1.0
240.23	1.0	go	0.663	Go_X	1.0
242.754	1.0	go	0.924	Go_O	1.0
245.278	1.0	go	0.979	Go_X	1.0
247.803	1.0	go	0.582	Go_O	1.0
250.327	0.5	stop	0.556	Go_X	0.0
252.851	1.0	go	0.671	Go_X	1.0
255.375	1.0	go	0.788	Go_O	1.0
257.899	1.0	go	0.803	Go_X	1.0
260.423	0.45	stop	0.0	Go_O	1.0
262.948	1.0	go	0.548	Go_X	1.0
265.472	1.0	go	0.877	Go_O	1.0
267.996	1.0	go	0.51	Go_X	1.0
270.52	1.0	go	0.315	Go_O	1.0
273.044	1.0	go	0.272	Go_X	1.0
275.568	1.0	go	0.271	Go_O	1.0
278.093	0.5	stop	0.351	Go_X	0.0
280.617	1.0	go	0.626	Go_O	1.0
283.141	1.0	go	0.6	Go_X	1.0
285.665	0.45	stop	0.0	Go_O	1.0
288.189	1.0	go	0.466	Go_X	1.0
290.713	1.0	go	0.675	Go_O	1.0
293.238	0.5	stop	0.0	Go_X	1.0
295.762	1.0	go	0.445	Go_X	1.0
298.286	0.55	stop	0.0	Go_O	1.0
300.81	1.0	go	0.669	Go_O	1.0
303.334	1.0	go	0.682	Go_X	1.0
305.858	1.0	go	0.51	Go_O	1.0
308.383	1.0	go	0.555	Go_O	1.0
310.907	1.0	go	0.648	Go_X	1.0
313.431	0.6	stop	0.672	Go_X	0.0
315.955	0.55	stop	0.634	Go_O	0.0
318.479	1.0	go	0.748	Go_X	1.0
321.003	1.0	go	0.706	Go_O	1.0
323.528	0.5	stop	0.0	Go_X	1.0
326.052	1.0	go	0.576	Go_O	1.0
328.576	1.0	go	0.0	Go_X	0.0
331.1	1.0	go	0.0	Go_X	0.0
333.624	1.0	go	0.45	Go_O	1.0
336.149	1.0	go	0.823	Go_O	1.0
338.673	1.0	go	0.73	Go_X	1.0
341.197	0.55	stop	0.68	Go_O	0.0
343.721	1.0	go	0.0	Go_X	0.0
346.245	1.0	go	0.468	Go_O	1.0
348.769	1.0	go	0.516	Go_X	1.0
351.294	1.0	go	0.559	Go_O	1.0
353.818	1.0	go	0.72	Go_X	1.0
356.342	0.5	stop	0.664	Go_X	0.0
358.866	1.0	go	0.0	Go_O	0.0
361.39	1.0	go	0.646	Go_X	1.0
363.914	1.0	go	0.615	Go_O	1.0
366.439	1.0	go	0.0	Go_O	0.0
368.963	0.45	stop	0.431	Go_O	0.0
371.487	1.0	go	0.764	Go_X	0.0
374.011	1.0	go	0.642	Go_X	1.0
376.535	0.4	stop	0.0	Go_X	1.0
379.059	1.0	go	0.602	Go_O	1.0
381.584	0.45	stop	0.0	Go_O	1.0
384.108	1.0	go	0.542	Go_X	1.0
386.632	1.0	go	0.906	Go_O	1.0
389.156	1.0	go	0.528	Go_X	1.0
391.68	1.0	go	0.446	Go_O	1.0
394.204	1.0	go	0.893	Go_O	1.0
396.729	1.0	go	0.619	Go_X	1.0
399.253	1.0	go	0.879	Go_O	1.0
401.777	0.5	stop	0.0	Go_X	1.0
404.301	1.0	go	0.626	Go_X	1.0
406.825	1.0	go	0.576	Go_O	1.0
409.349	1.0	go	0.598	Go_X	1.0
411.874	0.55	stop	0.515	Go_O	0.0
414.398	1.0	go	0.62	Go_O	1.0
416.922	1.0	go	0.594	Go_X	1.0
419.446	1.0	go	0.863	Go_X	1.0
421.97	1.0	go	0.808	Go_O	1.0
424.495	0.5	stop	0.0	Go_X	1.0
427.019	1.0	go	0.774	Go_O	1.0
429.543	1.0	go	0.551	Go_X	1.0
432.067	0.55	stop	0.626	Go_O	0.0
434.591	1.0	go	0.52	Go_O	1.0
437.115	1.0	go	0.753	Go_X	1.0
439.64	0.5	stop	0.754	Go_X	0.0
442.164	1.0	go	0.777	Go_X	1.0
444.688	1.0	go	0.558	Go_O	1.0
447.212	0.45	stop	0.545	Go_O	0.0
449.736	1.0	go	0.634	Go_O	1.0
452.26	1.0	go	0.917	Go_X	1.0
454.785	1.0	go	0.736	Go_X	1.0
457.309	1.0	go	0.419	Go_O	1.0
459.833	1.0	go	0.542	Go_O	1.0
462.357	1.0	go	0.625	Go_X	1.0
464.881	0.4	stop	0.0	Go_X	1.0
467.405	1.0	go	0.585	Go_X	1.0
469.93	0.45	stop	0.542	Go_O	0.0
472.454	1.0	go	0.447	Go_O	1.0
474.978	1.0	go	0.587	Go_X	1.0
477.502	1.0	go	0.68	Go_O	1.0
480.026	1.0	go	0.89	Go_O	1.0
482.55	1.0	go	0.605	Go_X	1.0
485.075	0.4	stop	0.7	Go_X	0.0
487.599	1.0	go	0.41	Go_O	1.0
490.123	1.0	go	0.484	Go_X	1.0
492.647	1.0	go	0.669	Go_X	1.0
495.171	0.35	stop	0.0	Go_O	1.0
497.696	0.4	stop	0.538	Go_X	0.0
500.22	0.35	stop	0.571	Go_O	0.0
502.744	1.0	go	0.536	Go_O	1.0
505.268	0.3	stop	0.381	Go_X	0.0
507.792	1.0	go	0.699	Go_O	1.0
510.316	1.0	go	0.835	Go_X	1.0
512.841	1.0	go	0.627	Go_O	1.0
515.365	1.0	go	0.788	Go_X	1.0
517.889	1.0	go	0.858	Go_O	1.0
520.413	1.0	go	0.684	Go_X	1.0
522.937	1.0	go	0.722	Go_O	0.0
525.461	1.0	go	0.656	Go_X	1.0
527.986	0.25	stop	0.0	Go_O	1.0
530.51	1.0	go	0.52	Go_O	1.0
533.034	1.0	go	0.969	Go_X	1.0
535.558	0.3	stop	0.584	Go_X	0.0
538.082	1.0	go	0.6	Go_X	1.0
540.606	1.0	go	0.666	Go_O	1.0
543.131	1.0	go	0.697	Go_X	1.0
545.655	1.0	go	0.761	Go_O	1.0
548.179	1.0	go	0.861	Go_X	1.0
550.703	0.25	stop	0.0	Go_O	1.0
553.227	1.0	go	0.806	Go_O	1.0
555.751	1.0	go	0.0	Go_X	0.0
558.276	1.0	go	0.0	Go_O	0.0
560.8	0.3	stop	0.0	Go_X	1.0
563.324	1.0	go	0.78	Go_O	1.0
565.848	0.35	stop	0.0	Go_O	1.0
568.372	1.0	go	0.371	Go_X	1.0
570.896	1.0	go	0.493	Go_O	1.0
573.421	1.0	go	0.504	Go_X	1.0
575.945	1.0	go	0.687	Go_X	1.0
578.469	1.0	go	0.549	Go_O	1.0
580.993	1.0	go	0.517	Go_X	1.0
583.517	1.0	go	0.582	Go_O	1.0
586.042	0.4	stop	0.533	Go_X	0.0
588.566	1.0	go	0.545	Go_O	1.0
591.09	1.0	go	0.614	Go_X	1.0
593.614	1.0	go	0.617	Go_X	1.0
596.138	1.0	go	0.989	Go_O	1.0
598.662	0.35	stop	0.0	Go_O	1.0
601.187	1.0	go	0.0	Go_O	0.0
603.711	0.4	stop	0.0	Go_X	1.0
606.235	1.0	go	0.722	Go_X	1.0
608.759	1.0	go	0.515	Go_X	0.0
611.283	0.45	stop	0.839	Go_O	0.0
613.807	1.0	go	0.83	Go_O	1.0
616.332	1.0	go	0.582	Go_X	1.0
618.856	1.0	go	0.686	Go_O	1.0
621.38	1.0	go	0.697	Go_O	1.0
623.904	1.0	go	0.918	Go_X	1.0
626.428	1.0	go	0.94	Go_O	1.0
628.952	1.0	go	0.748	Go_X	1.0
631.477	1.0	go	0.829	Go_X	0.0
634.001	1.0	go	0.743	Go_O	1.0
636.525	1.0	go	0.0	Go_O	0.0
639.049	0.4	stop	0.697	Go_X	0.0
641.573	1.0	go	0.0	Go_X	0.0
644.097	1.0	go	0.0	Go_O	0.0
646.622	0.35	stop	0.0	Go_O	1.0
649.146	1.0	go	0.613	Go_X	1.0
651.67	0.4	stop	0.0	Go_X	1.0
654.194	1.0	go	0.844	Go_O	1.0
656.718	1.0	go	0.836	Go_X	1.0
659.243	0.45	stop	0.631	Go_O	0.0
661.767	1.0	go	0.8	Go_O	0.0
664.291	0.4	stop	0.937	Go_X	0.0
666.815	1.0	go	0.534	Go_X	1.0
669.339	1.0	go	0.806	Go_X	1.0
671.863	1.0	go	0.0	Go_O	0.0
674.388	0.35	stop	0.0	Go_O	1.0
676.912	1.0	go	0.88	Go_O	1.0
679.436	1.0	go	0.674	Go_X	1.0
681.96	1.0	go	0.873	Go_X	1.0
684.484	1.0	go	0.71	Go_O	1.0
687.008	0.4	stop	0.746	Go_X	0.0
689.533	1.0	go	0.968	Go_X	0.0
692.057	1.0	go	0.393	Go_O	1.0
694.581	0.35	stop	0.0	Go_O	1.0
697.105	1.0	go	0.891	Go_O	1.0
699.629	1.0	go	0.712	Go_X	1.0
702.153	1.0	go	0.652	Go_O	1.0
704.678	1.0	go	0.0	Go_X	0.0
707.202	0.4	stop	0.0	Go_X	1.0
709.726	1.0	go	0.0	Go_O	0.0
712.25	0.45	stop	0.467	Go_O	0.0
714.774	1.0	go	0.895	Go_X	1.0
717.298	1.0	go	0.534	Go_X	1.0
719.823	0.4	stop	0.0	Go_X	1.0
722.347	1.0	go	0.564	Go_O	1.0
724.871	1.0	go	0.0	Go_O	0.0
727.395	1.0	go	0.507	Go_X	1.0
729.919	1.0	go	0.0	Go_X	0.0
732.443	0.45	stop	0.407	Go_O	0.0
734.968	1.0	go	0.48	Go_O	0.0
737.492	0.4	stop	0.454	Go_X	0.0
740.016	1.0	go	0.451	Go_X	1.0
742.54	1.0	go	0.545	Go_O	1.0
745.064	1.0	go	0.601	Go_O	1.0
747.589	1.0	go	0.703	Go_X	0.0
750.113	1.0	go	0.626	Go_X	1.0
752.637	1.0	go	0.633	Go_O	1.0
755.161	0.35	stop	0.0	Go_O	1.0
757.685	1.0	go	0.659	Go_X	1.0
760.209	1.0	go	0.794	Go_O	1.0
762.734	0.4	stop	0.0	Go_X	1.0
765.258	1.0	go	0.526	Go_X	0.0
767.782	1.0	go	0.612	Go_O	1.0
770.306	0.45	stop	0.587	Go_O	0.0
772.83	1.0	go	0.722	Go_X	1.0
775.354	1.0	go	0.0	Go_O	0.0
777.879	1.0	go	0.0	Go_X	0.0
780.403	1.0	go	0.0	Go_O	0.0
782.927	0.4	stop	0.0	Go_X	1.0
785.451	1.0	go	0.525	Go_O	1.0
787.975	0.45	stop	0.0	Go_O	1.0
790.499	1.0	go	0.543	Go_X	1.0
793.024	1.0	go	0.885	Go_X	0.0
795.548	1.0	go	0.491	Go_O	0.0
798.072	1.0	go	0.49	Go_X	1.0
800.596	1.0	go	0.804	Go_O	1.0
803.12	0.5	stop	0.0	Go_X	1.0
805.644	1.0	go	0.0	Go_X	0.0
808.169	1.0	go	0.91	Go_O	1.0
810.693	0.55	stop	0.762	Go_O	0.0
813.217	0.5	stop	0.726	Go_X	0.0
815.741	1.0	go	0.0	Go_X	0.0
818.265	1.0	go	0.698	Go_O	1.0
820.79	1.0	go	0.0	Go_O	0.0
823.314	1.0	go	0.0	Go_X	0.0
825.838	0.45	stop	0.0	Go_O	1.0
828.362	1.0	go	0.892	Go_O	1.0
