onset	duration	trial_type	response_time	stim_file	accuracy
66.259	1.0	go	0.65	Go_O	1.0
68.834	1.0	go	0.343	Go_X	1.0
71.358	1.0	go	0.608	Go_O	1.0
73.882	1.0	go	0.6	Go_X	1.0
76.406	1.0	go	0.774	Go_X	1.0
78.93	1.0	go	0.672	Go_O	1.0
81.455	0.25	stop	0.0	Go_O	1.0
83.979	1.0	go	0.544	Go_O	1.0
86.503	0.3	stop	0.629	Go_X	0.0
89.027	1.0	go	0.651	Go_X	1.0
91.551	1.0	go	0.619	Go_O	1.0
94.075	1.0	go	0.825	Go_X	0.0
96.6	0.25	stop	0.0	Go_O	1.0
99.124	1.0	go	0.428	Go_O	1.0
101.648	1.0	go	0.57	Go_X	1.0
104.172	0.3	stop	0.0	Go_X	1.0
106.696	0.35	stop	0.0	Go_O	1.0
109.221	1.0	go	0.432	Go_X	1.0
111.745	1.0	go	0.613	Go_O	1.0
114.269	0.4	stop	0.602	Go_X	0.0
116.793	1.0	go	0.745	Go_O	1.0
119.317	1.0	go	0.656	Go_X	1.0
121.842	0.35	stop	0.478	Go_O	0.0
124.366	1.0	go	0.534	Go_X	1.0
126.89	1.0	go	0.6	Go_O	1.0
129.414	0.3	stop	0.0	Go_X	1.0
131.938	1.0	go	0.518	Go_X	1.0
134.463	1.0	go	0.55	Go_O	1.0
136.987	0.35	stop	0.0	Go_O	1.0
139.511	1.0	go	0.631	Go_X	1.0
142.035	1.0	go	0.629	Go_O	1.0
144.559	1.0	go	0.632	Go_O	1.0
147.083	1.0	go	0.695	Go_X	1.0
149.608	1.0	go	0.464	Go_X	1.0
152.132	0.4	stop	0.521	Go_X	0.0
154.656	1.0	go	0.659	Go_O	1.0
157.18	1.0	go	0.702	Go_X	1.0
159.704	1.0	go	0.525	Go_O	1.0
162.229	1.0	go	0.66	Go_O	1.0
164.753	1.0	go	0.421	Go_X	1.0
167.277	0.35	stop	0.0	Go_O	1.0
169.801	1.0	go	0.529	Go_X	1.0
172.325	1.0	go	0.73	Go_O	1.0
174.85	1.0	go	0.648	Go_O	1.0
177.374	1.0	go	0.596	Go_X	1.0
179.898	1.0	go	0.569	Go_X	1.0
182.422	1.0	go	0.815	Go_O	1.0
184.946	0.4	stop	0.497	Go_X	0.0
187.471	1.0	go	0.655	Go_X	1.0
189.995	1.0	go	0.417	Go_O	1.0
192.519	0.35	stop	0.0	Go_O	1.0
195.043	1.0	go	0.657	Go_O	1.0
197.567	0.4	stop	0.652	Go_X	0.0
200.092	0.35	stop	0.0	Go_O	1.0
202.632	1.0	go	0.474	Go_X	1.0
205.157	1.0	go	0.661	Go_O	1.0
207.681	1.0	go	0.661	Go_X	1.0
210.205	1.0	go	0.472	Go_X	1.0
212.729	0.4	stop	0.511	Go_X	0.0
215.253	1.0	go	0.709	Go_O	1.0
217.778	0.35	stop	0.0	Go_O	1.0
220.302	1.0	go	0.453	Go_X	1.0
222.826	1.0	go	0.546	Go_O	1.0
225.35	1.0	go	0.576	Go_O	1.0
227.874	1.0	go	0.544	Go_X	1.0
230.399	1.0	go	0.524	Go_O	1.0
232.923	1.0	go	0.521	Go_X	1.0
235.447	1.0	go	0.679	Go_O	1.0
237.971	1.0	go	0.708	Go_X	1.0
240.495	1.0	go	0.404	Go_O	1.0
243.02	0.4	stop	0.608	Go_X	0.0
245.544	1.0	go	0.562	Go_X	1.0
248.068	1.0	go	0.628	Go_X	1.0
250.592	1.0	go	0.579	Go_O	1.0
253.116	0.35	stop	0.0	Go_O	1.0
255.64	1.0	go	0.398	Go_X	1.0
258.165	1.0	go	0.567	Go_O	1.0
260.689	1.0	go	0.64	Go_O	0.0
263.213	1.0	go	0.331	Go_X	1.0
265.737	1.0	go	0.459	Go_X	1.0
268.261	1.0	go	0.572	Go_O	1.0
270.786	0.4	stop	0.397	Go_X	0.0
273.31	1.0	go	0.539	Go_O	1.0
275.834	1.0	go	0.491	Go_X	1.0
278.358	0.35	stop	0.0	Go_O	1.0
280.882	1.0	go	0.461	Go_X	1.0
283.407	1.0	go	0.491	Go_O	1.0
285.931	0.4	stop	0.0	Go_X	1.0
288.455	1.0	go	0.609	Go_O	1.0
290.979	0.45	stop	0.0	Go_O	1.0
293.503	1.0	go	0.577	Go_X	1.0
296.028	1.0	go	0.488	Go_O	1.0
298.552	1.0	go	0.447	Go_X	1.0
301.076	1.0	go	0.552	Go_O	1.0
303.6	1.0	go	0.464	Go_X	1.0
306.124	0.5	stop	0.62	Go_X	0.0
308.649	0.45	stop	0.0	Go_O	1.0
311.173	1.0	go	0.462	Go_O	1.0
313.697	1.0	go	0.547	Go_X	1.0
316.221	0.5	stop	0.0	Go_X	1.0
318.745	1.0	go	0.459	Go_X	1.0
321.269	1.0	go	0.406	Go_O	1.0
323.794	1.0	go	0.597	Go_X	1.0
326.318	1.0	go	0.647	Go_O	1.0
328.842	1.0	go	0.874	Go_O	1.0
331.366	1.0	go	0.648	Go_X	1.0
333.89	0.55	stop	0.419	Go_O	0.0
336.415	1.0	go	0.449	Go_X	1.0
338.939	1.0	go	0.608	Go_O	1.0
341.463	1.0	go	0.413	Go_O	1.0
343.987	1.0	go	0.584	Go_X	1.0
346.511	1.0	go	0.722	Go_X	1.0
349.036	0.5	stop	0.0	Go_X	1.0
351.56	1.0	go	0.48	Go_O	1.0
354.084	1.0	go	0.573	Go_X	1.0
356.608	1.0	go	0.65	Go_O	1.0
359.132	1.0	go	0.449	Go_O	1.0
361.657	0.55	stop	0.543	Go_O	0.0
364.181	1.0	go	0.529	Go_X	1.0
366.705	1.0	go	0.5	Go_X	1.0
369.229	0.5	stop	0.336	Go_X	0.0
371.753	1.0	go	0.369	Go_O	1.0
374.278	0.45	stop	0.518	Go_O	0.0
376.802	1.0	go	0.551	Go_X	1.0
379.326	1.0	go	0.69	Go_O	1.0
381.85	1.0	go	0.51	Go_X	1.0
384.374	1.0	go	0.887	Go_O	1.0
386.898	1.0	go	0.534	Go_X	1.0
389.423	1.0	go	0.452	Go_O	1.0
391.947	1.0	go	0.511	Go_X	1.0
394.471	0.4	stop	0.479	Go_X	0.0
396.995	1.0	go	0.534	Go_O	1.0
399.519	1.0	go	0.0	Go_X	0.0
402.044	1.0	go	0.533	Go_O	1.0
404.568	0.35	stop	0.545	Go_O	0.0
407.092	1.0	go	0.413	Go_O	1.0
409.616	1.0	go	0.308	Go_X	1.0
412.14	1.0	go	0.38	Go_O	1.0
414.665	1.0	go	0.493	Go_X	1.0
417.189	0.3	stop	0.0	Go_X	1.0
419.713	1.0	go	0.691	Go_O	1.0
422.237	1.0	go	0.434	Go_X	1.0
424.761	0.35	stop	0.499	Go_O	0.0
427.286	1.0	go	0.625	Go_X	1.0
429.81	1.0	go	0.892	Go_O	1.0
432.334	0.3	stop	0.0	Go_X	1.0
434.858	1.0	go	0.718	Go_X	1.0
437.382	1.0	go	0.618	Go_O	1.0
439.907	0.35	stop	0.493	Go_O	0.0
442.431	1.0	go	0.465	Go_X	1.0
444.955	1.0	go	0.599	Go_O	1.0
447.479	1.0	go	0.0	Go_O	0.0
450.003	1.0	go	0.347	Go_X	1.0
452.527	1.0	go	0.398	Go_X	1.0
455.052	1.0	go	0.335	Go_O	1.0
457.576	0.3	stop	0.58	Go_X	0.0
460.1	1.0	go	0.682	Go_O	1.0
462.624	0.25	stop	0.0	Go_O	1.0
465.148	1.0	go	0.598	Go_X	1.0
467.673	1.0	go	0.672	Go_X	1.0
470.197	1.0	go	0.743	Go_O	1.0
472.721	1.0	go	0.619	Go_O	0.0
475.245	1.0	go	0.316	Go_X	1.0
477.769	0.3	stop	0.0	Go_X	1.0
480.294	1.0	go	0.513	Go_X	1.0
482.818	1.0	go	0.373	Go_O	1.0
485.342	1.0	go	0.462	Go_X	1.0
487.866	0.35	stop	0.5	Go_O	0.0
490.39	0.3	stop	0.475	Go_X	0.0
492.915	0.25	stop	0.0	Go_O	1.0
495.439	1.0	go	0.6	Go_O	1.0
497.963	0.3	stop	0.0	Go_X	1.0
500.487	1.0	go	0.414	Go_O	1.0
503.011	1.0	go	0.677	Go_X	1.0
505.536	1.0	go	0.604	Go_X	1.0
508.06	1.0	go	0.556	Go_O	1.0
510.584	1.0	go	0.397	Go_X	1.0
513.108	1.0	go	0.433	Go_O	1.0
515.632	1.0	go	0.543	Go_X	1.0
518.156	1.0	go	0.497	Go_O	1.0
520.681	0.35	stop	0.0	Go_O	1.0
523.205	1.0	go	0.517	Go_X	1.0
525.729	1.0	go	0.639	Go_O	1.0
528.253	0.4	stop	0.0	Go_X	1.0
530.777	1.0	go	0.393	Go_X	1.0
533.302	1.0	go	0.608	Go_O	1.0
535.826	1.0	go	0.52	Go_X	1.0
538.35	1.0	go	0.545	Go_O	1.0
540.874	1.0	go	0.657	Go_X	1.0
543.398	0.45	stop	0.551	Go_O	0.0
545.923	1.0	go	0.675	Go_O	1.0
548.447	1.0	go	0.649	Go_X	1.0
550.971	1.0	go	0.0	Go_O	0.0
553.495	0.4	stop	0.391	Go_X	0.0
556.019	1.0	go	0.682	Go_O	1.0
558.544	0.35	stop	0.0	Go_O	1.0
561.068	1.0	go	0.59	Go_X	1.0
563.592	1.0	go	0.547	Go_X	1.0
566.116	1.0	go	0.772	Go_O	1.0
568.64	1.0	go	0.401	Go_X	1.0
571.165	1.0	go	0.494	Go_O	1.0
573.689	1.0	go	0.997	Go_O	1.0
576.213	1.0	go	0.409	Go_X	1.0
578.737	0.4	stop	0.315	Go_X	0.0
581.261	1.0	go	0.434	Go_X	1.0
583.785	1.0	go	0.88	Go_O	1.0
586.31	1.0	go	0.566	Go_O	1.0
588.834	1.0	go	0.0	Go_X	0.0
591.358	0.35	stop	0.299	Go_O	0.0
593.882	1.0	go	0.244	Go_X	1.0
596.406	0.3	stop	0.269	Go_X	0.0
598.931	1.0	go	0.41	Go_O	1.0
601.455	1.0	go	0.487	Go_X	1.0
603.979	0.25	stop	0.0	Go_O	1.0
606.503	1.0	go	0.408	Go_O	1.0
609.027	1.0	go	0.614	Go_O	1.0
611.552	1.0	go	0.373	Go_X	1.0
614.076	1.0	go	0.435	Go_X	1.0
616.6	1.0	go	0.519	Go_O	1.0
619.124	1.0	go	0.455	Go_O	1.0
621.648	1.0	go	0.665	Go_X	1.0
624.173	1.0	go	0.621	Go_X	1.0
626.697	1.0	go	0.534	Go_O	1.0
629.221	1.0	go	0.629	Go_O	1.0
631.745	0.3	stop	0.0	Go_X	1.0
634.269	1.0	go	0.492	Go_X	1.0
636.794	1.0	go	0.511	Go_X	1.0
639.318	0.35	stop	0.0	Go_O	1.0
641.842	1.0	go	0.779	Go_O	1.0
644.366	0.4	stop	0.456	Go_X	0.0
646.89	1.0	go	0.556	Go_O	1.0
649.414	1.0	go	0.528	Go_X	0.0
651.939	0.35	stop	0.0	Go_O	1.0
654.463	1.0	go	0.765	Go_O	1.0
656.987	0.4	stop	0.532	Go_X	0.0
659.511	1.0	go	0.947	Go_X	1.0
662.035	1.0	go	0.437	Go_O	1.0
664.56	1.0	go	0.511	Go_X	1.0
667.084	0.35	stop	0.0	Go_O	1.0
669.608	1.0	go	0.0	Go_X	0.0
672.132	1.0	go	0.493	Go_O	1.0
674.656	1.0	go	0.547	Go_O	1.0
677.181	1.0	go	0.548	Go_X	1.0
679.705	0.4	stop	0.459	Go_X	0.0
682.229	1.0	go	0.757	Go_O	1.0
684.753	1.0	go	0.506	Go_X	1.0
687.277	0.35	stop	0.0	Go_O	1.0
689.802	1.0	go	0.536	Go_X	1.0
692.326	1.0	go	0.627	Go_O	1.0
694.85	1.0	go	0.514	Go_X	1.0
697.374	1.0	go	0.561	Go_O	1.0
699.898	0.4	stop	0.402	Go_X	0.0
702.423	1.0	go	0.786	Go_O	1.0
704.947	0.35	stop	0.0	Go_O	1.0
707.471	1.0	go	0.0	Go_X	0.0
709.995	1.0	go	0.485	Go_X	1.0
712.519	0.4	stop	0.43	Go_X	0.0
715.043	1.0	go	0.669	Go_O	1.0
717.568	1.0	go	0.526	Go_X	1.0
720.092	1.0	go	0.485	Go_O	1.0
722.616	1.0	go	0.337	Go_O	1.0
725.14	0.35	stop	0.0	Go_O	1.0
727.664	1.0	go	0.465	Go_X	1.0
730.189	0.4	stop	0.0	Go_X	1.0
732.713	1.0	go	0.503	Go_O	1.0
735.237	1.0	go	0.6	Go_X	1.0
737.761	1.0	go	0.358	Go_X	1.0
740.285	1.0	go	0.502	Go_O	1.0
742.81	1.0	go	0.331	Go_O	0.0
745.334	1.0	go	0.474	Go_X	1.0
747.858	0.45	stop	0.385	Go_O	0.0
750.382	1.0	go	0.544	Go_O	1.0
752.906	1.0	go	0.64	Go_X	1.0
755.431	0.4	stop	0.448	Go_X	0.0
757.955	1.0	go	0.39	Go_O	1.0
760.479	1.0	go	0.598	Go_X	1.0
763.003	0.35	stop	0.409	Go_O	0.0
765.527	1.0	go	0.516	Go_X	1.0
768.052	1.0	go	0.665	Go_O	1.0
770.576	1.0	go	0.815	Go_O	1.0
773.1	1.0	go	0.423	Go_X	1.0
775.624	0.3	stop	0.0	Go_X	1.0
778.148	1.0	go	0.623	Go_X	1.0
780.672	0.35	stop	0.0	Go_O	1.0
783.197	1.0	go	0.485	Go_O	1.0
785.721	1.0	go	0.698	Go_X	1.0
788.245	1.0	go	0.49	Go_O	1.0
790.769	1.0	go	0.573	Go_X	1.0
793.293	1.0	go	0.557	Go_O	1.0
795.818	0.4	stop	0.511	Go_X	0.0
798.342	1.0	go	0.62	Go_O	1.0
800.866	1.0	go	0.545	Go_X	1.0
803.39	0.35	stop	0.323	Go_O	0.0
805.914	0.3	stop	0.317	Go_X	0.0
808.439	1.0	go	0.602	Go_X	1.0
810.963	1.0	go	0.69	Go_O	1.0
813.487	1.0	go	0.523	Go_O	1.0
816.011	1.0	go	0.65	Go_X	1.0
818.535	0.25	stop	0.0	Go_O	1.0
821.06	1.0	go	0.561	Go_O	1.0
