onset	duration	trial_type	response_time	stim_file	accuracy
51.2	1.0	go	0.786	Go_X	0.0
53.757	1.0	go	0.463	Go_O	0.0
56.281	1.0	go	0.392	Go_O	0.0
58.805	1.0	go	0.443	Go_X	0.0
61.33	1.0	go	0.423	Go_X	0.0
63.854	1.0	go	0.53	Go_O	0.0
66.378	0.25	stop	0.379	Go_O	0.0
68.902	1.0	go	0.544	Go_X	0.0
71.426	0.2	stop	0.0	Go_X	1.0
73.951	1.0	go	0.386	Go_O	0.0
76.475	1.0	go	0.567	Go_O	0.0
78.999	1.0	go	0.51	Go_X	0.0
81.523	0.25	stop	0.431	Go_O	0.0
84.047	1.0	go	0.355	Go_X	1.0
86.571	1.0	go	0.507	Go_O	0.0
89.096	0.2	stop	0.0	Go_X	1.0
91.62	0.25	stop	0.424	Go_O	0.0
94.144	1.0	go	0.443	Go_X	0.0
96.668	1.0	go	0.561	Go_O	0.0
99.192	0.2	stop	0.0	Go_X	1.0
101.717	1.0	go	0.482	Go_O	0.0
104.241	1.0	go	0.526	Go_X	0.0
106.765	0.25	stop	0.0	Go_O	1.0
109.289	1.0	go	0.499	Go_X	0.0
111.813	1.0	go	0.457	Go_O	1.0
114.338	0.3	stop	0.0	Go_X	1.0
116.862	1.0	go	0.506	Go_O	0.0
119.386	1.0	go	0.447	Go_X	0.0
121.91	0.35	stop	0.0	Go_O	1.0
124.434	1.0	go	0.0	Go_X	0.0
126.958	1.0	go	0.557	Go_O	0.0
129.483	1.0	go	0.513	Go_O	0.0
132.007	1.0	go	0.578	Go_X	0.0
134.531	1.0	go	0.555	Go_O	1.0
137.055	0.4	stop	0.0	Go_X	1.0
139.579	1.0	go	0.0	Go_X	0.0
142.104	1.0	go	0.615	Go_O	0.0
144.628	1.0	go	0.606	Go_X	0.0
147.152	1.0	go	0.524	Go_O	0.0
149.676	1.0	go	0.727	Go_X	0.0
152.2	0.45	stop	0.555	Go_O	0.0
154.724	1.0	go	0.377	Go_O	0.0
157.249	1.0	go	0.628	Go_X	0.0
159.773	1.0	go	0.758	Go_O	0.0
162.297	1.0	go	0.503	Go_X	0.0
164.821	1.0	go	0.0	Go_X	0.0
167.345	1.0	go	0.0	Go_O	0.0
169.869	0.4	stop	0.511	Go_X	0.0
172.394	1.0	go	0.481	Go_O	0.0
174.918	1.0	go	0.448	Go_X	0.0
177.442	0.35	stop	0.0	Go_O	1.0
179.966	1.0	go	0.0	Go_O	0.0
182.49	0.4	stop	0.0	Go_X	1.0
185.015	0.45	stop	0.0	Go_O	1.0
187.539	1.0	go	0.0	Go_X	0.0
190.063	1.0	go	0.0	Go_X	0.0
192.587	1.0	go	0.0	Go_O	0.0
195.111	1.0	go	0.0	Go_X	0.0
197.636	0.5	stop	0.484	Go_X	0.0
200.16	1.0	go	0.467	Go_O	0.0
202.684	0.45	stop	0.375	Go_O	0.0
205.208	1.0	go	0.468	Go_O	0.0
207.732	1.0	go	0.553	Go_X	0.0
210.256	1.0	go	0.532	Go_O	0.0
212.781	1.0	go	0.0	Go_X	0.0
215.305	1.0	go	0.0	Go_O	0.0
217.829	1.0	go	0.482	Go_X	0.0
220.353	1.0	go	0.655	Go_X	0.0
222.877	1.0	go	0.0	Go_O	0.0
225.402	1.0	go	0.0	Go_O	0.0
227.926	0.4	stop	0.0	Go_X	1.0
230.45	1.0	go	0.415	Go_X	0.0
232.974	1.0	go	0.0	Go_O	0.0
235.498	1.0	go	0.0	Go_X	0.0
238.022	0.45	stop	0.0	Go_O	1.0
240.547	1.0	go	0.0	Go_X	0.0
243.071	1.0	go	0.0	Go_O	0.0
245.595	1.0	go	0.0	Go_O	0.0
248.119	1.0	go	0.749	Go_X	0.0
250.643	1.0	go	0.58	Go_O	0.0
253.168	1.0	go	0.0	Go_X	0.0
255.692	0.5	stop	0.0	Go_X	1.0
258.216	1.0	go	0.0	Go_X	0.0
260.74	1.0	go	0.0	Go_O	0.0
263.264	0.55	stop	0.0	Go_O	1.0
265.788	1.0	go	0.355	Go_X	0.0
268.313	1.0	go	0.0	Go_O	0.0
270.837	0.6	stop	0.0	Go_X	1.0
273.361	1.0	go	0.0	Go_O	0.0
275.885	0.65	stop	0.0	Go_O	1.0
278.409	1.0	go	0.0	Go_X	0.0
280.934	1.0	go	0.0	Go_X	0.0
283.458	1.0	go	0.0	Go_O	0.0
285.982	1.0	go	0.0	Go_O	0.0
288.506	1.0	go	0.704	Go_X	0.0
291.03	0.7	stop	0.0	Go_X	1.0
293.554	0.75	stop	0.0	Go_O	1.0
296.079	1.0	go	0.0	Go_O	0.0
298.603	1.0	go	0.0	Go_X	0.0
301.127	0.8	stop	0.0	Go_X	1.0
303.651	1.0	go	0.0	Go_X	0.0
306.175	1.0	go	0.0	Go_O	0.0
308.7	1.0	go	0.0	Go_O	0.0
311.224	1.0	go	0.0	Go_X	0.0
313.748	1.0	go	0.697	Go_O	0.0
316.272	1.0	go	0.0	Go_X	0.0
318.796	0.85	stop	0.0	Go_O	1.0
321.32	1.0	go	0.0	Go_X	0.0
323.845	1.0	go	0.0	Go_O	0.0
326.369	1.0	go	0.0	Go_O	0.0
328.893	1.0	go	0.0	Go_X	0.0
331.417	1.0	go	0.0	Go_O	0.0
333.941	0.9	stop	0.986	Go_X	0.0
336.466	1.0	go	0.395	Go_X	0.0
338.99	1.0	go	0.433	Go_O	0.0
341.514	1.0	go	0.43	Go_X	0.0
344.038	1.0	go	0.453	Go_O	0.0
346.562	0.85	stop	0.767	Go_O	0.0
349.086	1.0	go	0.698	Go_X	0.0
351.611	1.0	go	0.0	Go_X	0.0
354.135	0.8	stop	0.0	Go_X	1.0
356.659	1.0	go	0.0	Go_O	0.0
359.183	0.85	stop	0.0	Go_O	1.0
361.707	1.0	go	0.0	Go_O	0.0
364.232	1.0	go	0.0	Go_X	0.0
366.756	1.0	go	0.0	Go_X	0.0
369.28	1.0	go	0.0	Go_O	0.0
371.804	1.0	go	0.0	Go_O	0.0
374.328	1.0	go	0.0	Go_X	0.0
376.852	1.0	go	0.0	Go_O	0.0
379.377	0.9	stop	0.0	Go_X	1.0
381.901	1.0	go	0.0	Go_X	0.0
384.425	1.0	go	0.0	Go_O	0.0
386.949	1.0	go	0.0	Go_X	0.0
389.473	0.95	stop	0.0	Go_O	1.0
391.998	1.0	go	0.0	Go_O	0.0
394.522	1.0	go	0.584	Go_X	0.0
397.046	1.0	go	0.435	Go_X	0.0
399.57	1.0	go	0.564	Go_O	0.0
402.094	1.0	stop	0.0	Go_X	1.0
404.635	1.0	go	0.0	Go_O	0.0
407.159	1.0	go	0.0	Go_X	0.0
409.684	1.05	stop	0.0	Go_O	1.0
412.275	1.0	go	0.0	Go_O	0.0
414.799	1.0	go	0.0	Go_X	0.0
417.323	1.1	stop	0.0	Go_X	1.0
419.964	1.0	go	0.511	Go_O	0.0
422.488	1.0	go	0.0	Go_X	0.0
425.013	1.15	stop	0.0	Go_O	1.0
427.704	1.0	go	0.0	Go_X	0.0
430.228	1.0	go	0.0	Go_O	0.0
432.752	1.0	go	0.392	Go_O	0.0
435.276	1.0	go	0.0	Go_X	0.0
437.801	1.0	go	0.0	Go_O	0.0
440.325	1.0	go	0.0	Go_X	0.0
442.849	1.2	stop	0.0	Go_X	1.0
445.59	1.0	go	0.0	Go_O	0.0
448.115	1.25	stop	0.0	Go_O	1.0
450.906	1.0	go	0.0	Go_X	0.0
453.43	1.0	go	0.0	Go_X	0.0
455.955	1.0	go	0.0	Go_O	0.0
458.479	1.0	go	0.0	Go_O	0.0
461.003	1.0	go	0.0	Go_X	0.0
463.527	1.3	stop	0.0	Go_X	1.0
466.369	1.0	go	0.0	Go_X	0.0
468.893	1.0	go	0.0	Go_O	0.0
471.417	1.0	go	0.0	Go_X	0.0
473.942	1.35	stop	0.0	Go_O	1.0
476.834	1.4	stop	0.0	Go_X	1.0
479.776	1.45	stop	0.0	Go_O	1.0
482.768	1.0	go	0.0	Go_O	0.0
485.292	1.5	stop	0.0	Go_X	1.0
488.334	1.0	go	0.0	Go_O	0.0
490.859	1.0	go	0.994	Go_X	1.0
493.383	1.0	go	0.0	Go_X	0.0
495.907	1.0	go	0.533	Go_O	0.0
498.431	1.0	go	0.496	Go_O	0.0
500.955	1.0	go	0.547	Go_X	0.0
503.48	1.0	go	0.452	Go_X	0.0
506.004	1.0	go	0.496	Go_O	0.0
508.528	1.55	stop	0.53	Go_O	0.0
511.62	1.0	go	0.994	Go_X	0.0
514.145	1.0	go	0.783	Go_O	0.0
516.669	1.5	stop	0.0	Go_X	1.0
519.711	1.0	go	0.0	Go_X	0.0
522.235	1.0	go	0.0	Go_O	0.0
524.76	1.0	go	0.0	Go_X	0.0
527.284	1.0	go	0.0	Go_O	0.0
529.808	1.0	go	0.775	Go_O	1.0
532.332	1.55	stop	0.53	Go_O	0.0
535.425	1.0	go	0.522	Go_X	0.0
537.949	1.0	go	0.504	Go_X	0.0
540.473	1.0	go	0.44	Go_O	0.0
542.997	1.5	stop	0.0	Go_X	1.0
546.04	1.0	go	0.751	Go_X	0.0
548.564	1.55	stop	0.0	Go_O	1.0
551.656	1.0	go	0.0	Go_O	0.0
554.18	1.0	go	0.0	Go_X	0.0
556.705	1.0	go	0.0	Go_O	0.0
559.229	1.0	go	0.0	Go_O	0.0
561.753	1.0	go	0.961	Go_X	0.0
564.277	1.0	go	0.699	Go_O	0.0
566.818	1.0	go	0.992	Go_X	0.0
569.342	1.6	stop	0.669	Go_X	0.0
572.485	1.0	go	0.544	Go_X	0.0
575.026	1.0	go	0.773	Go_O	0.0
577.55	1.0	go	0.426	Go_O	0.0
580.074	1.0	go	0.461	Go_X	0.0
582.598	1.55	stop	0.438	Go_O	0.0
585.691	1.0	go	0.501	Go_X	0.0
588.215	1.5	stop	0.398	Go_X	0.0
591.258	1.0	go	0.549	Go_O	0.0
593.782	1.0	go	0.522	Go_X	0.0
596.306	1.45	stop	0.915	Go_O	0.0
599.298	1.0	go	0.0	Go_O	0.0
601.822	1.0	go	0.0	Go_O	0.0
604.347	1.0	go	0.0	Go_X	0.0
606.871	1.0	go	0.414	Go_O	0.0
609.395	1.0	go	0.466	Go_X	0.0
611.919	1.0	go	0.466	Go_X	0.0
614.443	1.0	go	0.435	Go_O	0.0
616.967	1.0	go	0.465	Go_O	0.0
619.492	1.0	go	0.559	Go_X	0.0
622.016	1.0	go	0.509	Go_X	0.0
624.54	1.4	stop	0.495	Go_X	0.0
627.482	1.0	go	0.381	Go_O	0.0
630.006	1.0	go	0.701	Go_X	0.0
632.53	1.35	stop	0.766	Go_O	0.0
635.422	1.0	go	0.628	Go_O	0.0
637.947	1.3	stop	0.0	Go_X	1.0
640.788	1.0	go	0.629	Go_X	0.0
643.313	1.0	go	0.829	Go_O	0.0
645.837	1.35	stop	0.0	Go_O	1.0
648.729	1.0	go	0.0	Go_O	0.0
651.253	1.4	stop	0.573	Go_X	0.0
654.195	1.0	go	0.493	Go_X	0.0
656.719	1.0	go	0.445	Go_X	0.0
659.243	1.0	go	0.0	Go_O	0.0
661.767	1.35	stop	0.454	Go_O	0.0
664.659	1.0	go	0.451	Go_X	0.0
667.184	1.0	go	0.497	Go_O	0.0
669.708	1.0	go	0.0	Go_X	0.0
672.232	1.0	go	0.0	Go_O	0.0
674.756	1.3	stop	0.474	Go_X	0.0
677.598	1.0	go	0.0	Go_X	0.0
680.122	1.0	go	0.0	Go_O	0.0
682.646	1.25	stop	0.0	Go_O	1.0
685.438	1.0	go	0.0	Go_O	0.0
687.962	1.0	go	0.661	Go_X	0.0
690.486	1.0	go	0.0	Go_O	0.0
693.011	1.0	go	0.0	Go_X	0.0
695.535	1.3	stop	0.0	Go_X	1.0
698.377	1.0	go	0.74	Go_O	0.0
700.901	1.35	stop	0.0	Go_O	1.0
703.793	1.0	go	0.0	Go_X	0.0
706.317	1.0	go	0.0	Go_X	0.0
708.841	1.4	stop	0.0	Go_X	1.0
711.783	1.0	go	0.0	Go_O	0.0
714.307	1.0	go	0.0	Go_X	0.0
716.831	1.0	go	0.0	Go_O	0.0
719.356	1.0	go	0.0	Go_O	0.0
721.88	1.45	stop	0.0	Go_O	1.0
724.872	1.0	go	0.0	Go_X	0.0
727.396	1.5	stop	0.0	Go_X	1.0
730.439	1.0	go	0.0	Go_O	0.0
732.963	1.0	go	0.0	Go_X	0.0
735.487	1.0	go	0.0	Go_X	0.0
738.011	1.0	go	0.0	Go_O	0.0
740.535	1.0	go	0.0	Go_O	0.0
743.06	1.0	go	0.0	Go_X	0.0
745.584	1.55	stop	0.0	Go_O	1.0
748.676	1.0	go	0.0	Go_X	0.0
751.2	1.0	go	0.0	Go_O	0.0
753.725	1.6	stop	0.0	Go_X	1.0
756.867	1.0	go	0.0	Go_X	0.0
759.391	1.0	go	0.0	Go_O	0.0
761.916	1.65	stop	0.0	Go_O	1.0
765.109	1.0	go	0.0	Go_X	0.0
767.633	1.0	go	0.0	Go_O	0.0
770.157	1.0	go	0.0	Go_X	0.0
772.682	1.0	go	0.0	Go_O	0.0
775.205	1.7	stop	0.212	Go_X	0.0
778.448	1.0	go	0.0	Go_X	0.0
780.972	1.65	stop	0.0	Go_O	1.0
784.165	1.0	go	0.0	Go_O	0.0
786.689	1.0	go	0.0	Go_X	0.0
789.214	1.0	go	0.0	Go_O	0.0
791.738	1.0	go	0.0	Go_O	0.0
794.262	1.0	go	0.0	Go_X	0.0
796.786	1.7	stop	0.0	Go_X	1.0
800.029	1.0	go	0.0	Go_O	0.0
802.553	1.0	go	0.0	Go_X	0.0
805.078	1.75	stop	0.0	Go_O	1.0
808.371	1.8	stop	0.0	Go_X	1.0
811.714	1.0	go	0.0	Go_O	0.0
814.238	1.0	go	0.0	Go_X	0.0
816.762	1.0	go	0.0	Go_O	0.0
819.286	1.0	go	0.0	Go_X	0.0
821.811	1.85	stop	0.0	Go_O	1.0
825.204	1.0	go	0.0	Go_X	0.0
