frame	onset	duration	trial_type	event_type	response_type	response_time	stim_file	accuracy
0	61.546		control-noreward	ImageDisplay1		0.0		
0	63.769	0.75	control-noreward	StartDisplay				
0	64.522		control-noreward	ImageDisplay2		0.0		
0	67.531	1.6	control-noreward	ChoiceDisplay		0.0		
0	69.119	0.0	control-noreward	ChosenDisplay		0.0		
0	69.169	0.25	control-noreward	TurnDisplay				
0	69.369	0.75	control-noreward	OutcomeDisplay				
1	70.122		win-noreward	ImageDisplay1		0.0		
1	72.128	0.75	win-noreward	StartDisplay				
1	72.88		win-noreward	ImageDisplay2		0.0		
1	76.123	1.6	win-noreward	ChoiceDisplay	1	0.868	1	1
1	77.009	0.732	win-noreward	ChosenDisplay		0.0		
1	77.728	0.25	win-noreward	TurnDisplay				
1	77.978	0.75	win-noreward	OutcomeDisplay				
2	78.731		control-noreward	ImageDisplay1		0.0		
2	80.971	0.75	control-noreward	StartDisplay				
2	81.723		control-noreward	ImageDisplay2		0.0		
2	84.732	1.6	control-noreward	ChoiceDisplay	1	0.429	1	1
2	85.183	1.171	control-noreward	ChosenDisplay		0.0		
2	86.337	0.25	control-noreward	TurnDisplay				
2	86.587	0.75	control-noreward	OutcomeDisplay				
3	87.34		win-reward	ImageDisplay1		0.0		
3	89.329	0.75	win-reward	StartDisplay				
3	90.081		win-reward	ImageDisplay2		0.0		
3	93.341	1.6	win-reward	ChoiceDisplay	1	1.019	1	1
3	94.377	0.581	win-reward	ChosenDisplay		0.0		
3	94.946	0.25	win-reward	TurnDisplay				
3	95.196	0.75	win-reward	OutcomeDisplay				
4	95.949		win-noreward	ImageDisplay1		0.0		
4	98.189	0.75	win-noreward	StartDisplay				
4	98.941		win-noreward	ImageDisplay2		0.0		
4	101.95	1.6	win-noreward	ChoiceDisplay		0.0		
4	103.538	0.0	win-noreward	ChosenDisplay		0.0		
4	103.555	0.25	win-noreward	TurnDisplay				
4	103.789	0.75	win-noreward	OutcomeDisplay				
5	104.541		control-reward	ImageDisplay1		0.0		
5	106.798	0.75	control-reward	StartDisplay				
5	107.55		control-reward	ImageDisplay2		0.0		
5	110.542	1.6	control-reward	ChoiceDisplay	1	0.783	1	1
5	111.344	0.817	control-reward	ChosenDisplay		0.0		
5	112.147	0.25	control-reward	TurnDisplay				
5	112.398	0.75	control-reward	OutcomeDisplay				
6	113.15		control-reward	ImageDisplay1		0.0		
6	115.39	0.75	control-reward	StartDisplay				
6	116.142		control-reward	ImageDisplay2		0.0		
6	119.151	1.6	control-reward	ChoiceDisplay	1	0.273	1	1
6	119.452	1.327	control-reward	ChosenDisplay		0.0		
6	120.756	0.25	control-reward	TurnDisplay				
6	121.007	0.75	control-reward	OutcomeDisplay				
7	121.759		control-reward	ImageDisplay1		0.0		
7	123.748	0.75	control-reward	StartDisplay				
7	124.5		control-reward	ImageDisplay2		0.0		
7	127.76	1.6	control-reward	ChoiceDisplay	1	0.726	1	1
7	128.512	0.874	control-reward	ChosenDisplay		0.0		
7	129.365	0.25	control-reward	TurnDisplay				
7	129.615	0.75	control-reward	OutcomeDisplay				
8	130.368		control-reward	ImageDisplay1		0.0		
8	132.608	0.75	control-reward	StartDisplay				
8	133.36		control-reward	ImageDisplay2		0.0		
8	136.369	1.6	control-reward	ChoiceDisplay	1	0.465	1	1
8	136.854	1.135	control-reward	ChosenDisplay		0.0		
8	137.974	0.25	control-reward	TurnDisplay				
8	138.224	0.75	control-reward	OutcomeDisplay				
9	138.977		win-noreward	ImageDisplay1		0.0		
9	141.217	0.75	win-noreward	StartDisplay				
9	141.969		win-noreward	ImageDisplay2		0.0		
9	144.978	1.6	win-noreward	ChoiceDisplay		0.0		
9	146.566	0.0	win-noreward	ChosenDisplay		0.0		
9	146.583	0.25	win-noreward	TurnDisplay				
9	146.817	0.75	win-noreward	OutcomeDisplay				
10	147.569		win-noreward	ImageDisplay1		0.0		
10	149.826	0.75	win-noreward	StartDisplay				
10	150.578		win-noreward	ImageDisplay2		0.0		
10	153.57	1.6	win-noreward	ChoiceDisplay	1	1.157	1	1
10	154.757	0.443	win-noreward	ChosenDisplay		0.0		
10	155.175	0.25	win-noreward	TurnDisplay				
10	155.426	0.75	win-noreward	OutcomeDisplay				
11	156.178		control-reward	ImageDisplay1		0.0		
11	158.184	0.75	control-reward	StartDisplay				
11	158.919		control-reward	ImageDisplay2		0.0		
11	162.179	1.6	control-reward	ChoiceDisplay		0.0		
11	163.784	0.0	control-reward	ChosenDisplay		0.0		
11	163.801	0.25	control-reward	TurnDisplay				
11	164.018	0.75	control-reward	OutcomeDisplay				
12	164.77		win-reward	ImageDisplay1		0.0		
12	166.776	0.75	win-reward	StartDisplay				
12	167.528		win-reward	ImageDisplay2		0.0		
12	170.771	1.6	win-reward	ChoiceDisplay	1	0.527	1	1
12	171.323	1.073	win-reward	ChosenDisplay		0.0		
12	172.376	0.25	win-reward	TurnDisplay				
12	172.627	0.75	win-reward	OutcomeDisplay				
13	173.379		win-noreward	ImageDisplay1		0.0		
13	175.619	0.75	win-noreward	StartDisplay				
13	176.371		win-noreward	ImageDisplay2		0.0		
13	179.38	1.6	win-noreward	ChoiceDisplay	1	0.583	1	1
13	179.982	1.017	win-noreward	ChosenDisplay		0.0		
13	180.985	0.25	win-noreward	TurnDisplay				
13	181.236	0.75	win-noreward	OutcomeDisplay				
14	181.988		loss-noreward	ImageDisplay1		0.0		
14	183.994	0.75	loss-noreward	StartDisplay				
14	184.73		loss-noreward	ImageDisplay2		0.0		
14	187.989	1.6	loss-noreward	ChoiceDisplay	1	0.597	1	1
14	188.608	1.003	loss-noreward	ChosenDisplay		0.0		
14	189.594	0.25	loss-noreward	TurnDisplay				
14	189.845	0.75	loss-noreward	OutcomeDisplay				
15	190.597		control-noreward	ImageDisplay1		0.0		
15	192.837	0.75	control-noreward	StartDisplay				
15	193.589		control-noreward	ImageDisplay2		0.0		
15	196.598	1.6	control-noreward	ChoiceDisplay		0.0		
15	198.186	0.0	control-noreward	ChosenDisplay		0.0		
15	198.203	0.25	control-noreward	TurnDisplay				
15	198.437	0.75	control-noreward	OutcomeDisplay				
16	199.189		loss-noreward	ImageDisplay1		0.0		
16	201.195	0.75	loss-noreward	StartDisplay				
16	201.947		loss-noreward	ImageDisplay2		0.0		
16	205.191	1.6	loss-noreward	ChoiceDisplay		0.0		
16	206.795	0.0	loss-noreward	ChosenDisplay		0.0		
16	206.812	0.25	loss-noreward	TurnDisplay				
16	207.046	0.75	loss-noreward	OutcomeDisplay				
17	207.798		control-noreward	ImageDisplay1		0.0		
17	209.788	0.75	control-noreward	StartDisplay				
17	210.54		control-noreward	ImageDisplay2		0.0		
17	213.799	1.6	control-noreward	ChoiceDisplay		0.0		
17	215.388	0.0	control-noreward	ChosenDisplay		0.0		
17	215.404	0.25	control-noreward	TurnDisplay				
17	215.638	0.75	control-noreward	OutcomeDisplay				
18	216.391		win-noreward	ImageDisplay1		0.0		
18	218.396	0.75	win-noreward	StartDisplay				
18	219.149		win-noreward	ImageDisplay2		0.0		
18	222.392	1.6	win-noreward	ChoiceDisplay		0.0		
18	223.997	0.0	win-noreward	ChosenDisplay		0.0		
18	224.013	0.25	win-noreward	TurnDisplay				
18	224.247	0.75	win-noreward	OutcomeDisplay				
19	224.999		win-reward	ImageDisplay1		0.0		
19	226.989	0.75	win-reward	StartDisplay				
19	227.741		win-reward	ImageDisplay2		0.0		
19	231.001	1.6	win-reward	ChoiceDisplay	1	0.559	1	1
19	231.586	1.041	win-reward	ChosenDisplay		0.0		
19	232.605	0.25	win-reward	TurnDisplay				
19	232.856	0.75	win-reward	OutcomeDisplay				
20	233.608		loss-noreward	ImageDisplay1		0.0		
20	235.598	0.75	loss-noreward	StartDisplay				
20	236.35		loss-noreward	ImageDisplay2		0.0		
20	239.61	1.6	loss-noreward	ChoiceDisplay	1	0.537	1	1
20	240.161	1.063	loss-noreward	ChosenDisplay		0.0		
20	241.214	0.25	loss-noreward	TurnDisplay				
20	241.465	0.75	loss-noreward	OutcomeDisplay				
21	242.217		control-reward	ImageDisplay1		0.0		
21	244.207	0.75	control-reward	StartDisplay				
21	244.959		control-reward	ImageDisplay2		0.0		
21	248.219	1.6	control-reward	ChoiceDisplay	1	0.476	1	1
21	248.72	1.124	control-reward	ChosenDisplay		0.0		
21	249.823	0.25	control-reward	TurnDisplay				
21	250.074	0.75	control-reward	OutcomeDisplay				
22	250.826		loss-reward	ImageDisplay1		0.0		
22	252.816	0.75	loss-reward	StartDisplay				
22	253.568		loss-reward	ImageDisplay2		0.0		
22	256.828	1.6	loss-reward	ChoiceDisplay	1	0.864	1	1
22	257.714	0.736	loss-reward	ChosenDisplay		0.0		
22	258.432	0.25	loss-reward	TurnDisplay				
22	258.683	0.75	loss-reward	OutcomeDisplay				
23	259.435		loss-noreward	ImageDisplay1		0.0		
23	261.675	0.75	loss-noreward	StartDisplay				
23	262.428		loss-noreward	ImageDisplay2		0.0		
23	265.437	1.6	loss-noreward	ChoiceDisplay	1	0.889	1	1
23	266.339	0.711	loss-noreward	ChosenDisplay		0.0		
23	267.041	0.25	loss-noreward	TurnDisplay				
23	267.292	0.75	loss-noreward	OutcomeDisplay				
24	268.044		loss-reward	ImageDisplay1		0.0		
24	270.284	0.75	loss-reward	StartDisplay				
24	271.037		loss-reward	ImageDisplay2		0.0		
24	274.045	1.6	loss-reward	ChoiceDisplay	1	0.506	1	1
24	274.564	1.094	loss-reward	ChosenDisplay		0.0		
24	275.65	0.25	loss-reward	TurnDisplay				
24	275.901	0.75	loss-reward	OutcomeDisplay				
25	276.653		control-reward	ImageDisplay1		0.0		
25	278.643	0.75	control-reward	StartDisplay				
25	279.411		control-reward	ImageDisplay2		0.0		
25	282.654	1.6	control-reward	ChoiceDisplay		0.0		
25	284.243	0.0	control-reward	ChosenDisplay		0.0		
25	284.259	0.25	control-reward	TurnDisplay				
25	284.493	0.75	control-reward	OutcomeDisplay				
26	285.246		control-noreward	ImageDisplay1		0.0		
26	287.251	0.75	control-noreward	StartDisplay				
26	288.004		control-noreward	ImageDisplay2		0.0		
26	291.247	1.6	control-noreward	ChoiceDisplay		0.0		
26	292.852	0.0	control-noreward	ChosenDisplay		0.0		
26	292.868	0.25	control-noreward	TurnDisplay				
26	293.102	0.75	control-noreward	OutcomeDisplay				
27	293.854		win-reward	ImageDisplay1		0.0		
27	295.844	0.75	win-reward	StartDisplay				
27	296.596		win-reward	ImageDisplay2		0.0		
27	299.856	1.6	win-reward	ChoiceDisplay		0.0		
27	301.444	0.0	win-reward	ChosenDisplay		0.0		
27	301.461	0.25	win-reward	TurnDisplay				
27	301.694	0.75	win-reward	OutcomeDisplay				
28	302.447		win-noreward	ImageDisplay1		0.0		
28	304.453	0.75	win-noreward	StartDisplay				
28	305.205		win-noreward	ImageDisplay2		0.0		
28	308.448	1.6	win-noreward	ChoiceDisplay		0.0		
28	310.053	0.0	win-noreward	ChosenDisplay		0.0		
28	310.069	0.25	win-noreward	TurnDisplay				
28	310.303	0.75	win-noreward	OutcomeDisplay				
29	311.056		control-noreward	ImageDisplay1		0.0		
29	313.296	0.75	control-noreward	StartDisplay				
29	314.048		control-noreward	ImageDisplay2		0.0		
29	317.057	1.6	control-noreward	ChoiceDisplay	1	1.474	1	1
29	318.545	0.126	control-noreward	ChosenDisplay		0.0		
29	318.662	0.25	control-noreward	TurnDisplay				
29	318.912	0.75	control-noreward	OutcomeDisplay				
30	319.665		win-noreward	ImageDisplay1		0.0		
30	321.654	0.75	win-noreward	StartDisplay				
30	322.406		win-noreward	ImageDisplay2		0.0		
30	325.666	1.6	win-noreward	ChoiceDisplay		0.0		
30	327.254	0.0	win-noreward	ChosenDisplay		0.0		
30	327.271	0.25	win-noreward	TurnDisplay				
30	327.505	0.75	win-noreward	OutcomeDisplay				
31	328.257		win-reward	ImageDisplay1		0.0		
31	330.514	0.75	win-reward	StartDisplay				
31	331.266		win-reward	ImageDisplay2		0.0		
31	334.258	1.6	win-reward	ChoiceDisplay	1	0.415	1	1
31	334.693	1.185	win-reward	ChosenDisplay		0.0		
31	335.863	0.25	win-reward	TurnDisplay				
31	336.114	0.75	win-reward	OutcomeDisplay				
32	336.866		win-noreward	ImageDisplay1		0.0		
32	339.106	0.75	win-noreward	StartDisplay				
32	339.858		win-noreward	ImageDisplay2		0.0		
32	342.867	1.6	win-noreward	ChoiceDisplay	1	0.547	1	1
32	343.435	1.053	win-noreward	ChosenDisplay		0.0		
32	344.472	0.25	win-noreward	TurnDisplay				
32	344.723	0.75	win-noreward	OutcomeDisplay				
33	345.475		loss-reward	ImageDisplay1		0.0		
33	347.715	0.75	loss-reward	StartDisplay				
33	348.467		loss-reward	ImageDisplay2		0.0		
33	351.476	1.6	loss-reward	ChoiceDisplay	1	0.696	1	1
33	352.195	0.904	loss-reward	ChosenDisplay		0.0		
33	353.081	0.25	loss-reward	TurnDisplay				
33	353.332	0.75	loss-reward	OutcomeDisplay				
34	354.084		win-reward	ImageDisplay1		0.0		
34	356.073	0.75	win-reward	StartDisplay				
34	356.825		win-reward	ImageDisplay2		0.0		
34	360.085	1.6	win-reward	ChoiceDisplay	1	0.517	1	1
34	360.62	1.083	win-reward	ChosenDisplay		0.0		
34	361.69	0.25	win-reward	TurnDisplay				
34	361.941	0.75	win-reward	OutcomeDisplay				
35	362.693		win-reward	ImageDisplay1		0.0		
35	364.933	0.75	win-reward	StartDisplay				
35	365.685		win-reward	ImageDisplay2		0.0		
35	368.694	1.6	win-reward	ChoiceDisplay	1	0.67	1	1
35	369.379	0.93	win-reward	ChosenDisplay		0.0		
35	370.299	0.25	win-reward	TurnDisplay				
35	370.55	0.75	win-reward	OutcomeDisplay				
36	371.302		control-noreward	ImageDisplay1		0.0		
36	373.542	0.75	control-noreward	StartDisplay				
36	374.294		control-noreward	ImageDisplay2		0.0		
36	377.303	1.6	control-noreward	ChoiceDisplay	1	0.237	1	1
36	377.554	1.363	control-noreward	ChosenDisplay		0.0		
36	378.908	0.25	control-noreward	TurnDisplay				
36	379.159	0.75	control-noreward	OutcomeDisplay				
37	379.911		win-reward	ImageDisplay1		0.0		
37	381.9	0.75	win-reward	StartDisplay				
37	382.652		win-reward	ImageDisplay2		0.0		
37	385.912	1.6	win-reward	ChoiceDisplay		0.0		
37	387.5	0.0	win-reward	ChosenDisplay		0.0		
37	387.517	0.25	win-reward	TurnDisplay				
37	387.751	0.75	win-reward	OutcomeDisplay				
38	388.503		control-noreward	ImageDisplay1		0.0		
38	390.509	0.75	control-noreward	StartDisplay				
38	391.261		control-noreward	ImageDisplay2		0.0		
38	394.504	1.6	control-noreward	ChoiceDisplay		0.0		
38	396.109	0.0	control-noreward	ChosenDisplay		0.0		
38	396.126	0.25	control-noreward	TurnDisplay				
38	396.36	0.75	control-noreward	OutcomeDisplay				
39	397.112		win-reward	ImageDisplay1		0.0		
39	399.352	0.75	win-reward	StartDisplay				
39	400.104		win-reward	ImageDisplay2		0.0		
39	403.113	1.6	win-reward	ChoiceDisplay	1	0.447	1	1
39	403.581	1.153	win-reward	ChosenDisplay		0.0		
39	404.718	0.25	win-reward	TurnDisplay				
39	404.969	0.75	win-reward	OutcomeDisplay				
40	405.721		win-noreward	ImageDisplay1		0.0		
40	407.71	0.75	win-noreward	StartDisplay				
40	408.462		win-noreward	ImageDisplay2		0.0		
40	411.722	1.6	win-noreward	ChoiceDisplay	1	0.623	1	1
40	412.357	0.977	win-noreward	ChosenDisplay		0.0		
40	413.327	0.25	win-noreward	TurnDisplay				
40	413.578	0.75	win-noreward	OutcomeDisplay				
41	414.33		loss-noreward	ImageDisplay1		0.0		
41	416.57	0.75	loss-noreward	StartDisplay				
41	417.322		loss-noreward	ImageDisplay2		0.0		
41	420.331	1.6	loss-noreward	ChoiceDisplay	1	0.523	1	1
41	420.866	1.077	loss-noreward	ChosenDisplay		0.0		
41	421.936	0.25	loss-noreward	TurnDisplay				
41	422.187	0.75	loss-noreward	OutcomeDisplay				
42	422.939		win-reward	ImageDisplay1		0.0		
42	425.179	0.75	win-reward	StartDisplay				
42	425.931		win-reward	ImageDisplay2		0.0		
42	428.94	1.6	win-reward	ChoiceDisplay	1	0.578	1	1
42	429.542	1.022	win-reward	ChosenDisplay		0.0		
42	430.545	0.25	win-reward	TurnDisplay				
42	430.796	0.75	win-reward	OutcomeDisplay				
43	431.548		control-reward	ImageDisplay1		0.0		
43	433.788	0.75	control-reward	StartDisplay				
43	434.54		control-reward	ImageDisplay2		0.0		
43	437.549	1.6	control-reward	ChoiceDisplay	1	0.41	1	1
43	437.984	1.19	control-reward	ChosenDisplay		0.0		
43	439.154	0.25	control-reward	TurnDisplay				
43	439.405	0.75	control-reward	OutcomeDisplay				
44	440.157		win-noreward	ImageDisplay1		0.0		
44	442.397	0.75	win-noreward	StartDisplay				
44	443.149		win-noreward	ImageDisplay2		0.0		
44	446.158	1.6	win-noreward	ChoiceDisplay	1	0.452	1	1
44	446.626	1.148	win-noreward	ChosenDisplay		0.0		
44	447.763	0.25	win-noreward	TurnDisplay				
44	448.013	0.75	win-noreward	OutcomeDisplay				
45	448.766		loss-reward	ImageDisplay1		0.0		
45	451.006	0.75	loss-reward	StartDisplay				
45	451.758		loss-reward	ImageDisplay2		0.0		
45	454.767	1.6	loss-reward	ChoiceDisplay		0.0		
45	456.355	0.0	loss-reward	ChosenDisplay		0.0		
45	456.372	0.25	loss-reward	TurnDisplay				
45	456.606	0.75	loss-reward	OutcomeDisplay				
46	457.358		control-reward	ImageDisplay1		0.0		
46	459.364	0.75	control-reward	StartDisplay				
46	460.116		control-reward	ImageDisplay2		0.0		
46	463.359	1.6	control-reward	ChoiceDisplay		0.0		
46	464.964	0.0	control-reward	ChosenDisplay		0.0		
46	464.981	0.25	control-reward	TurnDisplay				
46	465.215	0.75	control-reward	OutcomeDisplay				
47	465.967		loss-reward	ImageDisplay1		0.0		
47	467.956	0.75	loss-reward	StartDisplay				
47	468.708		loss-reward	ImageDisplay2		0.0		
47	471.968	1.6	loss-reward	ChoiceDisplay		0.0		
47	473.556	0.0	loss-reward	ChosenDisplay		0.0		
47	473.573	0.25	loss-reward	TurnDisplay				
47	473.807	0.75	loss-reward	OutcomeDisplay				
48	474.559		loss-noreward	ImageDisplay1		0.0		
48	476.565	0.75	loss-noreward	StartDisplay				
48	477.317		loss-noreward	ImageDisplay2		0.0		
48	480.56	1.6	loss-noreward	ChoiceDisplay		0.0		
48	482.165	0.0	loss-noreward	ChosenDisplay		0.0		
48	482.182	0.25	loss-noreward	TurnDisplay				
48	482.416	0.75	loss-noreward	OutcomeDisplay				
49	483.168		win-reward	ImageDisplay1		0.0		
49	485.157	0.75	win-reward	StartDisplay				
49	485.91		win-reward	ImageDisplay2		0.0		
49	489.169	1.6	win-reward	ChoiceDisplay		0.0		
49	490.757	0.0	win-reward	ChosenDisplay		0.0		
49	490.774	0.25	win-reward	TurnDisplay				
49	491.008	0.75	win-reward	OutcomeDisplay				
50	491.76		loss-noreward	ImageDisplay1		0.0		
50	494.017	0.75	loss-noreward	StartDisplay				
50	494.769		loss-noreward	ImageDisplay2		0.0		
50	497.762	1.6	loss-noreward	ChoiceDisplay	1	1.071	1	1
50	498.848	0.529	loss-noreward	ChosenDisplay		0.0		
50	499.366	0.25	loss-noreward	TurnDisplay				
50	499.617	0.75	loss-noreward	OutcomeDisplay				
51	500.369		loss-reward	ImageDisplay1		0.0		
51	502.359	0.75	loss-reward	StartDisplay				
51	503.111		loss-reward	ImageDisplay2		0.0		
51	506.371	1.6	loss-reward	ChoiceDisplay	1	0.669	1	1
51	507.056	0.931	loss-reward	ChosenDisplay		0.0		
51	507.975	0.25	loss-reward	TurnDisplay				
51	508.226	0.75	loss-reward	OutcomeDisplay				
52	508.978		win-reward	ImageDisplay1		0.0		
52	511.218	0.75	win-reward	StartDisplay				
52	511.971		win-reward	ImageDisplay2		0.0		
52	514.98	1.6	win-reward	ChoiceDisplay		0.0		
52	516.568	0.0	win-reward	ChosenDisplay		0.0		
52	516.584	0.25	win-reward	TurnDisplay				
52	516.818	0.75	win-reward	OutcomeDisplay				
53	517.571		control-noreward	ImageDisplay1		0.0		
53	519.577	0.75	control-noreward	StartDisplay				
53	520.329		control-noreward	ImageDisplay2		0.0		
53	523.572	1.6	control-noreward	ChoiceDisplay		0.0		
53	525.177	0.0	control-noreward	ChosenDisplay		0.0		
53	525.193	0.25	control-noreward	TurnDisplay				
53	525.427	0.75	control-noreward	OutcomeDisplay				
54	526.18		loss-noreward	ImageDisplay1		0.0		
54	528.42	0.75	loss-noreward	StartDisplay				
54	529.172		loss-noreward	ImageDisplay2		0.0		
54	532.181	1.6	loss-noreward	ChoiceDisplay	1	0.699	1	1
54	532.9	0.901	loss-noreward	ChosenDisplay		0.0		
54	533.786	0.25	loss-noreward	TurnDisplay				
54	534.036	0.75	loss-noreward	OutcomeDisplay				
55	534.789		control-reward	ImageDisplay1		0.0		
55	537.029	0.75	control-reward	StartDisplay				
55	537.781		control-reward	ImageDisplay2		0.0		
55	540.79	1.6	control-reward	ChoiceDisplay	1	0.507	1	1
55	541.325	1.093	control-reward	ChosenDisplay		0.0		
55	542.395	0.25	control-reward	TurnDisplay				
55	542.645	0.75	control-reward	OutcomeDisplay				
56	543.398		control-reward	ImageDisplay1		0.0		
56	545.638	0.75	control-reward	StartDisplay				
56	546.39		control-reward	ImageDisplay2		0.0		
56	549.399	1.6	control-reward	ChoiceDisplay	1	0.597	1	1
56	550.017	1.003	control-reward	ChosenDisplay		0.0		
56	551.003	0.25	control-reward	TurnDisplay				
56	551.254	0.75	control-reward	OutcomeDisplay				
57	552.007		control-noreward	ImageDisplay1		0.0		
57	553.996	0.75	control-noreward	StartDisplay				
57	554.748		control-noreward	ImageDisplay2		0.0		
57	558.008	1.6	control-noreward	ChoiceDisplay	1	0.671	1	1
57	558.693	0.929	control-noreward	ChosenDisplay		0.0		
57	559.612	0.25	control-noreward	TurnDisplay				
57	559.864	0.75	control-noreward	OutcomeDisplay				
58	560.615		win-reward	ImageDisplay1		0.0		
58	562.855	0.75	win-reward	StartDisplay				
58	563.608		win-reward	ImageDisplay2		0.0		
58	566.617	1.6	win-reward	ChoiceDisplay	1	0.724	1	1
58	567.352	0.876	win-reward	ChosenDisplay		0.0		
58	568.221	0.25	win-reward	TurnDisplay				
58	568.472	0.75	win-reward	OutcomeDisplay				
59	569.224		control-reward	ImageDisplay1		0.0		
59	571.214	0.75	control-reward	StartDisplay				
59	571.966		control-reward	ImageDisplay2		0.0		
59	575.226	1.6	control-reward	ChoiceDisplay		0.0		
59	576.814	0.0	control-reward	ChosenDisplay		0.0		
59	576.83	0.25	control-reward	TurnDisplay				
59	577.064	0.75	control-reward	OutcomeDisplay				
60	577.817		control-noreward	ImageDisplay1		0.0		
60	579.823	0.75	control-noreward	StartDisplay				
60	580.575		control-noreward	ImageDisplay2		0.0		
60	583.818	1.6	control-noreward	ChoiceDisplay	1	0.294	1	1
60	584.135	1.306	control-noreward	ChosenDisplay		0.0		
60	585.423	0.25	control-noreward	TurnDisplay				
60	585.673	0.75	control-noreward	OutcomeDisplay				
61	586.426		loss-reward	ImageDisplay1		0.0		
61	588.415	0.75	loss-reward	StartDisplay				
61	589.167		loss-reward	ImageDisplay2		0.0		
61	592.427	1.6	loss-reward	ChoiceDisplay	1	0.632	1	1
61	593.079	0.968	loss-reward	ChosenDisplay		0.0		
61	594.032	0.25	loss-reward	TurnDisplay				
61	594.282	0.75	loss-reward	OutcomeDisplay				
62	595.035		control-reward	ImageDisplay1		0.0		
62	597.024	0.75	control-reward	StartDisplay				
62	597.776		control-reward	ImageDisplay2		0.0		
62	601.036	1.6	control-reward	ChoiceDisplay	1	0.307	1	1
62	601.37	1.293	control-reward	ChosenDisplay		0.0		
62	602.641	0.25	control-reward	TurnDisplay				
62	602.891	0.75	control-reward	OutcomeDisplay				
63	603.644		loss-reward	ImageDisplay1		0.0		
63	605.884	0.75	loss-reward	StartDisplay				
63	606.636		loss-reward	ImageDisplay2		0.0		
63	609.645	1.6	loss-reward	ChoiceDisplay	1	0.657	1	1
63	610.332	0.943	loss-reward	ChosenDisplay		0.0		
63	611.25	0.25	loss-reward	TurnDisplay				
63	611.5	0.75	loss-reward	OutcomeDisplay				
64	612.253		control-noreward	ImageDisplay1		0.0		
64	614.242	0.75	control-noreward	StartDisplay				
64	614.994		control-noreward	ImageDisplay2		0.0		
64	618.254	1.6	control-noreward	ChoiceDisplay	1	0.605	1	1
64	618.872	0.995	control-noreward	ChosenDisplay		0.0		
64	619.859	0.25	control-noreward	TurnDisplay				
64	620.109	0.75	control-noreward	OutcomeDisplay				
65	620.862		control-noreward	ImageDisplay1		0.0		
65	623.102	0.75	control-noreward	StartDisplay				
65	623.857		control-noreward	ImageDisplay2		0.0		
65	626.863	1.6	control-noreward	ChoiceDisplay		0.0		
65	628.451	0.0	control-noreward	ChosenDisplay		0.0		
65	628.467	0.25	control-noreward	TurnDisplay				
65	628.701	0.75	control-noreward	OutcomeDisplay				
66	629.454		loss-noreward	ImageDisplay1		0.0		
66	631.46	0.75	loss-noreward	StartDisplay				
66	632.212		loss-noreward	ImageDisplay2		0.0		
66	635.455	1.6	loss-noreward	ChoiceDisplay	1	0.636	1	1
66	636.107	0.964	loss-noreward	ChosenDisplay		0.0		
66	637.06	0.25	loss-noreward	TurnDisplay				
66	637.31	0.75	loss-noreward	OutcomeDisplay				
67	638.063		control-reward	ImageDisplay1		0.0		
67	640.303	0.75	control-reward	StartDisplay				
67	641.055		control-reward	ImageDisplay2		0.0		
67	644.064	1.6	control-reward	ChoiceDisplay		0.0		
67	645.652	0.0	control-reward	ChosenDisplay		0.0		
67	645.669	0.25	control-reward	TurnDisplay				
67	645.903	0.75	control-reward	OutcomeDisplay				
68	646.655		loss-reward	ImageDisplay1		0.0		
68	648.661	0.75	loss-reward	StartDisplay				
68	649.413		loss-reward	ImageDisplay2		0.0		
68	652.656	1.6	loss-reward	ChoiceDisplay		0.0		
68	654.261	0.0	loss-reward	ChosenDisplay		0.0		
68	654.278	0.25	loss-reward	TurnDisplay				
68	654.512	0.75	loss-reward	OutcomeDisplay				
69	655.264		control-noreward	ImageDisplay1		0.0		
69	657.504	0.75	control-noreward	StartDisplay				
69	658.256		control-noreward	ImageDisplay2		0.0		
69	661.265	1.6	control-noreward	ChoiceDisplay		0.0		
69	662.853	0.0	control-noreward	ChosenDisplay		0.0		
69	662.87	0.25	control-noreward	TurnDisplay				
69	663.104	0.75	control-noreward	OutcomeDisplay				
70	663.856		loss-reward	ImageDisplay1		0.0		
70	665.862	0.75	loss-reward	StartDisplay				
70	666.614		loss-reward	ImageDisplay2		0.0		
70	669.857	1.6	loss-reward	ChoiceDisplay	1	0.914	1	1
70	670.794	0.686	loss-reward	ChosenDisplay		0.0		
70	671.462	0.25	loss-reward	TurnDisplay				
70	671.713	0.75	loss-reward	OutcomeDisplay				
71	672.465		loss-reward	ImageDisplay1		0.0		
71	674.454	0.75	loss-reward	StartDisplay				
71	675.207		loss-reward	ImageDisplay2		0.0		
71	678.466	1.6	loss-reward	ChoiceDisplay	1	0.427	1	1
71	678.918	1.173	loss-reward	ChosenDisplay		0.0		
71	680.071	0.25	loss-reward	TurnDisplay				
71	680.322	0.75	loss-reward	OutcomeDisplay				
72	681.074		win-noreward	ImageDisplay1		0.0		
72	683.314	0.75	win-noreward	StartDisplay				
72	684.066		win-noreward	ImageDisplay2		0.0		
72	687.075	1.6	win-noreward	ChoiceDisplay	1	0.424	1	1
72	687.527	1.176	win-noreward	ChosenDisplay		0.0		
72	688.68	0.25	win-noreward	TurnDisplay				
72	688.931	0.75	win-noreward	OutcomeDisplay				
73	689.683		loss-noreward	ImageDisplay1		0.0		
73	691.923	0.75	loss-noreward	StartDisplay				
73	692.675		loss-noreward	ImageDisplay2		0.0		
73	695.684	1.6	loss-noreward	ChoiceDisplay	1	0.307	1	1
73	696.019	1.293	loss-noreward	ChosenDisplay		0.0		
73	697.289	0.25	loss-noreward	TurnDisplay				
73	697.54	0.75	loss-noreward	OutcomeDisplay				
74	698.292		win-reward	ImageDisplay1		0.0		
74	700.281	0.75	win-reward	StartDisplay				
74	701.034		win-reward	ImageDisplay2		0.0		
74	704.293	1.6	win-reward	ChoiceDisplay	1	0.677	1	1
74	704.995	0.923	win-reward	ChosenDisplay		0.0		
74	705.898	0.25	win-reward	TurnDisplay				
74	706.149	0.75	win-reward	OutcomeDisplay				
75	706.901		loss-reward	ImageDisplay1		0.0		
75	709.141	0.75	loss-reward	StartDisplay				
75	709.893		loss-reward	ImageDisplay2		0.0		
75	712.902	1.6	loss-reward	ChoiceDisplay		0.0		
75	714.49	0.0	loss-reward	ChosenDisplay		0.0		
75	714.507	0.25	loss-reward	TurnDisplay				
75	714.741	0.75	loss-reward	OutcomeDisplay				
76	715.493		control-noreward	ImageDisplay1		0.0		
76	717.75	0.75	control-noreward	StartDisplay				
76	718.502		control-noreward	ImageDisplay2		0.0		
76	721.494	1.6	control-noreward	ChoiceDisplay		0.0		
76	723.099	0.0	control-noreward	ChosenDisplay		0.0		
76	723.116	0.25	control-noreward	TurnDisplay				
76	723.35	0.75	control-noreward	OutcomeDisplay				
77	724.102		loss-noreward	ImageDisplay1		0.0		
77	726.342	0.75	loss-noreward	StartDisplay				
77	727.094		loss-noreward	ImageDisplay2		0.0		
77	730.103	1.6	loss-noreward	ChoiceDisplay		0.0		
77	731.691	0.0	loss-noreward	ChosenDisplay		0.0		
77	731.708	0.25	loss-noreward	TurnDisplay				
77	731.942	0.75	loss-noreward	OutcomeDisplay				
78	732.694		loss-noreward	ImageDisplay1		0.0		
78	734.951	0.75	loss-noreward	StartDisplay				
78	735.703		loss-noreward	ImageDisplay2		0.0		
78	738.696	1.6	loss-noreward	ChoiceDisplay		0.0		
78	740.3	0.0	loss-noreward	ChosenDisplay		0.0		
78	740.317	0.25	loss-noreward	TurnDisplay				
78	740.551	0.75	loss-noreward	OutcomeDisplay				
79	741.303		win-reward	ImageDisplay1		0.0		
79	743.543	0.75	win-reward	StartDisplay				
79	744.296		win-reward	ImageDisplay2		0.0		
79	747.305	1.6	win-reward	ChoiceDisplay	1	0.304	1	1
79	747.622	1.296	win-reward	ChosenDisplay		0.0		
79	748.909	0.25	win-reward	TurnDisplay				
79	749.16	0.75	win-reward	OutcomeDisplay				
80	749.912		win-reward	ImageDisplay1		0.0		
80	751.902	0.75	win-reward	StartDisplay				
80	752.654		win-reward	ImageDisplay2		0.0		
80	755.914	1.6	win-reward	ChoiceDisplay	1	0.922	1	1
80	756.85	0.678	win-reward	ChosenDisplay		0.0		
80	757.518	0.25	win-reward	TurnDisplay				
80	757.769	0.75	win-reward	OutcomeDisplay				
81	758.521		loss-reward	ImageDisplay1		0.0		
81	760.761	0.75	loss-reward	StartDisplay				
81	761.514		loss-reward	ImageDisplay2		0.0		
81	764.523	1.6	loss-reward	ChoiceDisplay	1	0.362	1	1
81	764.907	1.238	loss-reward	ChosenDisplay		0.0		
81	766.127	0.25	loss-reward	TurnDisplay				
81	766.378	0.75	loss-reward	OutcomeDisplay				
82	767.13		win-reward	ImageDisplay1		0.0		
82	769.387	0.75	win-reward	StartDisplay				
82	770.123		win-reward	ImageDisplay2		0.0		
82	773.132	1.6	win-reward	ChoiceDisplay		0.0		
82	774.736	0.0	win-reward	ChosenDisplay		0.0		
82	774.753	0.25	win-reward	TurnDisplay				
82	774.97	0.75	win-reward	OutcomeDisplay				
83	775.723		control-reward	ImageDisplay1		0.0		
83	777.729	0.75	control-reward	StartDisplay				
83	778.481		control-reward	ImageDisplay2		0.0		
83	781.724	1.6	control-reward	ChoiceDisplay		0.0		
83	783.329	0.0	control-reward	ChosenDisplay		0.0		
83	783.345	0.25	control-reward	TurnDisplay				
83	783.579	0.75	control-reward	OutcomeDisplay				
84	784.332		loss-reward	ImageDisplay1		0.0		
84	786.572	0.75	loss-reward	StartDisplay				
84	787.324		loss-reward	ImageDisplay2		0.0		
84	790.333	1.6	loss-reward	ChoiceDisplay		0.0		
84	791.921	0.0	loss-reward	ChosenDisplay		0.0		
84	791.938	0.25	loss-reward	TurnDisplay				
84	792.172	0.75	loss-reward	OutcomeDisplay				
85	792.924		loss-reward	ImageDisplay1		0.0		
85	795.181	0.75	loss-reward	StartDisplay				
85	795.933		loss-reward	ImageDisplay2		0.0		
85	798.925	1.6	loss-reward	ChoiceDisplay	1	0.739	1	1
85	799.694	0.861	loss-reward	ChosenDisplay		0.0		
85	800.53	0.25	loss-reward	TurnDisplay				
85	800.781	0.75	loss-reward	OutcomeDisplay				
86	801.533		control-noreward	ImageDisplay1		0.0		
86	803.522	0.75	control-noreward	StartDisplay				
86	804.274		control-noreward	ImageDisplay2		0.0		
86	807.534	1.6	control-noreward	ChoiceDisplay	1	0.597	1	1
86	808.152	1.003	control-noreward	ChosenDisplay		0.0		
86	809.139	0.25	control-noreward	TurnDisplay				
86	809.39	0.75	control-noreward	OutcomeDisplay				
87	810.142		loss-noreward	ImageDisplay1		0.0		
87	812.131	0.75	loss-noreward	StartDisplay				
87	812.883		loss-noreward	ImageDisplay2		0.0		
87	816.143	1.6	loss-noreward	ChoiceDisplay	1	0.592	1	1
87	816.761	1.008	loss-noreward	ChosenDisplay		0.0		
87	817.748	0.25	loss-noreward	TurnDisplay				
87	817.999	0.75	loss-noreward	OutcomeDisplay				
88	818.751		win-reward	ImageDisplay1		0.0		
88	820.991	0.75	win-reward	StartDisplay				
88	821.743		win-reward	ImageDisplay2		0.0		
88	824.752	1.6	win-reward	ChoiceDisplay	1	0.589	1	1
88	825.354	1.011	win-reward	ChosenDisplay		0.0		
88	826.357	0.25	win-reward	TurnDisplay				
88	826.607	0.75	win-reward	OutcomeDisplay				
89	827.36		loss-reward	ImageDisplay1		0.0		
89	829.349	0.75	loss-reward	StartDisplay				
89	830.101		loss-reward	ImageDisplay2		0.0		
89	833.361	1.6	loss-reward	ChoiceDisplay	1	0.461	1	1
89	833.846	1.139	loss-reward	ChosenDisplay		0.0		
89	834.966	0.25	loss-reward	TurnDisplay				
89	835.216	0.75	loss-reward	OutcomeDisplay				
90	835.969		loss-reward	ImageDisplay1		0.0		
90	838.209	0.75	loss-reward	StartDisplay				
90	838.961		loss-reward	ImageDisplay2		0.0		
90	841.97	1.6	loss-reward	ChoiceDisplay	1	0.648	1	1
90	842.639	0.952	loss-reward	ChosenDisplay		0.0		
90	843.575	0.25	loss-reward	TurnDisplay				
90	843.825	0.75	loss-reward	OutcomeDisplay				
91	844.578		win-noreward	ImageDisplay1		0.0		
91	846.567	0.75	win-noreward	StartDisplay				
91	847.319		win-noreward	ImageDisplay2		0.0		
91	850.579	1.6	win-noreward	ChoiceDisplay		0.0		
91	852.167	0.0	win-noreward	ChosenDisplay		0.0		
91	852.188	0.25	win-noreward	TurnDisplay				
91	852.418	0.75	win-noreward	OutcomeDisplay				
92	853.17		win-noreward	ImageDisplay1		0.0		
92	855.176	0.75	win-noreward	StartDisplay				
92	855.928		win-noreward	ImageDisplay2		0.0		
92	859.171	1.6	win-noreward	ChoiceDisplay		0.0		
92	860.776	0.0	win-noreward	ChosenDisplay		0.0		
92	860.793	0.25	win-noreward	TurnDisplay				
92	861.027	0.75	win-noreward	OutcomeDisplay				
93	861.779		loss-noreward	ImageDisplay1		0.0		
93	863.768	0.75	loss-noreward	StartDisplay				
93	864.52		loss-noreward	ImageDisplay2		0.0		
93	867.78	1.6	loss-noreward	ChoiceDisplay		0.0		
93	869.368	0.0	loss-noreward	ChosenDisplay		0.0		
93	869.385	0.25	loss-noreward	TurnDisplay				
93	869.619	0.75	loss-noreward	OutcomeDisplay				
94	870.371		loss-reward	ImageDisplay1		0.0		
94	872.377	0.75	loss-reward	StartDisplay				
94	873.129		loss-reward	ImageDisplay2		0.0		
94	876.372	1.6	loss-reward	ChoiceDisplay	1	1.01	1	1
94	877.409	0.59	loss-reward	ChosenDisplay		0.0		
94	877.977	0.25	loss-reward	TurnDisplay				
94	878.228	0.75	loss-reward	OutcomeDisplay				
95	878.98		control-reward	ImageDisplay1		0.0		
95	881.22	0.75	control-reward	StartDisplay				
95	881.972		control-reward	ImageDisplay2		0.0		
95	884.981	1.6	control-reward	ChoiceDisplay		0.0		
95	886.569	0.0	control-reward	ChosenDisplay		0.0		
95	886.586	0.25	control-reward	TurnDisplay				
95	886.82	0.75	control-reward	OutcomeDisplay				
