onset	duration	trial_type	response_time	stim_file	accuracy
447.387	1.0	go	0.731	Go_O	0.0
449.961	1.0	go	0.368	Go_X	0.0
452.486	1.0	go	0.396	Go_X	0.0
455.01	1.0	go	0.497	Go_O	0.0
457.534	1.0	go	0.482	Go_O	0.0
460.058	1.0	go	0.253	Go_X	0.0
462.582	0.25	stopfail	0.321	Go_O	0.0
465.106	1.0	go	0.309	Go_X	0.0
467.631	0.2	stopsuccess	0.0	Go_X	1.0
470.171	1.0	go	0.53	Go_O	0.0
472.696	1.0	go	0.455	Go_O	0.0
475.22	1.0	go	0.455	Go_X	0.0
477.744	0.25	stopsuccess	0.0	Go_O	1.0
480.268	1.0	go	0.44	Go_O	0.0
482.792	1.0	go	0.318	Go_X	0.0
485.317	0.3	stopfail	0.36	Go_X	0.0
487.858	0.25	stopsuccess	0.0	Go_O	1.0
490.398	1.0	go	0.482	Go_X	0.0
492.939	1.0	go	0.334	Go_O	0.0
495.464	0.3	stopfail	0.407	Go_X	0.0
497.988	1.0	go	0.708	Go_X	0.0
500.512	1.0	go	0.255	Go_O	0.0
503.036	0.25	stopsuccess	0.0	Go_O	1.0
505.577	1.0	go	0.552	Go_O	0.0
508.101	1.0	go	0.576	Go_X	0.0
510.625	0.3	stopsuccess	0.0	Go_X	1.0
513.166	1.0	go	0.364	Go_O	0.0
515.69	1.0	go	0.321	Go_X	0.0
518.215	0.35	stopfail	0.423	Go_O	0.0
520.739	1.0	go	0.655	Go_X	0.0
523.28	1.0	go	0.557	Go_O	0.0
525.821	1.0	go	0.32	Go_O	0.0
528.361	1.0	go	0.252	Go_X	0.0
530.886	1.0	go	0.316	Go_O	0.0
533.427	0.3	stopsuccess	0.0	Go_X	1.0
535.967	1.0	go	0.568	Go_X	0.0
538.492	1.0	go	0.795	Go_O	0.0
541.033	1.0	go	0.521	Go_X	1.0
543.557	1.0	go	0.565	Go_X	1.0
546.081	1.0	go	0.752	Go_O	0.0
548.605	0.35	stopfail	0.416	Go_O	0.0
551.146	1.0	go	0.375	Go_O	0.0
553.687	1.0	go	0.0	Go_X	0.0
556.211	1.0	go	0.534	Go_X	0.0
558.752	1.0	go	0.0	Go_O	0.0
561.276	1.0	go	0.516	Go_X	0.0
563.8	1.0	go	0.486	Go_O	0.0
566.341	0.3	stopsuccess	0.0	Go_X	1.0
568.882	1.0	go	0.407	Go_X	0.0
571.406	1.0	go	0.552	Go_O	0.0
573.947	0.35	stopsuccess	0.0	Go_O	1.0
576.488	1.0	go	0.702	Go_X	1.0
579.012	0.4	stopfail	0.538	Go_X	0.0
581.536	0.35	stopfail	0.311	Go_O	0.0
584.077	1.0	go	0.545	Go_O	0.0
586.618	1.0	go	0.368	Go_X	0.0
589.142	1.0	go	0.396	Go_O	0.0
591.667	1.0	go	0.485	Go_O	0.0
594.191	0.3	stopfail	0.407	Go_X	0.0
596.732	1.0	go	0.598	Go_X	0.0
599.256	0.25	stopsuccess	0.0	Go_O	1.0
601.797	1.0	go	0.929	Go_O	0.0
604.321	1.0	go	0.0	Go_X	0.0
606.845	1.0	go	0.314	Go_O	0.0
609.369	1.0	go	0.442	Go_X	0.0
611.91	1.0	go	0.212	Go_O	0.0
614.434	1.0	go	0.201	Go_X	0.0
616.959	1.0	go	0.232	Go_O	0.0
619.483	1.0	go	0.245	Go_X	0.0
622.024	1.0	go	0.274	Go_O	0.0
624.548	0.3	stopfail	0.22	Go_X	0.0
627.089	1.0	go	0.227	Go_X	1.0
629.63	1.0	go	0.223	Go_O	0.0
632.154	1.0	go	0.238	Go_X	0.0
634.678	0.25	stopfail	0.168	Go_O	0.0
637.202	1.0	go	0.218	Go_O	1.0
639.726	1.0	go	0.562	Go_X	0.0
642.251	1.0	go	0.378	Go_O	0.0
644.775	1.0	go	0.188	Go_X	0.0
647.316	1.0	go	0.161	Go_X	1.0
649.84	1.0	go	0.227	Go_O	0.0
652.381	0.2	stopfail	0.219	Go_X	0.0
654.922	1.0	go	0.426	Go_O	0.0
657.463	1.0	go	0.531	Go_X	0.0
659.987	0.15	stopsuccess	0.0	Go_O	1.0
662.511	1.0	go	0.222	Go_O	0.0
665.052	1.0	go	0.528	Go_X	0.0
667.576	0.2	stopsuccess	0.0	Go_X	1.0
670.1	1.0	go	0.0	Go_X	0.0
672.644	0.25	stopsuccess	0.0	Go_O	1.0
675.182	1.0	go	0.0	Go_O	0.0
677.706	1.0	go	0.878	Go_O	0.0
680.247	1.0	go	0.0	Go_X	0.0
682.771	1.0	go	0.0	Go_X	0.0
685.295	1.0	go	0.0	Go_O	0.0
687.82	0.3	stopsuccess	0.0	Go_X	1.0
690.36	0.35	stopsuccess	0.0	Go_O	1.0
692.885	1.0	go	0.0	Go_X	0.0
695.409	1.0	go	0.0	Go_O	0.0
697.933	0.4	stopsuccess	0.0	Go_X	1.0
700.474	1.0	go	0.0	Go_O	0.0
702.998	1.0	go	0.0	Go_X	0.0
705.522	1.0	go	0.0	Go_X	0.0
708.047	1.0	go	0.0	Go_O	0.0
710.571	1.0	go	0.0	Go_O	0.0
713.095	1.0	go	0.0	Go_X	0.0
715.637	0.45	stopsuccess	0.0	Go_O	1.0
718.177	1.0	go	0.505	Go_X	0.0
720.701	1.0	go	0.0	Go_O	0.0
723.225	1.0	go	0.0	Go_X	0.0
725.749	1.0	go	0.0	Go_O	0.0
728.273	1.0	go	0.873	Go_O	0.0
730.798	0.5	stopfail	0.709	Go_X	0.0
733.338	1.0	go	0.48	Go_X	0.0
735.863	1.0	go	0.594	Go_X	0.0
738.387	1.0	go	0.499	Go_O	0.0
740.928	1.0	go	0.452	Go_X	0.0
743.452	0.45	stopfail	0.387	Go_O	0.0
745.993	1.0	go	0.642	Go_O	0.0
748.517	1.0	go	0.325	Go_O	0.0
751.041	0.4	stopfail	0.329	Go_X	0.0
753.565	1.0	go	0.0	Go_X	0.0
756.09	0.35	stopsuccess	0.0	Go_O	1.0
758.63	1.0	go	0.0	Go_X	0.0
761.155	1.0	go	0.0	Go_O	0.0
763.695	1.0	go	0.0	Go_X	0.0
766.22	1.0	go	0.0	Go_O	0.0
768.744	1.0	go	0.0	Go_X	0.0
771.268	1.0	go	0.0	Go_O	0.0
773.792	1.0	go	0.0	Go_X	0.0
776.316	0.4	stopsuccess	0.0	Go_X	1.0
778.857	1.0	go	0.0	Go_O	0.0
781.382	1.0	go	0.0	Go_X	0.0
783.906	1.0	go	0.0	Go_O	0.0
786.43	0.45	stopsuccess	0.0	Go_O	1.0
788.971	1.0	go	0.0	Go_O	0.0
791.495	1.0	go	0.0	Go_X	0.0
794.036	1.0	go	0.0	Go_O	0.0
796.56	1.0	go	0.0	Go_X	0.0
799.101	0.5	stopsuccess	0.0	Go_X	1.0
801.642	1.0	go	0.0	Go_O	0.0
804.183	1.0	go	0.0	Go_X	0.0
806.707	0.55	stopsuccess	0.0	Go_O	1.0
809.248	1.0	go	0.0	Go_X	0.0
811.772	1.0	go	0.0	Go_O	0.0
814.296	0.6	stopsuccess	0.0	Go_X	1.0
816.837	1.0	go	0.0	Go_X	0.0
819.361	1.0	go	0.0	Go_O	0.0
821.885	0.65	stopsuccess	0.0	Go_O	1.0
824.443	1.0	go	0.0	Go_O	0.0
826.967	1.0	go	0.0	Go_X	0.0
829.491	1.0	go	0.0	Go_X	0.0
832.016	1.0	go	0.0	Go_O	0.0
834.54	1.0	go	0.0	Go_X	0.0
837.081	1.0	go	0.0	Go_O	0.0
839.605	0.7	stopsuccess	0.0	Go_X	1.0
842.146	1.0	go	0.0	Go_X	0.0
844.67	0.75	stopfail	0.973	Go_O	0.0
847.211	1.0	go	0.0	Go_O	0.0
849.735	1.0	go	0.0	Go_O	0.0
852.259	1.0	go	0.0	Go_X	0.0
854.783	1.0	go	0.658	Go_O	0.0
857.308	1.0	go	0.729	Go_X	0.0
859.848	0.7	stopfail	0.512	Go_X	0.0
862.389	1.0	go	0.391	Go_O	0.0
864.93	1.0	go	0.542	Go_X	0.0
867.454	1.0	go	0.494	Go_O	0.0
869.995	0.65	stopfail	0.521	Go_O	0.0
872.536	0.6	stopfail	0.688	Go_X	0.0
875.06	0.55	stopsuccess	0.0	Go_O	1.0
877.601	1.0	go	0.788	Go_X	0.0
880.126	0.6	stopfail	0.759	Go_X	0.0
882.65	1.0	go	0.923	Go_O	0.0
885.191	1.0	go	0.557	Go_X	0.0
887.715	1.0	go	0.512	Go_O	0.0
890.239	1.0	go	0.328	Go_X	0.0
892.763	1.0	go	0.0	Go_O	0.0
895.287	1.0	go	0.0	Go_X	0.0
897.811	1.0	go	0.0	Go_O	0.0
900.336	1.0	go	0.0	Go_X	0.0
902.86	0.55	stopsuccess	0.0	Go_O	1.0
905.401	1.0	go	0.0	Go_X	0.0
907.925	1.0	go	0.0	Go_O	0.0
910.466	0.6	stopsuccess	0.0	Go_X	1.0
912.99	1.0	go	0.0	Go_X	0.0
915.531	1.0	go	0.0	Go_O	0.0
918.055	1.0	go	0.803	Go_X	0.0
920.579	1.0	go	0.0	Go_O	0.0
923.106	1.0	go	0.0	Go_O	0.0
925.628	0.65	stopsuccess	0.0	Go_O	1.0
928.169	1.0	go	0.0	Go_X	0.0
930.693	1.0	go	0.0	Go_O	0.0
933.217	1.0	go	0.0	Go_X	0.0
935.741	0.7	stopsuccess	0.0	Go_X	1.0
938.265	1.0	go	0.0	Go_O	0.0
940.789	0.75	stopsuccess	0.0	Go_O	1.0
943.314	1.0	go	0.0	Go_X	0.0
945.838	1.0	go	0.0	Go_O	0.0
948.362	1.0	go	0.0	Go_X	0.0
950.886	1.0	go	0.0	Go_X	0.0
953.427	1.0	go	0.0	Go_O	0.0
955.968	1.0	go	0.0	Go_X	0.0
958.492	1.0	go	0.0	Go_O	0.0
961.016	0.8	stopsuccess	0.0	Go_X	1.0
963.541	1.0	go	0.766	Go_O	1.0
966.081	1.0	go	0.0	Go_X	0.0
968.606	1.0	go	0.0	Go_X	0.0
971.13	1.0	go	0.0	Go_O	0.0
973.671	0.85	stopsuccess	0.0	Go_O	1.0
976.195	1.0	go	0.0	Go_O	0.0
978.736	0.9	stopsuccess	0.0	Go_X	1.0
981.277	1.0	go	0.0	Go_X	0.0
983.801	1.0	go	0.0	Go_X	0.0
986.325	0.95	stopsuccess	0.0	Go_O	1.0
988.866	1.0	go	0.0	Go_O	0.0
991.407	1.0	go	0.0	Go_O	0.0
993.931	1.0	go	0.0	Go_X	0.0
996.455	1.0	go	0.0	Go_X	0.0
998.98	1.0	go	0.0	Go_O	0.0
1001.504	1.0	go	0.0	Go_O	0.0
1004.028	1.0	go	0.0	Go_X	0.0
1006.552	1.0	go	0.378	Go_O	0.0
1009.093	1.0	go	0.34	Go_X	0.0
1011.617	1.0	go	0.464	Go_O	1.0
1014.158	1.0	stopfail	0.319	Go_X	0.0
1016.716	1.0	go	0.0	Go_X	0.0
1019.24	1.0	go	0.0	Go_X	0.0
1021.781	0.95	stopsuccess	0.0	Go_O	1.0
1024.322	1.0	go	0.0	Go_O	0.0
1026.846	1.0	stopsuccess	0.0	Go_X	1.0
1029.403	1.0	go	0.0	Go_O	0.0
1031.928	1.0	go	0.0	Go_X	0.0
1034.452	1.05	stopsuccess	0.0	Go_O	1.0
1037.059	1.0	go	0.0	Go_X	0.0
1039.584	1.1	stopsuccess	0.0	Go_X	1.0
1042.242	1.0	go	0.0	Go_O	0.0
1044.782	1.0	go	0.0	Go_O	0.0
1047.307	1.0	go	0.0	Go_X	0.0
1049.831	1.15	stopsuccess	0.0	Go_O	1.0
1052.539	1.0	go	0.0	Go_O	0.0
1055.08	1.0	go	0.0	Go_X	0.0
1057.604	1.0	go	0.0	Go_O	0.0
1060.128	1.0	go	0.0	Go_X	0.0
1062.652	1.2	stopsuccess	0.0	Go_X	1.0
1065.411	1.0	go	0.0	Go_X	0.0
1067.935	1.0	go	0.656	Go_O	0.0
1070.476	1.25	stopfail	0.446	Go_O	0.0
1073.284	1.0	go	0.521	Go_O	0.0
1075.808	1.0	go	0.0	Go_X	0.0
1078.332	1.0	go	0.68	Go_O	0.0
1080.857	1.0	go	0.0	Go_X	0.0
1083.381	1.2	stopfail	0.426	Go_X	0.0
1086.122	1.0	go	0.0	Go_O	0.0
1088.646	1.15	stopfail	0.388	Go_O	0.0
1091.354	1.0	go	0.626	Go_X	0.0
1093.879	1.0	go	0.21	Go_O	0.0
1096.403	1.1	stopfail	0.23	Go_X	0.0
1099.061	1.0	go	0.596	Go_X	0.0
1101.585	1.0	go	0.256	Go_X	1.0
1104.109	1.0	go	0.3	Go_O	0.0
1106.633	1.0	go	0.353	Go_X	0.0
1109.157	1.05	stopfail	0.268	Go_O	0.0
1111.749	1.0	go	0.515	Go_O	0.0
1114.273	1.0	stopfail	0.35	Go_X	0.0
1116.814	1.0	go	0.0	Go_O	0.0
1119.338	1.0	go	0.0	Go_X	0.0
1121.879	1.0	go	0.0	Go_X	0.0
1124.403	1.0	go	0.0	Go_O	0.0
1126.927	1.0	go	0.0	Go_X	0.0
1129.451	1.0	go	0.0	Go_O	0.0
1131.975	0.95	stopsuccess	0.0	Go_O	1.0
1134.5	1.0	go	0.0	Go_X	0.0
1137.024	1.0	go	0.0	Go_O	0.0
1139.565	1.0	stopsuccess	0.0	Go_X	1.0
1142.106	1.0	go	0.0	Go_O	0.0
1144.63	1.0	go	0.0	Go_X	0.0
1147.154	1.05	stopsuccess	0.0	Go_O	1.0
1149.762	1.0	go	0.0	Go_X	0.0
1152.286	1.0	go	0.0	Go_O	0.0
1154.81	1.0	go	0.0	Go_O	0.0
1157.334	1.0	go	0.0	Go_X	0.0
1159.858	1.1	stopsuccess	0.0	Go_X	1.0
1162.516	1.0	go	0.0	Go_O	0.0
1165.04	1.15	stopsuccess	0.0	Go_O	1.0
1167.749	1.0	go	0.0	Go_X	0.0
1170.273	1.0	go	0.0	Go_O	0.0
1172.814	1.0	go	0.0	Go_X	0.0
1175.338	1.0	go	0.474	Go_O	0.0
1177.862	1.0	go	0.348	Go_X	0.0
1180.386	1.2	stopfail	0.499	Go_X	0.0
1183.128	1.0	go	0.266	Go_O	0.0
1185.652	1.0	go	0.389	Go_X	0.0
1188.176	1.15	stopfail	0.346	Go_O	0.0
1190.867	1.1	stopsuccess	0.0	Go_X	1.0
1193.509	1.0	go	0.554	Go_O	0.0
1196.033	1.0	go	0.303	Go_X	0.0
1198.557	1.0	go	0.0	Go_X	0.0
1201.081	1.0	go	0.0	Go_O	0.0
1203.622	1.15	stopsuccess	0.0	Go_O	1.0
1206.313	1.0	go	0.0	Go_O	0.0
