onset	duration	trial_type	response_time	stim_file	accuracy
520.074	1.0	go	0.52	Go_O	0.0
522.665	1.0	go	0.342	Go_X	1.0
525.189	1.0	go	0.302	Go_O	1.0
527.713	1.0	go	0.247	Go_X	1.0
530.238	1.0	go	0.302	Go_O	1.0
532.762	1.0	go	0.385	Go_X	1.0
535.286	0.25	stopfail	0.329	Go_O	0.0
537.81	1.0	go	0.327	Go_X	1.0
540.334	0.2	stopfail	0.305	Go_X	0.0
542.858	1.0	go	0.503	Go_O	1.0
545.383	1.0	go	0.397	Go_O	1.0
547.907	1.0	go	0.383	Go_X	1.0
550.431	0.15	stopfail	0.272	Go_O	0.0
552.955	1.0	go	0.32	Go_O	1.0
555.479	1.0	go	0.188	Go_X	1.0
558.004	0.1	stopsuccess	0.0	Go_X	1.0
560.528	0.15	stopfail	0.268	Go_O	0.0
563.052	1.0	go	0.407	Go_X	1.0
565.576	1.0	go	0.274	Go_O	1.0
568.1	0.1	stopfail	0.343	Go_X	0.0
570.625	1.0	go	0.498	Go_X	1.0
573.149	1.0	go	0.401	Go_O	1.0
575.673	0.05	stopsuccess	0.0	Go_O	1.0
578.197	1.0	go	0.382	Go_X	0.0
580.721	1.0	go	0.244	Go_O	1.0
583.246	0.1	stopfail	0.2	Go_X	0.0
585.77	1.0	go	0.321	Go_X	1.0
588.294	1.0	go	0.308	Go_O	1.0
590.818	0.05	stopsuccess	0.0	Go_O	1.0
593.342	1.0	go	0.427	Go_X	0.0
595.867	1.0	go	0.418	Go_O	1.0
598.391	1.0	go	0.392	Go_O	1.0
600.915	1.0	go	0.259	Go_X	1.0
603.439	1.0	go	0.288	Go_O	1.0
605.963	0.1	stopsuccess	0.0	Go_X	1.0
608.487	1.0	go	0.299	Go_X	0.0
611.012	1.0	go	0.272	Go_O	1.0
613.536	1.0	go	0.451	Go_X	0.0
616.077	1.0	go	0.407	Go_O	1.0
618.601	1.0	go	0.286	Go_X	1.0
621.125	0.15	stopsuccess	0.0	Go_O	1.0
623.649	1.0	go	0.344	Go_O	1.0
626.174	1.0	go	0.447	Go_X	1.0
628.698	1.0	go	0.28	Go_O	1.0
631.222	1.0	go	0.371	Go_X	1.0
633.746	1.0	go	0.387	Go_X	1.0
636.27	1.0	go	0.617	Go_O	1.0
638.794	0.2	stopfail	0.293	Go_X	0.0
641.319	1.0	go	0.448	Go_X	1.0
643.843	1.0	go	0.292	Go_O	1.0
646.367	0.15	stopsuccess	0.0	Go_O	1.0
648.891	1.0	go	0.306	Go_X	1.0
651.415	0.2	stopfail	0.372	Go_X	0.0
653.94	0.15	stopsuccess	0.0	Go_O	1.0
656.464	1.0	go	0.303	Go_O	1.0
658.988	1.0	go	0.395	Go_O	1.0
661.512	1.0	go	0.517	Go_X	1.0
664.036	1.0	go	0.382	Go_O	1.0
666.561	0.2	stopfail	0.366	Go_X	0.0
669.085	1.0	go	0.381	Go_X	1.0
671.609	0.15	stopfail	0.215	Go_O	0.0
674.133	1.0	go	0.501	Go_O	1.0
676.657	1.0	go	0.273	Go_X	1.0
679.182	1.0	go	0.353	Go_O	1.0
681.706	1.0	go	0.287	Go_X	1.0
684.23	1.0	go	0.449	Go_O	1.0
686.754	1.0	go	0.255	Go_X	1.0
689.278	1.0	go	0.368	Go_X	1.0
691.803	1.0	go	0.366	Go_O	1.0
694.327	1.0	go	0.43	Go_O	1.0
696.851	0.1	stopfail	0.239	Go_X	0.0
699.375	1.0	go	0.452	Go_X	1.0
701.899	1.0	go	0.414	Go_X	1.0
704.423	1.0	go	0.292	Go_O	1.0
706.948	0.05	stopsuccess	0.0	Go_O	1.0
709.472	1.0	go	0.391	Go_X	1.0
711.996	1.0	go	0.318	Go_O	1.0
714.52	1.0	go	0.308	Go_X	1.0
717.044	1.0	go	0.198	Go_O	1.0
719.569	1.0	go	0.257	Go_X	1.0
722.093	1.0	go	0.451	Go_O	1.0
724.617	0.1	stopsuccess	0.0	Go_X	1.0
727.141	1.0	go	0.348	Go_X	1.0
729.665	1.0	go	0.271	Go_O	1.0
732.19	0.15	stopfail	0.307	Go_O	0.0
734.714	1.0	go	0.384	Go_O	1.0
737.238	1.0	go	0.331	Go_X	0.0
739.762	0.1	stopsuccess	0.0	Go_X	1.0
742.286	1.0	go	0.368	Go_O	1.0
744.811	0.15	stopfail	0.445	Go_O	0.0
747.335	1.0	go	0.313	Go_X	1.0
749.859	1.0	go	0.377	Go_X	1.0
752.383	1.0	go	0.348	Go_O	1.0
754.907	1.0	go	0.364	Go_O	1.0
757.432	1.0	go	0.353	Go_X	1.0
759.956	0.1	stopfail	0.344	Go_X	0.0
762.48	0.05	stopsuccess	0.0	Go_O	1.0
765.004	1.0	go	0.401	Go_O	1.0
767.528	1.0	go	0.292	Go_X	1.0
770.052	0.1	stopfail	0.379	Go_X	0.0
772.577	1.0	go	0.385	Go_X	1.0
775.101	1.0	go	0.349	Go_O	1.0
777.625	1.0	go	0.539	Go_X	1.0
780.149	1.0	go	0.28	Go_O	1.0
782.673	1.0	go	0.27	Go_X	1.0
785.198	1.0	go	0.273	Go_O	1.0
787.722	0.05	stopsuccess	0.0	Go_O	1.0
790.246	1.0	go	0.485	Go_O	1.0
792.77	1.0	go	0.256	Go_X	1.0
795.294	1.0	go	0.339	Go_X	1.0
797.819	1.0	go	0.258	Go_O	1.0
800.343	1.0	go	0.402	Go_O	1.0
802.867	0.1	stopsuccess	0.0	Go_X	1.0
805.391	1.0	go	0.495	Go_X	1.0
807.915	1.0	go	0.312	Go_O	1.0
810.44	1.0	go	0.231	Go_X	1.0
812.964	1.0	go	0.415	Go_O	1.0
815.488	0.15	stopsuccess	0.0	Go_O	1.0
818.012	1.0	go	0.371	Go_X	1.0
820.536	1.0	go	0.398	Go_O	1.0
823.061	0.2	stopfail	0.266	Go_X	0.0
825.585	1.0	go	0.481	Go_X	1.0
828.109	0.15	stopfail	0.288	Go_O	0.0
830.633	1.0	go	0.358	Go_O	1.0
833.157	1.0	go	0.351	Go_X	1.0
835.681	1.0	go	0.437	Go_X	1.0
838.206	1.0	go	0.375	Go_O	1.0
840.73	1.0	go	0.375	Go_O	1.0
843.254	1.0	go	0.466	Go_X	1.0
845.778	1.0	go	0.403	Go_X	1.0
848.302	0.1	stopsuccess	0.0	Go_X	1.0
850.827	1.0	go	0.271	Go_O	1.0
853.351	1.0	go	0.256	Go_O	1.0
855.875	1.0	go	0.363	Go_X	1.0
858.399	0.15	stopfail	0.302	Go_O	0.0
860.923	1.0	go	0.346	Go_X	1.0
863.448	1.0	go	0.325	Go_O	1.0
865.972	1.0	go	0.322	Go_X	1.0
868.496	1.0	go	0.353	Go_O	1.0
871.02	0.1	stopsuccess	0.0	Go_X	1.0
873.544	1.0	go	0.28	Go_O	1.0
876.069	1.0	go	0.472	Go_X	1.0
878.593	0.15	stopsuccess	0.0	Go_O	1.0
881.117	1.0	go	0.401	Go_O	1.0
883.641	1.0	go	0.187	Go_X	1.0
886.165	0.2	stopfail	0.279	Go_X	0.0
888.69	1.0	go	0.446	Go_X	1.0
891.214	1.0	go	0.351	Go_O	1.0
893.738	0.15	stopfail	0.432	Go_O	0.0
896.262	1.0	go	0.676	Go_X	1.0
898.786	1.0	go	0.321	Go_O	1.0
901.31	1.0	go	0.348	Go_O	1.0
903.835	1.0	go	0.38	Go_X	1.0
906.359	1.0	go	0.407	Go_O	1.0
908.883	1.0	go	0.38	Go_X	1.0
911.407	0.1	stopfail	0.407	Go_X	0.0
913.931	1.0	go	0.367	Go_O	1.0
916.456	0.05	stopsuccess	0.0	Go_O	1.0
918.98	1.0	go	0.296	Go_X	1.0
921.504	1.0	go	0.375	Go_X	1.0
924.028	1.0	go	0.272	Go_O	1.0
926.552	1.0	go	0.352	Go_X	1.0
929.077	1.0	go	0.362	Go_O	1.0
931.601	0.1	stopfail	0.261	Go_X	0.0
934.125	1.0	go	0.337	Go_O	1.0
936.649	1.0	go	0.196	Go_X	1.0
939.173	1.0	go	0.259	Go_O	1.0
941.698	0.05	stopsuccess	0.0	Go_O	1.0
944.222	0.1	stopfail	0.39	Go_X	0.0
946.746	0.05	stopsuccess	0.0	Go_O	1.0
949.27	1.0	go	0.428	Go_X	1.0
951.794	0.1	stopsuccess	0.0	Go_X	1.0
954.319	1.0	go	0.263	Go_O	1.0
956.859	1.0	go	0.391	Go_X	1.0
959.384	1.0	go	0.278	Go_X	1.0
961.908	1.0	go	0.452	Go_O	1.0
964.432	1.0	go	0.497	Go_X	1.0
966.956	1.0	go	0.218	Go_O	1.0
969.48	1.0	go	0.189	Go_X	1.0
972.005	1.0	go	0.22	Go_O	1.0
974.529	0.15	stopfail	0.4	Go_O	0.0
977.053	1.0	go	0.277	Go_X	1.0
979.577	1.0	go	0.256	Go_O	1.0
982.101	0.1	stopfail	0.225	Go_X	0.0
984.626	1.0	go	0.576	Go_X	1.0
987.15	1.0	go	0.392	Go_O	1.0
989.674	1.0	go	0.215	Go_X	1.0
992.198	1.0	go	0.21	Go_O	1.0
994.722	1.0	go	0.396	Go_O	1.0
997.247	0.05	stopsuccess	0.0	Go_O	1.0
999.771	1.0	go	0.418	Go_X	1.0
1002.295	1.0	go	0.384	Go_X	1.0
1004.819	1.0	go	0.274	Go_O	1.0
1007.343	0.1	stopsuccess	0.0	Go_X	1.0
1009.867	1.0	go	0.494	Go_O	1.0
1012.392	0.15	stopfail	0.305	Go_O	0.0
1014.916	1.0	go	0.24	Go_X	1.0
1017.44	1.0	go	0.367	Go_O	1.0
1019.964	1.0	go	0.519	Go_X	1.0
1022.488	1.0	go	0.273	Go_O	1.0
1025.013	1.0	go	0.318	Go_X	1.0
1027.537	1.0	go	0.206	Go_X	0.0
1030.061	1.0	go	0.246	Go_O	1.0
1032.585	0.1	stopfail	0.243	Go_X	0.0
1035.109	1.0	go	0.453	Go_O	1.0
1037.634	1.0	go	0.262	Go_X	1.0
1040.158	1.0	go	0.348	Go_X	1.0
1042.682	1.0	go	0.532	Go_O	1.0
1045.206	0.05	stopsuccess	0.0	Go_O	1.0
1047.73	1.0	go	0.459	Go_O	1.0
1050.255	0.1	stopfail	0.415	Go_X	0.0
1052.779	1.0	go	0.479	Go_X	0.0
1055.303	1.0	go	0.59	Go_X	1.0
1057.827	0.05	stopsuccess	0.0	Go_O	1.0
1060.351	1.0	go	0.543	Go_O	1.0
1062.876	1.0	go	0.373	Go_O	1.0
1065.4	1.0	go	0.468	Go_X	1.0
1067.924	1.0	go	0.388	Go_X	0.0
1070.448	1.0	go	0.453	Go_O	1.0
1072.972	1.0	go	0.34	Go_X	1.0
1075.496	1.0	go	0.489	Go_O	1.0
1078.021	1.0	go	0.363	Go_X	1.0
1080.545	1.0	go	0.407	Go_O	1.0
1083.069	1.0	go	0.35	Go_O	1.0
1085.593	0.1	stopsuccess	0.0	Go_X	1.0
1088.117	1.0	go	0.342	Go_X	1.0
1090.642	1.0	go	0.231	Go_O	0.0
1093.166	0.15	stopfail	0.449	Go_O	0.0
1095.69	1.0	go	0.447	Go_X	1.0
1098.214	0.1	stopsuccess	0.0	Go_X	1.0
1100.738	1.0	go	0.491	Go_X	1.0
1103.263	1.0	go	0.285	Go_O	1.0
1105.787	0.15	stopsuccess	0.0	Go_O	1.0
1108.311	1.0	go	0.502	Go_X	1.0
1110.835	0.2	stopfail	0.485	Go_X	0.0
1113.359	1.0	go	0.477	Go_O	1.0
1115.884	1.0	go	0.278	Go_O	1.0
1118.408	1.0	go	0.37	Go_X	1.0
1120.932	0.15	stopfail	0.323	Go_O	0.0
1123.456	1.0	go	0.772	Go_X	1.0
1125.98	1.0	go	0.296	Go_O	1.0
1128.505	1.0	go	0.299	Go_O	1.0
1131.029	1.0	go	0.374	Go_X	1.0
1133.553	0.1	stopsuccess	0.0	Go_X	1.0
1136.077	1.0	go	0.383	Go_O	1.0
1138.601	1.0	go	0.425	Go_X	1.0
1141.125	0.15	stopfail	0.421	Go_O	0.0
1143.65	1.0	go	0.586	Go_X	1.0
1146.174	1.0	go	0.359	Go_O	1.0
1148.698	1.0	go	0.359	Go_O	1.0
1151.222	1.0	go	0.198	Go_X	1.0
1153.746	0.1	stopsuccess	0.0	Go_X	1.0
1156.271	1.0	go	0.453	Go_X	1.0
1158.795	0.15	stopfail	0.316	Go_O	0.0
1161.319	1.0	go	0.545	Go_O	1.0
1163.843	1.0	go	0.363	Go_O	1.0
1166.367	0.1	stopfail	0.32	Go_X	0.0
1168.892	1.0	go	0.472	Go_X	1.0
1171.416	1.0	go	0.371	Go_O	1.0
1173.94	1.0	go	0.241	Go_X	1.0
1176.464	1.0	go	0.19	Go_O	1.0
1178.988	0.05	stopsuccess	0.0	Go_O	1.0
1181.513	1.0	go	0.201	Go_X	1.0
1184.037	0.1	stopfail	0.219	Go_X	0.0
1186.561	1.0	go	0.376	Go_O	1.0
1189.085	1.0	go	0.377	Go_X	1.0
1191.609	1.0	go	0.557	Go_X	1.0
1194.134	1.0	go	0.442	Go_O	1.0
1196.658	1.0	go	0.39	Go_X	1.0
1199.182	1.0	go	0.258	Go_O	1.0
1201.706	0.05	stopsuccess	0.0	Go_O	1.0
1204.23	1.0	go	0.232	Go_X	1.0
1206.754	1.0	go	0.504	Go_O	1.0
1209.279	0.1	stopsuccess	0.0	Go_X	1.0
1211.803	1.0	go	0.455	Go_X	1.0
1214.327	1.0	go	0.329	Go_O	1.0
1216.851	0.15	stopfail	0.426	Go_O	0.0
1219.375	1.0	go	0.317	Go_O	1.0
1221.9	1.0	go	0.249	Go_X	0.0
1224.424	1.0	go	0.612	Go_X	1.0
1226.948	1.0	go	0.422	Go_O	1.0
1229.472	0.1	stopfail	0.285	Go_X	0.0
1231.996	1.0	go	0.302	Go_X	1.0
1234.521	0.05	stopsuccess	0.0	Go_O	1.0
1237.045	1.0	go	0.341	Go_O	1.0
1239.569	1.0	go	0.334	Go_O	1.0
1242.093	1.0	go	0.335	Go_X	1.0
1244.617	1.0	go	0.543	Go_X	1.0
1247.142	1.0	go	0.325	Go_O	1.0
1249.666	0.1	stopfail	0.289	Go_X	0.0
1252.19	1.0	go	0.429	Go_X	1.0
1254.714	1.0	go	0.278	Go_O	1.0
1257.238	0.05	stopsuccess	0.0	Go_O	1.0
1259.763	0.1	stopfail	0.398	Go_X	0.0
1262.287	1.0	go	0.372	Go_X	1.0
1264.811	1.0	go	0.282	Go_O	1.0
1267.335	1.0	go	0.388	Go_X	1.0
1269.859	1.0	go	0.352	Go_O	1.0
1272.383	0.05	stopfail	0.379	Go_O	0.0
1274.908	1.0	go	0.349	Go_O	1.0
