onset	duration	trial_type	response_time	stim_file	accuracy
105.653	1.0	go	0.0	Go_X	0.0
108.177	1.0	go	0.611	Go_O	0.0
110.701	1.0	go	0.484	Go_X	0.0
113.226	1.0	go	0.315	Go_O	0.0
115.75	1.0	go	0.52	Go_X	1.0
118.274	1.0	go	0.591	Go_O	1.0
120.798	0.25	stopfail	0.338	Go_O	0.0
123.322	1.0	go	0.548	Go_O	0.0
125.847	0.2	stopfail	0.647	Go_X	0.0
128.371	1.0	go	0.25	Go_X	1.0
130.895	1.0	go	0.421	Go_O	1.0
133.419	1.0	go	0.83	Go_X	0.0
135.943	0.15	stopfail	0.504	Go_O	0.0
138.468	1.0	go	0.41	Go_X	0.0
140.992	1.0	go	0.574	Go_O	0.0
143.516	0.1	stopfail	0.671	Go_X	0.0
146.04	0.05	stopfail	0.698	Go_O	0.0
148.564	1.0	go	0.98	Go_X	1.0
151.089	1.0	go	0.381	Go_O	1.0
153.613	0.0	stopfail	0.908	Go_X	0.0
156.154	1.0	go	0.966	Go_O	1.0
158.678	1.0	go	0.0	Go_X	0.0
161.202	0.0	stopsuccess	0.0	Go_O	1.0
163.743	1.0	go	0.738	Go_O	0.0
166.267	1.0	go	0.0	Go_X	0.0
168.791	0.05	stopfail	0.619	Go_X	0.0
171.315	1.0	go	0.331	Go_O	0.0
173.84	1.0	go	0.321	Go_X	0.0
176.364	0.0	stopfail	0.325	Go_O	0.0
178.905	1.0	go	0.673	Go_O	1.0
181.429	1.0	go	0.782	Go_X	0.0
183.953	1.0	go	0.76	Go_O	1.0
186.477	1.0	go	0.0	Go_X	0.0
189.002	1.0	go	0.674	Go_O	0.0
191.526	0.0	stopsuccess	0.0	Go_X	1.0
194.067	1.0	go	0.488	Go_X	0.0
196.591	1.0	go	0.487	Go_O	0.0
199.115	1.0	go	0.869	Go_X	1.0
201.639	1.0	go	0.614	Go_X	1.0
204.163	1.0	go	0.506	Go_O	1.0
206.688	0.05	stopsuccess	0.0	Go_O	1.0
209.212	1.0	go	0.761	Go_O	0.0
211.736	1.0	go	0.596	Go_X	0.0
214.26	1.0	go	0.706	Go_O	1.0
216.784	1.0	go	0.381	Go_X	1.0
219.309	1.0	go	0.0	Go_X	0.0
221.833	1.0	go	0.521	Go_O	0.0
224.357	0.1	stopsuccess	0.0	Go_X	1.0
226.881	1.0	go	0.512	Go_O	1.0
229.405	1.0	go	0.324	Go_X	1.0
231.93	0.15	stopsuccess	0.0	Go_O	1.0
234.454	1.0	go	0.297	Go_O	1.0
236.978	0.2	stopsuccess	0.0	Go_X	1.0
239.502	0.25	stopsuccess	0.0	Go_O	1.0
242.026	1.0	go	0.427	Go_X	0.0
244.55	1.0	go	0.817	Go_O	0.0
247.075	1.0	go	0.0	Go_X	0.0
249.599	1.0	go	0.678	Go_X	0.0
252.123	0.3	stopfail	0.656	Go_X	0.0
254.647	1.0	go	0.878	Go_O	1.0
257.171	0.25	stopfail	0.601	Go_O	0.0
259.696	1.0	go	0.427	Go_O	1.0
262.22	1.0	go	0.545	Go_X	1.0
264.744	1.0	go	0.0	Go_O	0.0
267.268	1.0	go	0.0	Go_X	0.0
269.792	1.0	go	0.465	Go_O	0.0
272.317	1.0	go	0.543	Go_X	0.0
274.841	1.0	go	0.0	Go_O	0.0
277.365	1.0	go	0.0	Go_X	0.0
279.889	1.0	go	0.59	Go_X	1.0
282.413	0.2	stopfail	0.431	Go_X	0.0
284.938	1.0	go	0.403	Go_O	1.0
287.462	1.0	go	0.62	Go_O	0.0
289.986	1.0	go	0.913	Go_X	1.0
292.51	0.15	stopsuccess	0.0	Go_O	1.0
295.034	1.0	go	0.717	Go_X	0.0
297.559	1.0	go	0.81	Go_O	0.0
300.083	1.0	go	0.701	Go_X	0.0
302.607	1.0	go	0.742	Go_O	0.0
305.131	1.0	go	0.699	Go_O	0.0
307.655	1.0	go	0.0	Go_X	0.0
310.179	0.2	stopfail	0.65	Go_X	0.0
312.704	1.0	go	0.61	Go_O	0.0
315.228	1.0	go	0.846	Go_X	1.0
317.752	0.15	stopfail	0.519	Go_O	0.0
320.276	1.0	go	0.983	Go_O	1.0
322.8	1.0	go	0.499	Go_X	1.0
325.325	0.1	stopsuccess	0.0	Go_X	1.0
327.849	1.0	go	0.641	Go_X	0.0
330.373	0.15	stopsuccess	0.0	Go_O	1.0
332.897	1.0	go	0.8	Go_O	1.0
335.421	1.0	go	0.773	Go_X	1.0
337.946	1.0	go	0.43	Go_O	1.0
340.47	1.0	go	0.632	Go_O	1.0
342.994	1.0	go	0.802	Go_X	1.0
345.518	0.2	stopsuccess	0.0	Go_X	1.0
348.042	0.25	stopsuccess	0.0	Go_O	1.0
350.567	1.0	go	0.573	Go_O	1.0
353.091	1.0	go	0.63	Go_X	1.0
355.615	0.3	stopsuccess	0.0	Go_X	1.0
358.139	1.0	go	0.675	Go_O	1.0
360.663	1.0	go	0.691	Go_X	0.0
363.188	1.0	go	0.0	Go_O	0.0
365.712	1.0	go	0.515	Go_X	0.0
368.236	1.0	go	0.722	Go_O	1.0
370.76	1.0	go	0.351	Go_X	1.0
373.284	0.35	stopsuccess	0.0	Go_O	1.0
375.808	1.0	go	0.771	Go_X	0.0
378.333	1.0	go	0.791	Go_O	0.0
380.857	1.0	go	0.712	Go_X	0.0
383.381	1.0	go	0.421	Go_O	0.0
385.905	1.0	go	0.564	Go_O	0.0
388.429	0.4	stopfail	0.734	Go_X	0.0
390.954	1.0	go	0.965	Go_X	0.0
393.478	1.0	go	0.368	Go_O	1.0
396.002	1.0	go	0.535	Go_X	1.0
398.526	1.0	go	0.851	Go_X	1.0
401.05	0.35	stopsuccess	0.0	Go_O	1.0
403.575	1.0	go	0.377	Go_O	1.0
406.099	1.0	go	0.0	Go_O	0.0
408.623	0.4	stopfail	0.709	Go_X	0.0
411.147	1.0	go	0.763	Go_X	1.0
413.671	0.35	stopfail	0.493	Go_O	0.0
416.196	1.0	go	0.411	Go_O	1.0
418.72	1.0	go	0.293	Go_X	1.0
421.244	1.0	go	0.783	Go_X	0.0
423.768	1.0	go	0.729	Go_O	0.0
426.292	1.0	go	0.659	Go_X	0.0
428.817	1.0	go	0.0	Go_O	0.0
431.341	1.0	go	0.284	Go_O	1.0
433.865	0.3	stopsuccess	0.0	Go_X	1.0
436.389	1.0	go	0.55	Go_X	0.0
438.913	1.0	go	0.493	Go_X	1.0
441.437	1.0	go	0.537	Go_O	1.0
443.962	0.35	stopsuccess	0.0	Go_O	1.0
446.486	1.0	go	0.538	Go_X	1.0
449.01	1.0	go	0.757	Go_O	1.0
451.534	1.0	go	0.751	Go_O	1.0
454.058	1.0	go	0.463	Go_X	1.0
456.583	0.4	stopsuccess	0.0	Go_X	1.0
459.107	1.0	go	0.759	Go_X	1.0
461.631	1.0	go	0.0	Go_O	0.0
464.155	0.45	stopfail	0.76	Go_O	0.0
466.679	1.0	go	0.557	Go_X	1.0
469.204	1.0	go	0.699	Go_O	1.0
471.728	0.4	stopfail	0.684	Go_X	0.0
474.252	1.0	go	0.331	Go_O	1.0
476.776	1.0	go	0.752	Go_X	1.0
479.3	0.35	stopfail	0.435	Go_O	0.0
481.825	1.0	go	0.901	Go_O	1.0
484.349	1.0	go	0.418	Go_X	1.0
486.873	1.0	go	0.378	Go_X	0.0
489.397	1.0	go	0.444	Go_O	0.0
491.921	1.0	go	0.4	Go_X	0.0
494.446	1.0	go	0.259	Go_O	0.0
496.97	0.3	stopfail	0.652	Go_X	0.0
499.494	1.0	go	0.0	Go_X	0.0
502.018	0.25	stopfail	0.305	Go_O	0.0
504.542	1.0	go	0.518	Go_O	1.0
507.066	1.0	go	0.459	Go_X	1.0
509.591	1.0	go	0.632	Go_O	1.0
512.148	1.0	go	0.435	Go_X	0.0
514.672	1.0	go	0.0	Go_O	0.0
517.197	0.2	stopsuccess	0.0	Go_X	1.0
519.721	1.0	go	0.259	Go_X	0.0
522.245	1.0	go	0.363	Go_O	0.0
524.769	1.0	go	0.416	Go_O	1.0
527.293	0.25	stopfail	0.69	Go_O	0.0
529.818	0.2	stopsuccess	0.0	Go_X	1.0
532.342	0.25	stopsuccess	0.0	Go_O	1.0
534.866	1.0	go	0.582	Go_X	1.0
537.39	0.3	stopsuccess	0.0	Go_X	1.0
539.914	1.0	go	0.884	Go_X	1.0
542.439	1.0	go	0.682	Go_O	1.0
544.963	1.0	go	0.425	Go_O	0.0
547.487	1.0	go	0.828	Go_X	1.0
550.011	1.0	go	0.0	Go_O	0.0
552.535	1.0	go	0.703	Go_X	1.0
555.06	1.0	go	0.84	Go_X	1.0
557.584	1.0	go	0.809	Go_O	1.0
560.108	0.35	stopsuccess	0.0	Go_O	1.0
562.632	1.0	go	0.0	Go_O	0.0
565.156	1.0	go	0.166	Go_X	1.0
567.681	0.4	stopfail	0.903	Go_X	0.0
570.205	1.0	go	0.0	Go_O	0.0
572.729	1.0	go	0.68	Go_X	1.0
575.253	1.0	go	0.51	Go_X	1.0
577.777	1.0	go	0.735	Go_O	1.0
580.301	1.0	go	0.396	Go_O	0.0
582.826	0.35	stopsuccess	0.0	Go_O	1.0
585.35	1.0	go	0.582	Go_X	0.0
587.874	1.0	go	0.0	Go_O	0.0
590.398	1.0	go	0.439	Go_X	1.0
592.922	0.4	stopfail	0.796	Go_X	0.0
595.447	1.0	go	0.0	Go_X	0.0
597.971	0.35	stopsuccess	0.0	Go_O	1.0
600.495	1.0	go	0.877	Go_O	0.0
603.019	1.0	go	0.0	Go_X	0.0
605.543	1.0	go	0.617	Go_O	0.0
608.068	1.0	go	0.0	Go_O	0.0
610.592	1.0	go	0.0	Go_X	0.0
613.116	1.0	go	0.309	Go_X	1.0
615.64	1.0	go	0.551	Go_O	1.0
618.164	0.4	stopsuccess	0.0	Go_X	1.0
620.689	1.0	go	0.649	Go_O	0.0
623.213	1.0	go	0.0	Go_X	0.0
625.737	1.0	go	0.951	Go_O	1.0
628.261	1.0	go	0.714	Go_X	1.0
630.785	0.45	stopfail	0.455	Go_O	0.0
633.31	1.0	go	0.794	Go_X	1.0
635.834	0.4	stopfail	0.52	Go_X	0.0
638.358	1.0	go	0.332	Go_O	0.0
640.882	1.0	go	0.55	Go_X	1.0
643.406	0.35	stopsuccess	0.0	Go_O	1.0
645.93	1.0	go	0.659	Go_O	1.0
648.455	1.0	go	0.584	Go_X	1.0
650.979	1.0	go	0.434	Go_O	1.0
653.503	1.0	go	0.669	Go_X	1.0
656.027	1.0	go	0.639	Go_O	1.0
658.551	1.0	go	0.553	Go_X	1.0
661.076	1.0	go	0.289	Go_O	1.0
663.6	1.0	go	0.314	Go_X	1.0
666.124	1.0	go	0.0	Go_O	0.0
668.648	1.0	go	0.701	Go_X	0.0
671.172	0.4	stopfail	0.327	Go_X	0.0
673.697	1.0	go	0.57	Go_O	1.0
676.221	1.0	go	0.0	Go_X	0.0
678.745	0.35	stopsuccess	0.0	Go_O	1.0
681.269	1.0	go	0.437	Go_O	1.0
683.793	0.4	stopfail	0.283	Go_X	0.0
686.318	1.0	go	0.0	Go_O	0.0
688.842	1.0	go	0.581	Go_X	1.0
691.366	0.35	stopsuccess	0.0	Go_O	1.0
693.89	1.0	go	0.0	Go_O	0.0
696.414	0.4	stopfail	0.8	Go_X	0.0
698.939	1.0	go	0.952	Go_X	0.0
701.463	1.0	go	0.0	Go_O	0.0
703.987	1.0	go	0.408	Go_X	1.0
706.511	0.35	stopfail	0.303	Go_O	0.0
709.035	1.0	go	0.0	Go_X	0.0
711.559	1.0	go	0.0	Go_O	0.0
714.084	1.0	go	0.465	Go_X	1.0
716.608	1.0	go	0.0	Go_O	0.0
719.132	0.3	stopfail	0.536	Go_X	0.0
721.656	1.0	go	0.483	Go_X	1.0
724.18	1.0	go	0.0	Go_O	0.0
726.705	0.25	stopfail	0.452	Go_O	0.0
729.229	1.0	go	0.396	Go_X	1.0
731.753	1.0	go	0.815	Go_O	1.0
734.277	1.0	go	0.0	Go_O	0.0
736.801	1.0	go	0.754	Go_X	1.0
739.326	0.2	stopfail	0.615	Go_X	0.0
741.85	1.0	go	0.0	Go_O	0.0
744.374	0.15	stopsuccess	0.0	Go_O	1.0
746.898	1.0	go	0.704	Go_X	1.0
749.422	1.0	go	0.0	Go_O	0.0
751.947	0.2	stopfail	0.527	Go_X	0.0
754.471	1.0	go	0.0	Go_X	0.0
756.995	1.0	go	0.758	Go_O	0.0
759.519	1.0	go	0.0	Go_X	0.0
762.043	1.0	go	0.0	Go_O	0.0
764.568	0.15	stopfail	0.618	Go_O	0.0
767.092	1.0	go	0.461	Go_X	1.0
769.616	0.1	stopfail	0.533	Go_X	0.0
772.14	1.0	go	0.647	Go_X	1.0
774.664	1.0	go	0.902	Go_O	1.0
777.188	1.0	go	0.432	Go_X	1.0
779.713	1.0	go	0.579	Go_O	0.0
782.237	1.0	go	0.0	Go_X	0.0
784.761	1.0	go	0.461	Go_O	1.0
787.285	0.05	stopfail	0.228	Go_O	0.0
789.809	1.0	go	0.636	Go_O	0.0
792.334	1.0	go	0.686	Go_X	0.0
794.858	0.0	stopsuccess	0.0	Go_X	1.0
797.399	1.0	go	0.0	Go_O	0.0
799.923	1.0	go	0.21	Go_X	1.0
802.447	0.05	stopfail	0.865	Go_O	0.0
804.971	1.0	go	0.0	Go_X	0.0
807.495	1.0	go	0.484	Go_O	1.0
810.02	1.0	go	0.399	Go_O	0.0
812.544	1.0	go	0.744	Go_X	1.0
815.068	0.0	stopsuccess	0.0	Go_X	1.0
817.609	1.0	go	0.652	Go_O	1.0
820.133	0.05	stopsuccess	0.0	Go_O	1.0
822.657	1.0	go	0.536	Go_X	1.0
825.182	1.0	go	0.655	Go_O	1.0
827.706	1.0	go	0.901	Go_X	1.0
830.23	1.0	go	0.528	Go_X	1.0
832.754	1.0	go	0.396	Go_O	1.0
835.278	0.1	stopfail	0.284	Go_X	0.0
837.803	1.0	go	0.58	Go_X	1.0
840.327	1.0	go	0.25	Go_O	1.0
842.851	0.05	stopfail	0.965	Go_O	0.0
845.375	0.0	stopsuccess	0.0	Go_X	1.0
847.916	1.0	go	0.562	Go_X	0.0
850.44	1.0	go	0.53	Go_O	0.0
852.964	1.0	go	0.5	Go_O	1.0
855.489	1.0	go	0.264	Go_X	1.0
858.013	0.05	stopsuccess	0.0	Go_O	1.0
860.537	1.0	go	0.48	Go_X	1.0
