onset	duration	trial_type	response_time	stim_file	accuracy
58.894	1.0	go	0.516	Go_X	0.0
61.485	1.0	go	0.564	Go_O	1.0
64.009	1.0	go	0.373	Go_X	1.0
66.533	1.0	go	0.298	Go_O	1.0
69.057	1.0	go	0.52	Go_O	1.0
71.581	1.0	go	0.453	Go_X	1.0
74.106	0.25	stopfail	0.449	Go_O	0.0
76.63	1.0	go	0.358	Go_O	0.0
79.154	0.2	stopfail	0.287	Go_X	0.0
81.678	1.0	go	0.357	Go_X	0.0
84.202	1.0	go	0.48	Go_O	1.0
86.727	1.0	go	0.453	Go_X	1.0
89.251	0.15	stopfail	0.363	Go_O	0.0
91.775	1.0	go	0.484	Go_X	1.0
94.299	1.0	go	0.343	Go_O	1.0
96.823	0.1	stopsuccess	0.0	Go_X	1.0
99.348	0.15	stopfail	0.424	Go_O	0.0
101.872	1.0	go	0.543	Go_X	1.0
104.396	1.0	go	0.529	Go_O	1.0
106.92	0.1	stopsuccess	0.0	Go_X	1.0
109.444	1.0	go	0.613	Go_O	1.0
111.969	1.0	go	0.389	Go_X	1.0
114.493	0.15	stopsuccess	0.0	Go_O	1.0
117.017	1.0	go	0.342	Go_O	1.0
119.541	1.0	go	0.494	Go_X	1.0
122.065	0.2	stopfail	0.405	Go_X	0.0
124.59	1.0	go	0.528	Go_X	1.0
127.114	1.0	go	0.53	Go_O	1.0
129.638	0.15	stopsuccess	0.0	Go_O	1.0
132.162	1.0	go	0.384	Go_X	1.0
134.686	1.0	go	0.346	Go_O	1.0
137.211	1.0	go	0.625	Go_X	1.0
139.735	1.0	go	0.473	Go_O	1.0
142.259	1.0	go	0.407	Go_O	0.0
144.783	0.2	stopsuccess	0.0	Go_X	1.0
147.308	1.0	go	0.491	Go_X	1.0
149.832	1.0	go	0.0	Go_O	0.0
152.356	1.0	go	0.512	Go_X	1.0
154.88	1.0	go	0.535	Go_X	1.0
157.404	1.0	go	0.504	Go_O	1.0
159.929	0.25	stopsuccess	0.0	Go_O	1.0
162.453	1.0	go	0.349	Go_X	0.0
164.977	1.0	go	0.553	Go_O	1.0
167.501	1.0	go	0.418	Go_O	1.0
170.025	1.0	go	0.439	Go_X	1.0
172.55	1.0	go	0.351	Go_X	1.0
175.074	1.0	go	0.543	Go_O	1.0
177.598	0.3	stopfail	0.566	Go_X	0.0
180.122	1.0	go	0.431	Go_O	1.0
182.646	1.0	go	0.404	Go_X	1.0
185.171	0.25	stopsuccess	0.0	Go_O	1.0
187.711	1.0	go	0.404	Go_O	1.0
190.236	0.3	stopfail	0.367	Go_X	0.0
192.76	0.25	stopsuccess	0.0	Go_O	1.0
195.284	1.0	go	0.671	Go_X	1.0
197.808	1.0	go	0.601	Go_O	1.0
200.332	1.0	go	0.997	Go_X	1.0
202.857	1.0	go	0.722	Go_O	1.0
205.381	0.3	stopsuccess	0.0	Go_X	1.0
207.905	1.0	go	0.685	Go_X	0.0
210.429	0.35	stopsuccess	0.0	Go_O	1.0
212.954	1.0	go	0.332	Go_O	1.0
215.478	1.0	go	0.431	Go_X	1.0
218.002	1.0	go	0.856	Go_O	1.0
220.526	1.0	go	0.387	Go_X	1.0
223.05	1.0	go	0.564	Go_X	1.0
225.575	1.0	go	0.578	Go_O	1.0
228.099	1.0	go	0.481	Go_X	1.0
230.623	1.0	go	0.686	Go_O	1.0
233.147	1.0	go	0.529	Go_X	1.0
235.671	0.4	stopfail	0.439	Go_X	0.0
238.196	1.0	go	0.537	Go_O	1.0
240.72	1.0	go	0.536	Go_X	1.0
243.244	1.0	go	0.625	Go_O	1.0
245.768	0.35	stopsuccess	0.0	Go_O	1.0
248.292	1.0	go	0.606	Go_O	1.0
250.817	1.0	go	0.565	Go_X	1.0
253.341	1.0	go	0.751	Go_X	1.0
255.865	1.0	go	0.554	Go_O	1.0
258.389	1.0	go	0.501	Go_O	1.0
260.913	1.0	go	0.743	Go_X	1.0
263.438	0.4	stopfail	0.465	Go_X	0.0
265.962	1.0	go	0.539	Go_X	1.0
268.486	1.0	go	0.553	Go_O	1.0
271.01	0.35	stopfail	0.437	Go_O	0.0
273.534	1.0	go	0.758	Go_O	1.0
276.059	1.0	go	0.722	Go_X	1.0
278.583	0.3	stopsuccess	0.0	Go_X	1.0
281.107	1.0	go	0.795	Go_O	1.0
283.631	0.35	stopsuccess	0.0	Go_O	1.0
286.155	1.0	go	0.424	Go_X	1.0
288.68	1.0	go	0.517	Go_X	1.0
291.204	1.0	go	0.553	Go_O	1.0
293.728	1.0	go	0.391	Go_X	1.0
296.252	1.0	go	0.52	Go_O	1.0
298.776	0.4	stopfail	0.451	Go_X	0.0
301.301	0.35	stopsuccess	0.0	Go_O	1.0
303.825	1.0	go	0.417	Go_O	1.0
306.349	1.0	go	0.68	Go_X	1.0
308.873	0.4	stopfail	0.556	Go_X	0.0
311.397	1.0	go	0.493	Go_X	1.0
313.922	1.0	go	0.518	Go_O	1.0
316.446	1.0	go	0.779	Go_O	1.0
318.97	1.0	go	0.699	Go_X	1.0
321.494	1.0	go	0.42	Go_X	1.0
324.018	1.0	go	0.427	Go_O	1.0
326.543	0.35	stopfail	0.488	Go_O	0.0
329.067	1.0	go	0.375	Go_X	1.0
331.591	1.0	go	0.435	Go_O	1.0
334.115	1.0	go	0.486	Go_X	1.0
336.639	1.0	go	0.56	Go_O	1.0
339.164	1.0	go	0.563	Go_X	1.0
341.688	0.3	stopfail	0.363	Go_X	0.0
344.212	1.0	go	0.426	Go_O	1.0
346.736	1.0	go	0.506	Go_X	1.0
349.26	1.0	go	0.545	Go_O	1.0
351.785	1.0	go	0.46	Go_O	1.0
354.309	0.25	stopfail	0.46	Go_O	0.0
356.833	1.0	go	0.468	Go_X	0.0
359.357	1.0	go	0.551	Go_X	1.0
361.881	0.2	stopfail	0.307	Go_X	0.0
364.406	1.0	go	0.366	Go_O	1.0
366.93	0.15	stopsuccess	0.0	Go_O	1.0
369.454	1.0	go	0.471	Go_O	1.0
371.978	1.0	go	0.453	Go_X	1.0
374.503	1.0	go	0.8	Go_O	1.0
377.027	1.0	go	0.529	Go_X	1.0
379.551	1.0	go	0.521	Go_X	1.0
382.075	1.0	go	0.498	Go_O	1.0
384.599	1.0	go	0.783	Go_O	1.0
387.124	0.2	stopsuccess	0.0	Go_X	1.0
389.648	1.0	go	0.338	Go_X	1.0
392.172	1.0	go	0.521	Go_O	1.0
394.696	1.0	go	0.878	Go_X	1.0
397.22	0.25	stopsuccess	0.0	Go_O	1.0
399.745	1.0	go	0.454	Go_X	1.0
402.269	1.0	go	0.625	Go_O	1.0
404.793	1.0	go	0.539	Go_X	1.0
407.317	1.0	go	0.556	Go_O	1.0
409.841	0.3	stopfail	0.649	Go_X	0.0
412.366	1.0	go	0.473	Go_O	1.0
414.89	1.0	go	0.728	Go_X	1.0
417.414	0.25	stopfail	0.473	Go_O	0.0
419.938	1.0	go	0.51	Go_O	1.0
422.462	1.0	go	0.445	Go_X	1.0
424.987	0.2	stopfail	0.335	Go_X	0.0
427.511	1.0	go	0.486	Go_O	1.0
430.035	1.0	go	0.721	Go_X	1.0
432.559	0.15	stopfail	0.376	Go_O	0.0
435.083	1.0	go	0.569	Go_X	1.0
437.608	1.0	go	0.0	Go_O	0.0
440.132	1.0	go	0.415	Go_O	1.0
442.656	1.0	go	0.507	Go_X	1.0
445.18	1.0	go	0.617	Go_X	0.0
447.704	1.0	go	0.593	Go_O	1.0
450.229	0.1	stopsuccess	0.0	Go_X	1.0
452.753	1.0	go	0.388	Go_X	1.0
455.277	0.15	stopsuccess	0.0	Go_O	1.0
457.801	1.0	go	0.715	Go_O	1.0
460.325	1.0	go	0.595	Go_X	1.0
462.85	1.0	go	0.706	Go_O	1.0
465.374	1.0	go	0.807	Go_O	1.0
467.898	1.0	go	0.392	Go_X	1.0
470.422	0.2	stopsuccess	0.0	Go_X	1.0
472.946	1.0	go	0.284	Go_O	1.0
475.471	1.0	go	0.441	Go_X	1.0
477.995	1.0	go	0.497	Go_O	1.0
480.519	0.25	stopsuccess	0.0	Go_O	1.0
483.043	0.3	stopfail	0.253	Go_X	0.0
485.567	0.25	stopfail	0.409	Go_O	0.0
488.092	1.0	go	0.531	Go_X	1.0
490.616	0.2	stopsuccess	0.0	Go_X	1.0
493.14	1.0	go	0.447	Go_O	1.0
495.664	1.0	go	0.562	Go_X	1.0
498.188	1.0	go	0.451	Go_O	1.0
500.713	1.0	go	0.696	Go_X	1.0
503.237	1.0	go	0.635	Go_O	1.0
505.761	1.0	go	0.559	Go_X	1.0
508.285	1.0	go	0.422	Go_X	1.0
510.809	1.0	go	0.762	Go_O	1.0
513.334	0.25	stopsuccess	0.0	Go_O	1.0
515.858	1.0	go	0.458	Go_X	1.0
518.382	1.0	go	0.813	Go_O	1.0
520.906	0.3	stopsuccess	0.0	Go_X	1.0
523.431	1.0	go	0.611	Go_O	1.0
525.955	1.0	go	0.397	Go_X	1.0
528.479	1.0	go	0.554	Go_O	1.0
531.003	1.0	go	0.0	Go_X	0.0
533.527	1.0	go	0.491	Go_X	1.0
536.051	0.35	stopsuccess	0.0	Go_O	1.0
538.576	1.0	go	0.51	Go_O	1.0
541.1	1.0	go	0.656	Go_X	1.0
543.624	1.0	go	0.53	Go_O	1.0
546.148	0.4	stopfail	0.8	Go_X	0.0
548.673	1.0	go	0.446	Go_O	1.0
551.197	0.35	stopsuccess	0.0	Go_O	1.0
553.721	1.0	go	0.427	Go_X	1.0
556.245	1.0	go	0.551	Go_O	1.0
558.769	1.0	go	0.707	Go_X	1.0
561.294	1.0	go	0.395	Go_O	1.0
563.818	1.0	go	0.469	Go_X	1.0
566.342	1.0	go	0.425	Go_X	1.0
568.866	1.0	go	0.484	Go_O	1.0
571.39	0.4	stopfail	0.504	Go_X	0.0
573.915	1.0	go	0.428	Go_O	1.0
576.439	1.0	go	0.54	Go_X	1.0
578.963	1.0	go	0.43	Go_X	1.0
581.487	1.0	go	0.413	Go_O	1.0
584.011	0.35	stopfail	0.615	Go_O	0.0
586.536	1.0	go	0.444	Go_O	1.0
589.06	0.3	stopfail	0.298	Go_X	0.0
591.584	1.0	go	0.358	Go_X	0.0
594.108	1.0	go	0.452	Go_X	1.0
596.632	0.25	stopsuccess	0.0	Go_O	1.0
599.157	1.0	go	0.449	Go_O	1.0
601.681	1.0	go	0.565	Go_O	1.0
604.205	1.0	go	0.362	Go_X	1.0
606.729	1.0	go	0.608	Go_O	1.0
609.253	1.0	go	0.445	Go_X	1.0
611.778	1.0	go	0.48	Go_X	1.0
614.302	1.0	go	0.52	Go_O	1.0
616.826	1.0	go	0.388	Go_X	1.0
619.35	1.0	go	0.469	Go_O	1.0
621.874	1.0	go	0.564	Go_O	1.0
624.399	0.3	stopsuccess	0.0	Go_X	1.0
626.923	1.0	go	0.459	Go_X	1.0
629.447	1.0	go	0.716	Go_O	1.0
631.971	0.35	stopfail	0.403	Go_O	0.0
634.495	1.0	go	0.352	Go_X	1.0
637.02	0.3	stopfail	0.453	Go_X	0.0
639.544	1.0	go	0.522	Go_O	1.0
642.068	1.0	go	0.576	Go_X	1.0
644.609	0.25	stopsuccess	0.0	Go_O	1.0
647.133	1.0	go	0.462	Go_O	1.0
649.657	0.3	stopsuccess	0.0	Go_X	1.0
652.182	1.0	go	0.287	Go_X	1.0
654.706	1.0	go	0.474	Go_X	1.0
657.23	1.0	go	0.517	Go_O	1.0
659.754	0.35	stopsuccess	0.0	Go_O	1.0
662.278	1.0	go	0.874	Go_X	0.0
664.803	1.0	go	0.385	Go_O	1.0
667.327	1.0	go	0.46	Go_X	1.0
669.851	1.0	go	0.44	Go_O	1.0
672.375	0.4	stopfail	0.389	Go_X	0.0
674.899	1.0	go	0.302	Go_X	1.0
677.424	1.0	go	0.602	Go_O	1.0
679.948	0.35	stopfail	0.541	Go_O	0.0
682.489	1.0	go	0.495	Go_O	1.0
685.013	1.0	go	0.419	Go_X	1.0
687.537	1.0	go	0.399	Go_X	1.0
690.061	1.0	go	0.574	Go_O	1.0
692.586	0.3	stopsuccess	0.0	Go_X	1.0
695.11	1.0	go	0.349	Go_X	1.0
697.634	0.35	stopsuccess	0.0	Go_O	1.0
700.158	1.0	go	0.0	Go_O	0.0
702.682	1.0	go	0.37	Go_O	1.0
705.207	0.4	stopsuccess	0.0	Go_X	1.0
707.731	1.0	go	0.0	Go_X	0.0
710.255	1.0	go	0.351	Go_X	1.0
712.779	1.0	go	0.508	Go_O	1.0
715.303	1.0	go	0.465	Go_X	1.0
717.828	0.45	stopfail	0.562	Go_O	0.0
720.368	1.0	go	0.75	Go_O	1.0
722.893	0.4	stopfail	0.488	Go_X	0.0
725.417	1.0	go	0.0	Go_O	0.0
727.941	1.0	go	0.428	Go_X	1.0
730.465	1.0	go	0.806	Go_O	1.0
732.99	1.0	go	0.909	Go_X	1.0
735.514	1.0	go	0.436	Go_X	1.0
738.038	1.0	go	0.738	Go_O	1.0
740.562	0.35	stopsuccess	0.0	Go_O	1.0
743.086	1.0	go	0.0	Go_X	0.0
745.611	1.0	go	0.404	Go_O	1.0
748.135	0.4	stopsuccess	0.0	Go_X	1.0
750.659	1.0	go	0.0	Go_X	0.0
753.183	1.0	go	0.464	Go_O	1.0
755.707	0.45	stopfail	0.764	Go_O	0.0
758.232	1.0	go	0.267	Go_X	1.0
760.756	1.0	go	0.597	Go_O	1.0
763.28	1.0	go	0.542	Go_O	1.0
765.804	1.0	go	0.569	Go_X	1.0
768.328	0.4	stopfail	0.736	Go_X	0.0
770.853	1.0	go	0.391	Go_X	0.0
773.377	0.35	stopfail	0.428	Go_O	0.0
775.901	1.0	go	0.358	Go_O	1.0
778.425	1.0	go	0.421	Go_X	1.0
780.949	1.0	go	0.415	Go_O	1.0
783.474	1.0	go	0.632	Go_O	1.0
785.998	1.0	go	0.606	Go_X	1.0
788.522	0.3	stopfail	0.465	Go_X	0.0
791.046	1.0	go	0.428	Go_O	1.0
793.57	1.0	go	0.316	Go_X	1.0
796.095	0.25	stopfail	0.425	Go_O	0.0
798.619	0.2	stopfail	0.272	Go_X	0.0
801.143	1.0	go	0.892	Go_X	1.0
803.667	1.0	go	0.425	Go_O	1.0
806.191	1.0	go	0.368	Go_X	1.0
808.716	1.0	go	0.404	Go_O	1.0
811.24	0.15	stopsuccess	0.0	Go_O	1.0
813.764	1.0	go	0.83	Go_O	0.0
