onset	duration	trial_type	response_time	stim_file	accuracy
328.809	1.0	go	0.736	Go_X	0.0
331.417	1.0	go	0.284	Go_O	1.0
333.941	1.0	go	0.439	Go_O	1.0
336.465	1.0	go	0.228	Go_X	1.0
338.989	1.0	go	0.404	Go_X	1.0
341.514	1.0	go	0.284	Go_O	1.0
344.038	0.25	stopfail	0.329	Go_O	0.0
346.562	1.0	go	0.192	Go_X	1.0
349.086	0.2	stopfail	0.322	Go_X	0.0
351.61	1.0	go	0.425	Go_O	1.0
354.134	1.0	go	0.328	Go_X	1.0
356.659	1.0	go	0.285	Go_O	1.0
359.183	0.15	stopfail	0.21	Go_O	0.0
361.707	1.0	go	0.52	Go_O	1.0
364.231	1.0	go	0.46	Go_X	1.0
366.755	0.1	stopsuccess	0.0	Go_X	1.0
369.279	0.15	stopfail	0.338	Go_O	0.0
371.804	1.0	go	0.368	Go_X	1.0
374.328	1.0	go	0.438	Go_O	1.0
376.852	0.1	stopsuccess	0.0	Go_X	1.0
379.376	1.0	go	0.459	Go_X	1.0
381.9	1.0	go	0.373	Go_O	1.0
384.425	0.15	stopfail	0.291	Go_O	0.0
386.949	1.0	go	0.409	Go_O	1.0
389.473	1.0	go	0.391	Go_X	1.0
391.997	0.1	stopsuccess	0.0	Go_X	1.0
394.521	1.0	go	0.36	Go_X	1.0
397.045	1.0	go	0.485	Go_O	1.0
399.57	0.15	stopfail	0.306	Go_O	0.0
402.094	1.0	go	0.445	Go_O	1.0
404.618	1.0	go	0.428	Go_X	1.0
407.142	1.0	go	0.367	Go_X	1.0
409.666	1.0	go	0.625	Go_O	1.0
412.19	1.0	go	0.514	Go_X	1.0
414.715	0.1	stopsuccess	0.0	Go_X	1.0
417.239	1.0	go	0.377	Go_O	1.0
419.763	1.0	go	0.363	Go_O	1.0
422.287	1.0	go	0.399	Go_X	1.0
424.811	1.0	go	0.415	Go_X	1.0
427.335	1.0	go	0.387	Go_O	1.0
429.86	0.15	stopsuccess	0.0	Go_O	1.0
432.384	1.0	go	0.263	Go_X	0.0
434.908	1.0	go	0.339	Go_O	1.0
437.432	1.0	go	0.37	Go_X	0.0
439.956	1.0	go	0.465	Go_O	1.0
442.48	1.0	go	0.503	Go_O	1.0
445.005	1.0	go	0.277	Go_X	1.0
447.529	0.2	stopfail	0.326	Go_X	0.0
450.053	1.0	go	0.395	Go_X	1.0
452.577	1.0	go	0.487	Go_O	1.0
455.101	0.15	stopsuccess	0.0	Go_O	1.0
457.626	1.0	go	0.384	Go_X	1.0
460.15	0.2	stopsuccess	0.0	Go_X	1.0
462.674	0.25	stopfail	0.449	Go_O	0.0
465.201	1.0	go	0.343	Go_O	1.0
467.722	1.0	go	0.489	Go_X	1.0
470.246	1.0	go	0.683	Go_O	1.0
472.771	1.0	go	0.42	Go_O	1.0
475.295	0.2	stopfail	0.387	Go_X	0.0
477.819	1.0	go	0.566	Go_X	1.0
480.343	0.15	stopsuccess	0.0	Go_O	1.0
482.867	1.0	go	0.563	Go_X	1.0
485.391	1.0	go	0.294	Go_O	1.0
487.916	1.0	go	0.335	Go_X	1.0
490.44	1.0	go	0.538	Go_O	1.0
492.964	1.0	go	0.488	Go_X	1.0
495.488	1.0	go	0.453	Go_O	1.0
498.012	1.0	go	0.488	Go_X	1.0
500.536	1.0	go	0.503	Go_O	1.0
503.061	1.0	go	0.838	Go_O	1.0
505.585	0.2	stopsuccess	0.0	Go_X	1.0
508.109	1.0	go	0.311	Go_X	1.0
510.633	1.0	go	0.409	Go_X	1.0
513.157	1.0	go	0.423	Go_O	1.0
515.681	0.25	stopfail	0.425	Go_O	0.0
518.206	1.0	go	0.455	Go_X	1.0
520.73	1.0	go	0.364	Go_O	1.0
523.254	1.0	go	0.381	Go_X	1.0
525.778	1.0	go	0.367	Go_O	1.0
528.302	1.0	go	0.449	Go_X	1.0
530.826	1.0	go	0.523	Go_O	1.0
533.351	0.2	stopsuccess	0.0	Go_X	1.0
535.875	1.0	go	0.263	Go_X	1.0
538.399	1.0	go	0.442	Go_O	1.0
540.923	0.25	stopsuccess	0.0	Go_O	1.0
543.447	1.0	go	0.311	Go_O	1.0
545.972	1.0	go	0.362	Go_X	1.0
548.496	0.3	stopfail	0.369	Go_X	0.0
551.02	1.0	go	0.485	Go_X	1.0
553.544	0.25	stopfail	0.392	Go_O	0.0
556.068	1.0	go	0.405	Go_O	1.0
558.592	1.0	go	0.623	Go_O	1.0
561.133	1.0	go	0.595	Go_X	1.0
563.657	1.0	go	0.464	Go_X	1.0
566.182	1.0	go	0.468	Go_O	1.0
568.706	0.2	stopsuccess	0.0	Go_X	1.0
571.23	0.25	stopsuccess	0.0	Go_O	1.0
573.754	1.0	go	0.48	Go_X	1.0
576.278	1.0	go	0.357	Go_O	1.0
578.802	0.3	stopfail	0.419	Go_X	0.0
581.327	1.0	go	0.235	Go_X	0.0
583.851	1.0	go	0.253	Go_O	1.0
586.375	1.0	go	0.754	Go_X	1.0
588.899	1.0	go	0.821	Go_O	1.0
591.423	1.0	go	0.683	Go_X	1.0
593.947	1.0	go	0.363	Go_O	1.0
596.472	0.25	stopfail	0.337	Go_O	0.0
598.996	1.0	go	0.237	Go_O	1.0
601.52	1.0	go	0.339	Go_X	1.0
604.044	1.0	go	0.443	Go_O	1.0
606.568	1.0	go	0.343	Go_X	1.0
609.093	1.0	go	0.362	Go_X	1.0
611.617	0.2	stopfail	0.372	Go_X	0.0
614.141	1.0	go	0.379	Go_O	1.0
616.665	1.0	go	0.5	Go_O	1.0
619.189	1.0	go	0.421	Go_X	1.0
621.73	1.0	go	0.655	Go_O	1.0
624.254	0.15	stopsuccess	0.0	Go_O	1.0
626.778	1.0	go	0.323	Go_X	1.0
629.303	1.0	go	0.403	Go_X	1.0
631.827	0.2	stopsuccess	0.0	Go_X	1.0
634.351	1.0	go	0.336	Go_O	1.0
636.875	0.25	stopsuccess	0.0	Go_O	1.0
639.399	1.0	go	0.432	Go_O	1.0
641.923	1.0	go	0.73	Go_X	1.0
644.448	1.0	go	0.484	Go_X	1.0
646.972	1.0	go	0.551	Go_O	1.0
649.496	1.0	go	0.459	Go_X	1.0
652.02	1.0	go	0.409	Go_O	1.0
654.544	1.0	go	0.436	Go_O	1.0
657.069	0.3	stopfail	0.374	Go_X	0.0
659.593	1.0	go	0.413	Go_X	1.0
662.117	1.0	go	0.433	Go_O	1.0
664.641	1.0	go	0.435	Go_X	1.0
667.165	0.25	stopsuccess	0.0	Go_O	1.0
669.689	1.0	go	0.465	Go_X	1.0
672.214	1.0	go	0.485	Go_O	1.0
674.738	1.0	go	0.501	Go_O	1.0
677.262	1.0	go	0.441	Go_X	1.0
679.786	0.3	stopsuccess	0.0	Go_X	1.0
682.31	1.0	go	0.353	Go_O	1.0
684.834	1.0	go	0.272	Go_X	1.0
687.359	0.35	stopfail	0.419	Go_O	0.0
689.883	1.0	go	0.293	Go_X	1.0
692.407	1.0	go	0.3	Go_O	1.0
694.931	0.3	stopfail	0.339	Go_X	0.0
697.455	1.0	go	0.39	Go_O	1.0
699.979	1.0	go	0.582	Go_X	1.0
702.504	0.25	stopsuccess	0.0	Go_O	1.0
705.028	1.0	go	0.536	Go_O	1.0
707.552	1.0	go	0.478	Go_X	1.0
710.076	1.0	go	0.465	Go_O	1.0
712.6	1.0	go	0.334	Go_X	0.0
715.124	1.0	go	0.518	Go_X	1.0
717.649	1.0	go	0.569	Go_O	1.0
720.173	0.3	stopfail	0.462	Go_X	0.0
722.697	1.0	go	0.413	Go_X	1.0
725.221	0.25	stopsuccess	0.0	Go_O	1.0
727.745	1.0	go	0.314	Go_O	1.0
730.269	1.0	go	0.277	Go_X	1.0
732.794	1.0	go	0.428	Go_O	1.0
735.318	1.0	go	0.398	Go_X	1.0
737.842	1.0	go	0.554	Go_O	1.0
740.366	0.3	stopfail	0.491	Go_X	0.0
742.89	1.0	go	0.376	Go_X	1.0
745.415	1.0	go	0.291	Go_O	1.0
747.939	1.0	go	0.481	Go_X	1.0
750.463	0.25	stopfail	0.402	Go_O	0.0
752.987	0.2	stopfail	0.27	Go_X	0.0
755.528	0.15	stopsuccess	0.0	Go_O	1.0
758.052	1.0	go	0.495	Go_O	1.0
760.576	0.2	stopsuccess	0.0	Go_X	1.0
763.1	1.0	go	0.472	Go_X	1.0
765.625	1.0	go	0.425	Go_O	1.0
768.149	1.0	go	0.366	Go_X	1.0
770.673	1.0	go	0.406	Go_O	1.0
773.197	1.0	go	0.586	Go_X	1.0
775.721	1.0	go	0.719	Go_O	1.0
778.245	1.0	go	0.623	Go_X	0.0
780.77	1.0	go	0.493	Go_O	1.0
783.294	0.25	stopfail	0.349	Go_O	0.0
785.818	1.0	go	0.438	Go_X	1.0
788.342	1.0	go	0.494	Go_O	1.0
790.866	0.2	stopsuccess	0.0	Go_X	1.0
793.391	1.0	go	0.58	Go_O	1.0
795.915	1.0	go	0.326	Go_X	1.0
798.439	1.0	go	0.35	Go_O	1.0
800.963	1.0	go	0.355	Go_X	1.0
803.487	1.0	go	0.379	Go_O	1.0
806.011	0.25	stopfail	0.394	Go_O	0.0
808.536	1.0	go	0.231	Go_X	1.0
811.06	1.0	go	0.215	Go_O	1.0
813.584	1.0	go	0.36	Go_X	1.0
816.125	0.2	stopsuccess	0.0	Go_X	1.0
818.649	1.0	go	0.281	Go_O	1.0
821.173	0.25	stopfail	0.404	Go_O	0.0
823.697	1.0	go	0.42	Go_X	1.0
826.221	1.0	go	0.536	Go_O	1.0
828.746	1.0	go	0.48	Go_X	1.0
831.27	1.0	go	0.46	Go_X	1.0
833.794	1.0	go	0.399	Go_O	1.0
836.318	1.0	go	0.455	Go_X	1.0
838.842	1.0	go	0.412	Go_O	1.0
841.366	0.2	stopsuccess	0.0	Go_X	1.0
843.891	1.0	go	0.465	Go_X	1.0
846.415	1.0	go	0.453	Go_O	1.0
848.939	1.0	go	0.42	Go_O	0.0
851.463	1.0	go	0.349	Go_X	1.0
853.987	0.25	stopsuccess	0.0	Go_O	1.0
856.512	1.0	go	0.518	Go_X	1.0
859.036	0.3	stopfail	0.45	Go_X	0.0
861.56	1.0	go	0.393	Go_O	1.0
864.084	1.0	go	0.559	Go_O	1.0
866.608	0.25	stopfail	0.394	Go_O	0.0
869.132	1.0	go	0.356	Go_X	1.0
871.657	1.0	go	0.33	Go_O	1.0
874.181	1.0	go	0.278	Go_X	1.0
876.705	1.0	go	0.42	Go_X	1.0
879.229	1.0	go	0.551	Go_O	1.0
881.753	1.0	go	0.246	Go_O	0.0
884.277	1.0	go	0.403	Go_X	1.0
886.802	1.0	go	0.368	Go_X	1.0
889.326	1.0	go	0.403	Go_O	1.0
891.85	1.0	go	0.468	Go_X	1.0
894.374	0.2	stopsuccess	0.0	Go_X	1.0
896.898	1.0	go	0.357	Go_O	1.0
899.422	1.0	go	0.344	Go_O	1.0
901.947	0.25	stopfail	0.286	Go_O	0.0
904.471	1.0	go	0.571	Go_X	1.0
906.995	0.2	stopsuccess	0.0	Go_X	1.0
909.519	1.0	go	0.448	Go_X	1.0
912.043	1.0	go	0.914	Go_O	1.0
914.567	0.25	stopsuccess	0.0	Go_O	1.0
917.092	1.0	go	0.312	Go_X	1.0
919.616	0.3	stopfail	0.353	Go_X	0.0
922.14	1.0	go	0.379	Go_O	1.0
924.664	1.0	go	0.468	Go_O	1.0
927.188	1.0	go	0.505	Go_X	1.0
929.712	0.25	stopsuccess	0.0	Go_O	1.0
932.237	1.0	go	0.399	Go_O	1.0
934.761	1.0	go	0.618	Go_X	1.0
937.285	1.0	go	0.532	Go_O	1.0
939.809	1.0	go	0.549	Go_X	1.0
942.333	0.3	stopsuccess	0.0	Go_X	1.0
944.858	1.0	go	0.392	Go_O	1.0
947.382	1.0	go	0.409	Go_X	1.0
949.906	0.35	stopfail	0.422	Go_O	0.0
952.43	1.0	go	0.53	Go_X	1.0
954.954	1.0	go	0.39	Go_O	1.0
957.478	1.0	go	0.518	Go_O	1.0
960.019	1.0	go	0.402	Go_X	1.0
962.543	0.3	stopfail	0.527	Go_X	0.0
965.068	1.0	go	0.295	Go_O	1.0
967.592	0.25	stopfail	0.463	Go_O	0.0
970.116	1.0	go	0.537	Go_X	1.0
972.64	1.0	go	0.443	Go_X	1.0
975.164	0.2	stopsuccess	0.0	Go_X	1.0
977.688	1.0	go	0.317	Go_O	1.0
980.213	1.0	go	0.665	Go_O	1.0
982.737	1.0	go	0.442	Go_X	1.0
985.261	1.0	go	0.479	Go_X	0.0
987.785	0.25	stopfail	0.3	Go_O	0.0
990.309	1.0	go	0.362	Go_O	1.0
992.833	0.2	stopfail	0.337	Go_X	0.0
995.358	1.0	go	0.305	Go_X	0.0
997.882	1.0	go	0.462	Go_O	1.0
1000.406	1.0	go	0.33	Go_O	0.0
1002.93	1.0	go	0.462	Go_X	1.0
1005.454	1.0	go	0.507	Go_O	1.0
1007.979	1.0	go	0.395	Go_X	1.0
1010.503	0.15	stopfail	0.255	Go_O	0.0
1013.027	1.0	go	0.305	Go_O	1.0
1015.551	1.0	go	0.257	Go_X	1.0
1018.075	0.1	stopfail	0.294	Go_X	0.0
1020.599	1.0	go	0.262	Go_X	1.0
1023.124	1.0	go	0.279	Go_O	1.0
1025.648	0.05	stopsuccess	0.0	Go_O	1.0
1028.172	1.0	go	0.435	Go_O	1.0
1030.696	1.0	go	0.539	Go_X	1.0
1033.22	1.0	go	0.638	Go_X	1.0
1035.744	1.0	go	0.355	Go_O	1.0
1038.269	0.1	stopfail	0.259	Go_X	0.0
1040.793	1.0	go	0.282	Go_X	0.0
1043.317	0.05	stopsuccess	0.0	Go_O	1.0
1045.858	1.0	go	0.399	Go_O	1.0
1048.382	1.0	go	0.307	Go_O	1.0
1050.906	1.0	go	0.412	Go_X	1.0
1053.43	1.0	go	0.427	Go_O	1.0
1055.955	1.0	go	0.35	Go_X	1.0
1058.479	0.1	stopsuccess	0.0	Go_X	1.0
1061.003	1.0	go	0.274	Go_O	1.0
1063.527	1.0	go	0.661	Go_X	1.0
1066.051	0.15	stopsuccess	0.0	Go_O	1.0
1068.575	0.2	stopsuccess	0.0	Go_X	1.0
1071.1	1.0	go	0.391	Go_O	1.0
1073.624	1.0	go	0.467	Go_X	1.0
1076.148	1.0	go	0.347	Go_O	1.0
1078.672	1.0	go	0.507	Go_X	1.0
1081.196	0.25	stopfail	0.392	Go_O	0.0
1083.72	1.0	go	0.351	Go_O	0.0
