onset	duration	trial_type	response_time	stim_file	accuracy
55.421	1.0	go	0.751	Go_O	1.0
57.954	1.0	go	0.507	Go_X	1.0
60.487	1.0	go	0.859	Go_X	0.0
63.021	1.0	go	0.696	Go_O	1.0
65.57	1.0	go	0.674	Go_O	1.0
68.104	1.0	go	0.892	Go_X	1.0
70.637	0.25	stopsuccess	0.0	Go_O	1.0
73.17	1.0	go	0.637	Go_X	1.0
75.704	0.3	stopsuccess	0.0	Go_X	1.0
78.253	1.0	go	0.837	Go_O	1.0
80.787	1.0	go	0.943	Go_X	1.0
83.32	1.0	go	0.875	Go_O	1.0
85.853	0.35	stopsuccess	0.0	Go_O	1.0
88.386	1.0	go	0.679	Go_X	1.0
90.92	1.0	go	0.0	Go_O	0.0
93.453	0.4	stopfail	0.53	Go_X	0.0
95.986	0.35	stopsuccess	0.0	Go_O	1.0
98.52	1.0	go	0.854	Go_X	1.0
101.069	1.0	go	0.805	Go_O	1.0
103.603	0.4	stopsuccess	0.0	Go_X	1.0
106.136	1.0	go	0.712	Go_O	1.0
108.669	1.0	go	0.0	Go_X	0.0
111.203	0.45	stopsuccess	0.0	Go_O	1.0
113.752	1.0	go	0.704	Go_X	1.0
116.286	1.0	go	0.645	Go_O	1.0
118.819	0.5	stopfail	0.683	Go_X	0.0
121.352	1.0	go	0.942	Go_O	1.0
123.886	1.0	go	0.815	Go_X	1.0
126.435	0.45	stopsuccess	0.0	Go_O	1.0
128.969	1.0	go	0.715	Go_O	1.0
131.502	1.0	go	0.864	Go_X	1.0
134.035	1.0	go	0.773	Go_X	1.0
136.568	1.0	go	0.597	Go_O	1.0
139.102	1.0	go	0.698	Go_O	1.0
141.635	0.5	stopfail	0.697	Go_X	0.0
144.168	1.0	go	0.912	Go_X	1.0
146.702	1.0	go	0.822	Go_X	1.0
149.235	1.0	go	0.927	Go_O	1.0
151.768	1.0	go	0.707	Go_X	1.0
154.301	1.0	go	0.0	Go_O	0.0
156.835	0.45	stopsuccess	0.0	Go_O	1.0
159.368	1.0	go	0.963	Go_O	1.0
161.901	1.0	go	0.876	Go_X	1.0
164.434	1.0	go	0.829	Go_O	1.0
166.968	1.0	go	0.0	Go_X	0.0
169.501	1.0	go	0.604	Go_O	1.0
172.034	1.0	go	0.613	Go_X	1.0
174.567	0.5	stopsuccess	0.0	Go_X	1.0
177.101	1.0	go	0.912	Go_O	1.0
179.634	1.0	go	0.984	Go_X	1.0
182.167	0.55	stopfail	0.544	Go_O	0.0
184.701	1.0	go	0.594	Go_O	1.0
187.25	0.5	stopfail	0.653	Go_X	0.0
189.784	0.45	stopsuccess	0.0	Go_O	1.0
192.317	1.0	go	0.959	Go_X	1.0
194.85	1.0	go	0.0	Go_X	0.0
197.383	1.0	go	0.687	Go_O	1.0
199.917	1.0	go	0.716	Go_X	1.0
202.45	0.5	stopfail	0.64	Go_X	0.0
204.983	1.0	go	0.939	Go_O	1.0
207.517	0.45	stopfail	0.591	Go_O	0.0
210.05	1.0	go	0.913	Go_X	1.0
212.583	1.0	go	0.618	Go_O	1.0
215.116	1.0	go	0.749	Go_O	1.0
217.65	1.0	go	0.703	Go_X	1.0
220.183	1.0	go	0.621	Go_O	1.0
222.716	1.0	go	0.642	Go_X	1.0
225.249	1.0	go	0.805	Go_O	1.0
227.783	1.0	go	0.584	Go_X	1.0
230.316	1.0	go	0.778	Go_O	1.0
232.849	0.4	stopfail	0.418	Go_X	0.0
235.382	1.0	go	0.818	Go_X	1.0
237.916	1.0	go	0.607	Go_O	1.0
240.449	1.0	go	0.936	Go_X	1.0
242.982	0.35	stopsuccess	0.0	Go_O	1.0
245.515	1.0	go	0.593	Go_X	0.0
248.049	1.0	go	0.995	Go_O	1.0
250.582	1.0	go	0.649	Go_O	1.0
253.115	1.0	go	0.477	Go_X	1.0
255.649	1.0	go	0.505	Go_X	1.0
258.182	1.0	go	0.376	Go_O	1.0
260.715	0.4	stopsuccess	0.0	Go_X	1.0
263.248	1.0	go	0.656	Go_O	1.0
265.782	1.0	go	0.697	Go_X	1.0
268.315	0.45	stopfail	0.607	Go_O	0.0
270.848	1.0	go	0.0	Go_O	0.0
273.381	1.0	go	0.62	Go_X	1.0
275.915	0.4	stopsuccess	0.0	Go_X	1.0
278.448	1.0	go	0.0	Go_O	0.0
280.981	0.45	stopfail	0.423	Go_O	0.0
283.514	1.0	go	0.567	Go_X	1.0
286.048	1.0	go	0.598	Go_X	1.0
288.581	1.0	go	0.636	Go_O	1.0
291.114	1.0	go	0.554	Go_O	1.0
293.648	1.0	go	0.762	Go_X	1.0
296.197	0.4	stopsuccess	0.0	Go_X	1.0
298.731	0.45	stopfail	0.578	Go_O	0.0
301.264	1.0	go	0.788	Go_O	1.0
303.797	1.0	go	0.612	Go_X	1.0
306.33	0.4	stopsuccess	0.0	Go_X	1.0
308.864	1.0	go	0.724	Go_X	1.0
311.397	1.0	go	0.0	Go_O	0.0
313.93	1.0	go	0.665	Go_X	1.0
316.464	1.0	go	0.0	Go_O	0.0
319.013	1.0	go	0.523	Go_X	1.0
321.547	1.0	go	0.662	Go_O	1.0
324.08	0.45	stopfail	0.599	Go_O	0.0
326.613	1.0	go	0.866	Go_X	1.0
329.147	1.0	go	0.688	Go_O	1.0
331.696	1.0	go	0.775	Go_X	1.0
334.23	1.0	go	0.479	Go_O	1.0
336.763	1.0	go	0.0	Go_O	0.0
339.296	0.4	stopfail	0.574	Go_X	0.0
341.83	1.0	go	0.73	Go_X	1.0
344.379	1.0	go	0.451	Go_X	1.0
346.913	1.0	go	0.624	Go_O	1.0
349.446	1.0	go	0.438	Go_O	1.0
351.979	0.35	stopsuccess	0.0	Go_O	1.0
354.512	1.0	go	0.874	Go_X	1.0
357.046	1.0	go	0.445	Go_X	1.0
359.579	0.4	stopsuccess	0.0	Go_X	1.0
362.112	1.0	go	0.537	Go_O	1.0
364.646	0.45	stopfail	0.526	Go_O	0.0
367.179	1.0	go	0.47	Go_O	1.0
369.712	1.0	go	0.787	Go_X	1.0
372.245	1.0	go	0.491	Go_O	1.0
374.779	1.0	go	0.793	Go_X	1.0
377.312	1.0	go	0.75	Go_X	1.0
379.845	1.0	go	0.853	Go_O	1.0
382.378	1.0	go	0.801	Go_O	1.0
384.912	0.4	stopsuccess	0.0	Go_X	1.0
387.445	1.0	go	0.854	Go_X	1.0
389.978	1.0	go	0.73	Go_O	1.0
392.511	1.0	go	0.562	Go_X	1.0
395.045	0.45	stopsuccess	0.0	Go_O	1.0
397.578	1.0	go	0.0	Go_O	0.0
400.111	1.0	go	0.556	Go_X	1.0
402.644	1.0	go	0.822	Go_O	1.0
405.178	1.0	go	0.43	Go_X	1.0
407.711	0.5	stopfail	0.442	Go_X	0.0
410.244	1.0	go	0.457	Go_O	1.0
412.778	1.0	go	0.638	Go_X	1.0
415.311	0.45	stopfail	0.639	Go_O	0.0
417.844	1.0	go	0.744	Go_O	1.0
420.377	1.0	go	0.631	Go_X	1.0
422.911	0.4	stopfail	0.571	Go_X	0.0
425.444	1.0	go	0.0	Go_X	0.0
427.977	1.0	go	0.659	Go_O	1.0
430.51	0.35	stopsuccess	0.0	Go_O	1.0
433.044	1.0	go	0.512	Go_X	1.0
435.577	1.0	go	0.958	Go_O	1.0
438.11	1.0	go	0.674	Go_O	1.0
440.643	1.0	go	0.549	Go_X	1.0
443.177	1.0	go	0.868	Go_X	1.0
445.71	1.0	go	0.583	Go_O	1.0
448.243	0.4	stopsuccess	0.0	Go_X	1.0
450.777	1.0	go	0.615	Go_X	1.0
453.326	0.45	stopsuccess	0.0	Go_O	1.0
455.86	1.0	go	0.705	Go_O	1.0
458.393	1.0	go	0.829	Go_X	1.0
460.926	1.0	go	0.0	Go_O	0.0
463.459	1.0	go	0.485	Go_O	1.0
465.993	1.0	go	0.544	Go_X	1.0
468.526	0.5	stopfail	0.665	Go_X	0.0
471.059	1.0	go	0.933	Go_O	1.0
473.593	1.0	go	0.834	Go_X	1.0
476.126	1.0	go	0.98	Go_O	1.0
478.659	0.45	stopsuccess	0.0	Go_O	1.0
481.192	0.5	stopfail	0.572	Go_X	0.0
483.726	0.45	stopsuccess	0.0	Go_O	1.0
486.259	1.0	go	0.747	Go_X	1.0
488.792	0.5	stopfail	0.754	Go_X	0.0
491.325	1.0	go	0.646	Go_O	1.0
493.859	1.0	go	0.0	Go_X	0.0
496.392	1.0	go	0.513	Go_X	1.0
498.925	1.0	go	0.498	Go_O	0.0
501.458	1.0	go	0.512	Go_X	0.0
503.992	1.0	go	0.631	Go_O	1.0
506.525	1.0	go	0.547	Go_O	1.0
509.058	1.0	go	0.547	Go_X	1.0
511.591	0.45	stopsuccess	0.0	Go_O	1.0
514.125	1.0	go	0.679	Go_O	1.0
516.658	1.0	go	0.526	Go_X	1.0
519.191	0.5	stopfail	0.66	Go_X	0.0
521.725	1.0	go	0.657	Go_X	1.0
524.258	1.0	go	0.524	Go_O	1.0
526.791	1.0	go	0.519	Go_X	1.0
529.324	1.0	go	0.809	Go_O	1.0
531.858	1.0	go	0.686	Go_X	1.0
534.391	0.45	stopfail	0.398	Go_O	0.0
536.924	1.0	go	0.625	Go_O	1.0
539.457	1.0	go	0.491	Go_X	1.0
541.991	1.0	go	0.512	Go_O	1.0
544.524	0.4	stopfail	0.503	Go_X	0.0
547.057	1.0	go	0.939	Go_X	1.0
549.59	0.35	stopsuccess	0.0	Go_O	1.0
552.124	1.0	go	0.669	Go_O	1.0
554.657	1.0	go	0.771	Go_O	1.0
557.19	1.0	go	0.936	Go_X	1.0
559.723	1.0	go	0.0	Go_X	0.0
562.257	1.0	go	0.0	Go_O	0.0
564.79	1.0	go	0.58	Go_X	1.0
567.323	1.0	go	0.648	Go_O	1.0
569.857	0.4	stopfail	0.52	Go_X	0.0
572.39	1.0	go	0.608	Go_O	1.0
574.923	1.0	go	0.656	Go_X	1.0
577.456	1.0	go	0.0	Go_O	0.0
579.99	1.0	go	0.805	Go_X	1.0
582.523	0.35	stopsuccess	0.0	Go_O	1.0
585.056	1.0	go	0.0	Go_X	0.0
587.589	0.4	stopfail	0.584	Go_X	0.0
590.123	1.0	go	0.678	Go_O	1.0
592.656	1.0	go	0.0	Go_X	0.0
595.189	0.35	stopsuccess	0.0	Go_O	1.0
597.722	1.0	go	0.859	Go_O	1.0
600.256	1.0	go	0.901	Go_O	1.0
602.789	1.0	go	0.0	Go_X	0.0
605.322	1.0	go	0.0	Go_X	0.0
607.856	1.0	go	0.998	Go_O	1.0
610.405	1.0	go	0.797	Go_X	1.0
612.939	1.0	go	0.782	Go_O	1.0
615.472	1.0	go	0.488	Go_O	1.0
618.005	1.0	go	0.555	Go_X	1.0
620.538	1.0	go	0.621	Go_O	1.0
623.072	0.4	stopsuccess	0.0	Go_X	1.0
625.605	1.0	go	0.84	Go_X	1.0
628.138	1.0	go	0.513	Go_O	1.0
630.672	0.45	stopsuccess	0.0	Go_O	1.0
633.205	1.0	go	0.556	Go_X	1.0
635.738	0.5	stopfail	0.64	Go_X	0.0
638.271	1.0	go	0.537	Go_X	1.0
640.805	1.0	go	0.626	Go_O	1.0
643.338	0.45	stopfail	0.578	Go_O	0.0
645.871	1.0	go	0.561	Go_O	1.0
648.404	0.4	stopsuccess	0.0	Go_X	1.0
650.938	1.0	go	0.648	Go_X	1.0
653.471	1.0	go	0.705	Go_O	1.0
656.004	1.0	go	0.509	Go_X	1.0
658.537	0.45	stopsuccess	0.0	Go_O	1.0
661.071	1.0	go	0.408	Go_O	1.0
663.604	1.0	go	0.395	Go_X	1.0
666.137	1.0	go	0.625	Go_X	1.0
668.67	1.0	go	0.655	Go_O	1.0
671.204	0.5	stopfail	0.694	Go_X	0.0
673.737	1.0	go	0.846	Go_O	1.0
676.27	1.0	go	0.0	Go_X	0.0
678.804	0.45	stopfail	0.659	Go_O	0.0
681.337	1.0	go	0.937	Go_O	1.0
683.87	1.0	go	0.618	Go_X	1.0
686.403	1.0	go	0.869	Go_O	1.0
688.937	1.0	go	0.757	Go_X	1.0
691.47	0.4	stopsuccess	0.0	Go_X	1.0
694.003	1.0	go	0.554	Go_O	1.0
696.536	0.45	stopsuccess	0.0	Go_O	1.0
699.07	1.0	go	0.767	Go_X	1.0
701.603	1.0	go	0.987	Go_X	1.0
704.136	0.5	stopfail	0.772	Go_X	0.0
706.669	1.0	go	0.0	Go_O	0.0
709.203	1.0	go	0.632	Go_O	1.0
711.736	1.0	go	0.55	Go_X	1.0
714.269	1.0	go	0.704	Go_X	1.0
716.803	0.45	stopfail	0.72	Go_O	0.0
719.352	1.0	go	0.775	Go_O	1.0
721.886	0.4	stopfail	0.755	Go_X	0.0
724.419	1.0	go	0.831	Go_O	1.0
726.952	1.0	go	0.79	Go_X	1.0
729.486	1.0	go	0.556	Go_X	1.0
732.035	1.0	go	0.98	Go_O	1.0
734.569	1.0	go	0.601	Go_X	1.0
737.102	1.0	go	0.735	Go_O	1.0
739.635	0.35	stopfail	0.58	Go_O	0.0
742.168	1.0	go	0.612	Go_X	0.0
744.702	1.0	go	0.583	Go_O	1.0
747.235	0.3	stopsuccess	0.0	Go_X	1.0
749.768	1.0	go	0.811	Go_O	1.0
752.302	1.0	go	0.613	Go_X	1.0
754.851	0.35	stopfail	0.684	Go_O	0.0
757.401	1.0	go	0.733	Go_X	1.0
759.935	1.0	go	0.67	Go_O	1.0
762.468	1.0	go	0.0	Go_O	0.0
765.001	1.0	go	0.676	Go_X	1.0
767.534	0.3	stopsuccess	0.0	Go_X	1.0
770.068	1.0	go	0.573	Go_X	1.0
772.601	0.35	stopsuccess	0.0	Go_O	1.0
775.134	1.0	go	0.566	Go_O	1.0
777.667	1.0	go	0.753	Go_O	1.0
780.201	1.0	go	0.742	Go_X	1.0
782.734	1.0	go	0.516	Go_X	1.0
785.267	1.0	go	0.635	Go_O	1.0
787.801	0.4	stopsuccess	0.0	Go_X	1.0
790.334	1.0	go	0.63	Go_O	1.0
792.867	1.0	go	0.0	Go_X	0.0
795.4	0.45	stopfail	0.61	Go_O	0.0
797.934	0.4	stopsuccess	0.0	Go_X	1.0
800.467	1.0	go	0.801	Go_X	1.0
803.0	1.0	go	0.723	Go_O	1.0
805.533	1.0	go	0.703	Go_X	0.0
808.067	1.0	go	0.0	Go_O	0.0
810.6	0.45	stopsuccess	0.0	Go_O	1.0
813.133	1.0	go	0.891	Go_O	1.0
