onset	duration	trial_type	response_time	stim_file	accuracy
33.525	1.0	go	0.591	Go_O	1.0
36.124	1.0	go	0.505	Go_X	1.0
38.658	1.0	go	0.77	Go_X	1.0
41.191	1.0	go	0.608	Go_O	1.0
43.724	1.0	go	0.705	Go_X	1.0
46.258	1.0	go	0.822	Go_O	1.0
48.791	0.25	stopsuccess	0.0	Go_O	1.0
51.324	1.0	go	0.353	Go_X	1.0
53.857	0.3	stopsuccess	0.0	Go_X	1.0
56.391	1.0	go	0.49	Go_O	1.0
58.924	1.0	go	0.6	Go_X	1.0
61.457	1.0	go	0.467	Go_O	1.0
63.991	0.35	stopsuccess	0.0	Go_O	1.0
66.524	1.0	go	0.486	Go_X	1.0
69.057	1.0	go	0.626	Go_O	1.0
71.59	0.4	stopsuccess	0.0	Go_X	1.0
74.124	0.45	stopfail	0.392	Go_O	0.0
76.657	1.0	go	0.36	Go_O	1.0
79.19	1.0	go	0.377	Go_X	1.0
81.724	0.4	stopsuccess	0.0	Go_X	1.0
84.257	1.0	go	0.345	Go_O	1.0
86.79	1.0	go	0.433	Go_X	1.0
89.323	0.45	stopfail	0.436	Go_O	0.0
91.873	1.0	go	0.355	Go_X	1.0
94.407	1.0	go	0.635	Go_O	1.0
96.94	0.4	stopsuccess	0.0	Go_X	1.0
99.473	1.0	go	0.648	Go_O	1.0
102.007	1.0	go	0.564	Go_X	1.0
104.54	0.45	stopsuccess	0.0	Go_O	1.0
107.073	1.0	go	0.536	Go_O	1.0
109.606	1.0	go	0.656	Go_X	1.0
112.14	1.0	go	0.591	Go_O	1.0
114.673	1.0	go	0.531	Go_X	1.0
117.206	1.0	go	0.59	Go_O	1.0
119.74	0.5	stopfail	0.626	Go_X	0.0
122.273	1.0	go	0.522	Go_X	1.0
124.806	1.0	go	0.516	Go_O	1.0
127.339	1.0	go	0.678	Go_X	1.0
129.873	1.0	go	0.829	Go_X	1.0
132.406	1.0	go	0.587	Go_O	1.0
134.939	0.45	stopsuccess	0.0	Go_O	1.0
137.473	1.0	go	0.477	Go_X	1.0
140.006	1.0	go	0.403	Go_O	1.0
142.539	1.0	go	0.43	Go_X	1.0
145.072	1.0	go	0.673	Go_O	1.0
147.606	1.0	go	0.563	Go_O	1.0
150.139	1.0	go	0.537	Go_X	1.0
152.672	0.5	stopfail	0.612	Go_X	0.0
155.206	1.0	go	0.562	Go_X	1.0
157.755	1.0	go	0.574	Go_O	1.0
160.289	0.45	stopfail	0.459	Go_O	0.0
162.822	1.0	go	0.445	Go_O	1.0
165.355	0.4	stopsuccess	0.0	Go_X	1.0
167.889	0.45	stopsuccess	0.0	Go_O	1.0
170.422	1.0	go	0.742	Go_X	1.0
172.955	1.0	go	0.727	Go_X	1.0
175.488	1.0	go	0.888	Go_O	1.0
178.022	1.0	go	0.609	Go_O	1.0
180.555	0.5	stopfail	0.562	Go_X	0.0
183.088	1.0	go	0.925	Go_X	1.0
185.622	0.45	stopfail	0.437	Go_O	0.0
188.155	1.0	go	0.529	Go_X	1.0
190.688	1.0	go	0.602	Go_O	1.0
193.221	1.0	go	0.768	Go_X	1.0
195.755	1.0	go	0.662	Go_O	1.0
198.288	1.0	go	0.826	Go_X	1.0
200.821	1.0	go	0.578	Go_O	1.0
203.355	1.0	go	0.689	Go_O	1.0
205.888	1.0	go	0.66	Go_X	1.0
208.421	1.0	go	0.76	Go_X	1.0
210.955	0.4	stopsuccess	0.0	Go_X	1.0
213.504	1.0	go	0.476	Go_O	1.0
216.038	1.0	go	0.554	Go_X	1.0
218.571	1.0	go	0.734	Go_O	1.0
221.104	0.45	stopfail	0.511	Go_O	0.0
223.638	1.0	go	0.499	Go_X	1.0
226.171	1.0	go	0.512	Go_O	1.0
228.704	1.0	go	0.533	Go_O	1.0
231.237	1.0	go	0.668	Go_X	1.0
233.771	1.0	go	0.441	Go_X	1.0
236.304	1.0	go	0.759	Go_O	1.0
238.837	0.4	stopsuccess	0.0	Go_X	1.0
241.371	1.0	go	0.46	Go_X	1.0
243.904	1.0	go	0.721	Go_O	1.0
246.437	0.45	stopsuccess	0.0	Go_O	1.0
248.97	1.0	go	0.533	Go_O	1.0
251.504	1.0	go	0.566	Go_X	1.0
254.037	0.5	stopfail	0.521	Go_X	0.0
256.57	1.0	go	0.529	Go_X	1.0
259.104	0.45	stopfail	0.521	Go_O	0.0
261.637	1.0	go	0.446	Go_O	1.0
264.17	1.0	go	0.645	Go_X	1.0
266.703	1.0	go	0.584	Go_O	1.0
269.237	1.0	go	0.618	Go_O	1.0
271.77	1.0	go	0.492	Go_X	1.0
274.303	0.4	stopsuccess	0.0	Go_X	1.0
276.837	0.45	stopfail	0.539	Go_O	0.0
279.37	1.0	go	0.777	Go_O	1.0
281.903	1.0	go	0.363	Go_X	1.0
284.436	0.4	stopsuccess	0.0	Go_X	1.0
286.97	1.0	go	0.732	Go_O	1.0
289.503	1.0	go	0.751	Go_X	1.0
292.036	1.0	go	0.784	Go_O	1.0
294.57	1.0	go	0.785	Go_X	1.0
297.103	1.0	go	0.777	Go_O	1.0
299.636	1.0	go	0.517	Go_X	1.0
302.169	0.45	stopfail	0.484	Go_O	0.0
304.703	1.0	go	0.484	Go_X	1.0
307.236	1.0	go	0.681	Go_O	1.0
309.769	1.0	go	0.0	Go_O	0.0
312.303	1.0	go	0.455	Go_X	1.0
314.836	1.0	go	0.459	Go_O	1.0
317.369	0.4	stopsuccess	0.0	Go_X	1.0
319.902	1.0	go	0.5	Go_X	1.0
322.436	1.0	go	0.489	Go_X	1.0
324.969	1.0	go	0.472	Go_O	1.0
327.502	1.0	go	0.462	Go_X	1.0
330.036	0.45	stopfail	0.41	Go_O	0.0
332.569	1.0	go	0.484	Go_O	1.0
335.102	1.0	go	0.429	Go_X	1.0
337.635	0.4	stopfail	0.502	Go_X	0.0
340.169	1.0	go	0.488	Go_O	1.0
342.702	0.35	stopsuccess	0.0	Go_O	1.0
345.235	1.0	go	0.661	Go_X	1.0
347.769	1.0	go	0.859	Go_O	1.0
350.302	1.0	go	0.0	Go_O	0.0
352.835	1.0	go	0.659	Go_X	1.0
355.368	1.0	go	0.681	Go_X	1.0
357.902	1.0	go	0.599	Go_O	1.0
360.435	1.0	go	0.488	Go_O	1.0
362.968	0.4	stopfail	0.389	Go_X	0.0
365.502	1.0	go	0.544	Go_X	1.0
368.035	1.0	go	0.59	Go_O	1.0
370.568	1.0	go	0.575	Go_X	1.0
373.101	0.35	stopsuccess	0.0	Go_O	1.0
375.635	1.0	go	0.473	Go_X	1.0
378.168	1.0	go	0.581	Go_O	1.0
380.701	1.0	go	0.686	Go_O	1.0
383.235	1.0	go	0.516	Go_X	1.0
385.768	0.4	stopfail	0.395	Go_X	0.0
388.301	1.0	go	0.602	Go_O	1.0
390.834	1.0	go	0.757	Go_X	1.0
393.368	0.35	stopsuccess	0.0	Go_O	1.0
395.901	1.0	go	0.744	Go_X	1.0
398.434	1.0	go	0.828	Go_O	1.0
400.968	0.4	stopfail	0.498	Go_X	0.0
403.501	1.0	go	0.467	Go_X	1.0
406.034	1.0	go	0.585	Go_O	1.0
408.567	0.35	stopsuccess	0.0	Go_O	1.0
411.101	1.0	go	0.495	Go_O	1.0
413.634	1.0	go	0.445	Go_X	1.0
416.167	1.0	go	0.399	Go_X	1.0
418.701	1.0	go	0.3	Go_O	1.0
421.25	1.0	go	0.954	Go_O	1.0
423.784	1.0	go	0.444	Go_X	1.0
426.317	0.4	stopfail	0.526	Go_X	0.0
428.85	1.0	go	0.55	Go_X	1.0
431.384	0.35	stopfail	0.395	Go_O	0.0
433.917	1.0	go	0.563	Go_O	1.0
436.45	1.0	go	0.627	Go_O	1.0
438.983	1.0	go	0.68	Go_X	1.0
441.517	1.0	go	0.832	Go_O	1.0
444.05	1.0	go	0.618	Go_X	1.0
446.583	0.3	stopsuccess	0.0	Go_X	1.0
449.117	1.0	go	0.545	Go_O	1.0
451.65	1.0	go	0.635	Go_X	1.0
454.183	1.0	go	0.48	Go_O	1.0
456.716	0.35	stopsuccess	0.0	Go_O	1.0
459.25	0.4	stopfail	0.435	Go_X	0.0
461.783	0.35	stopsuccess	0.0	Go_O	1.0
464.316	1.0	go	0.778	Go_X	1.0
466.85	0.4	stopfail	0.495	Go_X	0.0
469.383	1.0	go	0.699	Go_O	1.0
471.916	1.0	go	0.724	Go_X	1.0
474.449	1.0	go	0.588	Go_X	1.0
476.983	1.0	go	0.681	Go_O	1.0
479.516	1.0	go	0.788	Go_O	1.0
482.049	1.0	go	0.551	Go_X	1.0
484.583	1.0	go	0.501	Go_X	1.0
487.116	1.0	go	0.539	Go_O	1.0
489.649	0.35	stopsuccess	0.0	Go_O	1.0
492.182	1.0	go	0.682	Go_O	1.0
494.716	1.0	go	0.473	Go_X	1.0
497.249	0.4	stopsuccess	0.0	Go_X	1.0
499.782	1.0	go	0.527	Go_O	1.0
502.316	1.0	go	0.377	Go_X	1.0
504.849	1.0	go	0.576	Go_O	1.0
507.382	1.0	go	0.494	Go_X	1.0
509.915	1.0	go	0.463	Go_O	1.0
512.449	0.45	stopsuccess	0.0	Go_O	1.0
514.982	1.0	go	0.437	Go_X	1.0
517.515	1.0	go	0.65	Go_O	1.0
520.049	1.0	go	0.521	Go_X	1.0
522.582	0.5	stopfail	0.532	Go_X	0.0
525.115	1.0	go	0.402	Go_O	1.0
527.648	0.45	stopfail	0.482	Go_O	0.0
530.182	1.0	go	0.421	Go_X	1.0
532.715	1.0	go	0.736	Go_X	1.0
535.248	1.0	go	0.947	Go_O	1.0
537.782	1.0	go	0.506	Go_O	1.0
540.315	1.0	go	0.374	Go_X	1.0
542.848	1.0	go	0.474	Go_X	1.0
545.381	1.0	go	0.848	Go_O	1.0
547.915	0.4	stopfail	0.455	Go_X	0.0
550.448	1.0	go	0.651	Go_X	1.0
552.981	1.0	go	0.57	Go_O	1.0
555.515	1.0	go	0.63	Go_O	1.0
558.048	1.0	go	0.586	Go_X	1.0
560.581	0.35	stopsuccess	0.0	Go_O	1.0
563.114	1.0	go	0.649	Go_O	1.0
565.648	0.4	stopfail	0.476	Go_X	0.0
568.181	1.0	go	0.527	Go_X	1.0
570.714	1.0	go	0.64	Go_X	1.0
573.248	0.35	stopsuccess	0.0	Go_O	1.0
575.781	1.0	go	0.806	Go_O	1.0
578.314	1.0	go	0.728	Go_X	1.0
580.847	1.0	go	0.821	Go_O	1.0
583.381	1.0	go	0.959	Go_X	1.0
585.914	1.0	go	0.973	Go_O	1.0
588.447	1.0	go	0.581	Go_O	1.0
590.981	1.0	go	0.923	Go_X	1.0
593.514	1.0	go	0.92	Go_O	1.0
596.047	1.0	go	0.926	Go_X	1.0
598.58	1.0	go	0.777	Go_O	1.0
601.114	0.4	stopsuccess	0.0	Go_X	1.0
603.647	1.0	go	0.764	Go_X	1.0
606.18	1.0	go	0.927	Go_X	1.0
608.714	0.45	stopsuccess	0.0	Go_O	1.0
611.247	1.0	go	0.943	Go_O	1.0
613.78	0.5	stopfail	0.617	Go_X	0.0
616.313	1.0	go	0.596	Go_X	1.0
618.847	1.0	go	0.625	Go_O	1.0
621.38	0.45	stopfail	0.506	Go_O	0.0
623.913	1.0	go	0.522	Go_O	1.0
626.447	0.4	stopfail	0.425	Go_X	0.0
628.98	1.0	go	0.593	Go_X	1.0
631.513	1.0	go	0.799	Go_X	1.0
634.046	1.0	go	0.763	Go_O	1.0
636.58	0.35	stopsuccess	0.0	Go_O	1.0
639.113	1.0	go	0.598	Go_O	1.0
641.646	1.0	go	0.773	Go_X	1.0
644.18	1.0	go	0.339	Go_X	1.0
646.713	1.0	go	0.52	Go_O	1.0
649.246	0.4	stopfail	0.554	Go_X	0.0
651.779	1.0	go	0.614	Go_X	1.0
654.313	1.0	go	0.482	Go_O	1.0
656.846	0.35	stopfail	0.411	Go_O	0.0
659.379	1.0	go	0.393	Go_O	1.0
661.913	1.0	go	0.45	Go_X	1.0
664.446	1.0	go	0.428	Go_O	1.0
666.979	1.0	go	0.369	Go_X	1.0
669.512	0.3	stopfail	0.409	Go_X	0.0
672.046	1.0	go	0.377	Go_X	1.0
674.579	0.25	stopfail	0.38	Go_O	0.0
677.112	1.0	go	0.406	Go_O	1.0
679.646	1.0	go	0.582	Go_O	1.0
682.179	0.2	stopsuccess	0.0	Go_X	1.0
684.712	1.0	go	0.456	Go_X	1.0
687.245	1.0	go	0.482	Go_X	1.0
689.779	1.0	go	0.504	Go_O	1.0
692.312	1.0	go	0.454	Go_O	1.0
694.845	0.25	stopsuccess	0.0	Go_O	1.0
697.379	1.0	go	0.605	Go_X	1.0
699.912	0.3	stopfail	0.437	Go_X	0.0
702.445	1.0	go	0.536	Go_O	1.0
704.978	1.0	go	0.531	Go_X	1.0
707.512	1.0	go	0.637	Go_O	1.0
710.045	1.0	go	0.726	Go_X	1.0
712.578	1.0	go	0.502	Go_X	1.0
715.112	1.0	go	0.787	Go_O	1.0
717.645	0.25	stopsuccess	0.0	Go_O	1.0
720.178	1.0	go	0.452	Go_O	1.0
722.711	1.0	go	0.467	Go_X	1.0
725.245	0.3	stopsuccess	0.0	Go_X	1.0
727.778	1.0	go	0.705	Go_O	1.0
730.311	1.0	go	0.493	Go_X	1.0
732.845	0.35	stopfail	0.436	Go_O	0.0
735.378	1.0	go	0.446	Go_O	1.0
737.911	1.0	go	0.498	Go_X	1.0
740.444	1.0	go	0.5	Go_O	1.0
742.978	1.0	go	0.517	Go_X	1.0
745.511	0.3	stopsuccess	0.0	Go_X	1.0
748.044	1.0	go	0.62	Go_O	1.0
750.578	0.35	stopsuccess	0.0	Go_O	1.0
753.111	1.0	go	0.526	Go_X	1.0
755.644	1.0	go	0.659	Go_X	1.0
758.177	1.0	go	0.567	Go_O	1.0
760.711	1.0	go	0.414	Go_O	1.0
763.244	1.0	go	0.444	Go_X	1.0
765.777	0.4	stopfail	0.432	Go_X	0.0
768.311	1.0	go	0.559	Go_O	1.0
770.844	1.0	go	0.58	Go_X	1.0
773.377	0.35	stopfail	0.463	Go_O	0.0
775.91	0.3	stopsuccess	0.0	Go_X	1.0
778.444	1.0	go	0.639	Go_X	1.0
780.977	1.0	go	0.509	Go_O	1.0
783.51	1.0	go	0.529	Go_O	1.0
786.044	1.0	go	0.708	Go_X	1.0
788.577	0.35	stopsuccess	0.0	Go_O	1.0
791.11	1.0	go	0.724	Go_O	1.0
