onset	duration	trial_type	response_time	stim_file	accuracy
202.269	1.0	go	0.763	Go_X	1.0
204.793	1.0	go	0.342	Go_O	1.0
207.334	1.0	go	0.37	Go_O	1.0
209.874	1.0	go	0.651	Go_X	1.0
212.415	1.0	go	0.31	Go_O	1.0
214.94	1.0	go	0.361	Go_X	1.0
217.464	0.25	stopfail	0.211	Go_O	0.0
219.988	1.0	go	0.277	Go_X	1.0
222.512	0.2	stopfail	0.348	Go_X	0.0
225.036	1.0	go	0.308	Go_O	1.0
227.56	1.0	go	0.264	Go_X	1.0
230.101	1.0	go	0.295	Go_O	1.0
232.626	0.15	stopfail	0.347	Go_O	0.0
235.166	1.0	go	0.268	Go_O	1.0
237.691	1.0	go	0.296	Go_X	1.0
240.215	0.1	stopsuccess	0.0	Go_X	1.0
242.739	0.15	stopfail	0.271	Go_O	0.0
245.263	1.0	go	0.392	Go_O	1.0
247.787	1.0	go	0.399	Go_X	1.0
250.312	0.1	stopsuccess	0.0	Go_X	1.0
252.836	1.0	go	0.134	Go_O	1.0
255.36	1.0	go	0.288	Go_X	1.0
257.884	0.15	stopfail	0.207	Go_O	0.0
260.408	1.0	go	0.466	Go_O	1.0
262.932	1.0	go	0.242	Go_X	1.0
265.457	0.1	stopfail	0.145	Go_X	0.0
267.981	1.0	go	0.336	Go_X	1.0
270.505	1.0	go	0.275	Go_O	1.0
273.029	0.05	stopsuccess	0.0	Go_O	1.0
275.553	1.0	go	0.281	Go_X	1.0
278.078	1.0	go	0.286	Go_O	1.0
280.619	1.0	go	0.345	Go_O	1.0
283.143	1.0	go	0.185	Go_X	1.0
285.667	1.0	go	0.49	Go_X	1.0
288.191	0.1	stopfail	0.22	Go_X	0.0
290.715	1.0	go	0.214	Go_O	1.0
293.239	1.0	go	0.164	Go_O	0.0
295.764	1.0	go	0.33	Go_X	1.0
298.288	1.0	go	0.318	Go_O	1.0
300.812	1.0	go	0.299	Go_X	1.0
303.336	0.05	stopsuccess	0.0	Go_O	1.0
305.86	1.0	go	0.32	Go_X	1.0
308.385	1.0	go	0.291	Go_O	1.0
310.909	1.0	go	0.232	Go_X	1.0
313.433	1.0	go	0.367	Go_O	1.0
315.974	1.0	go	0.318	Go_X	1.0
318.515	1.0	go	0.379	Go_O	1.0
321.039	0.1	stopsuccess	0.0	Go_X	1.0
323.563	1.0	go	0.417	Go_O	1.0
326.087	1.0	go	0.273	Go_X	1.0
328.611	0.15	stopfail	0.322	Go_O	0.0
331.136	1.0	go	0.314	Go_O	1.0
333.66	0.1	stopsuccess	0.0	Go_X	1.0
336.184	0.15	stopsuccess	0.0	Go_O	1.0
338.708	1.0	go	0.313	Go_X	1.0
341.232	1.0	go	0.201	Go_O	1.0
343.757	1.0	go	0.353	Go_X	1.0
346.281	1.0	go	0.342	Go_X	1.0
348.805	0.2	stopfail	0.317	Go_X	0.0
351.329	1.0	go	0.234	Go_O	1.0
353.853	0.15	stopfail	0.323	Go_O	0.0
356.377	1.0	go	0.29	Go_O	1.0
358.902	1.0	go	0.288	Go_X	1.0
361.426	1.0	go	0.33	Go_X	1.0
363.95	1.0	go	0.25	Go_O	1.0
366.474	1.0	go	0.292	Go_X	1.0
368.998	1.0	go	0.277	Go_O	1.0
371.523	1.0	go	0.249	Go_X	1.0
374.047	1.0	go	0.294	Go_O	1.0
376.571	1.0	go	0.311	Go_X	0.0
379.095	0.1	stopsuccess	0.0	Go_X	1.0
381.619	1.0	go	0.377	Go_O	1.0
384.143	1.0	go	0.324	Go_O	1.0
386.668	1.0	go	0.255	Go_X	1.0
389.192	0.15	stopsuccess	0.0	Go_O	1.0
391.716	1.0	go	0.35	Go_O	1.0
394.24	1.0	go	0.355	Go_X	1.0
396.764	1.0	go	0.48	Go_O	1.0
399.289	1.0	go	0.289	Go_X	1.0
401.813	1.0	go	0.352	Go_X	1.0
404.337	1.0	go	0.284	Go_O	1.0
406.861	0.2	stopfail	0.216	Go_X	0.0
409.402	1.0	go	0.319	Go_X	1.0
411.926	1.0	go	0.256	Go_O	1.0
414.45	0.15	stopsuccess	0.0	Go_O	1.0
416.974	1.0	go	0.29	Go_O	1.0
419.499	1.0	go	0.507	Go_X	1.0
422.023	0.2	stopfail	0.29	Go_X	0.0
424.547	1.0	go	0.379	Go_O	1.0
427.071	0.15	stopfail	0.353	Go_O	0.0
429.612	1.0	go	0.332	Go_X	1.0
432.136	1.0	go	0.74	Go_X	1.0
434.66	1.0	go	0.332	Go_O	1.0
437.201	1.0	go	0.373	Go_O	1.0
439.726	1.0	go	0.33	Go_X	1.0
442.25	0.1	stopfail	0.385	Go_X	0.0
444.774	0.05	stopsuccess	0.0	Go_O	1.0
447.298	1.0	go	0.313	Go_X	1.0
449.822	1.0	go	0.31	Go_O	1.0
452.347	0.1	stopsuccess	0.0	Go_X	1.0
454.887	1.0	go	0.338	Go_X	1.0
457.412	1.0	go	0.432	Go_O	1.0
459.936	1.0	go	0.317	Go_X	1.0
462.46	1.0	go	0.347	Go_O	1.0
464.984	1.0	go	0.325	Go_O	1.0
467.508	1.0	go	0.283	Go_X	1.0
470.033	0.15	stopfail	0.354	Go_O	0.0
472.557	1.0	go	0.299	Go_O	1.0
475.081	1.0	go	0.254	Go_X	1.0
477.622	1.0	go	0.331	Go_O	1.0
480.146	1.0	go	0.352	Go_X	1.0
482.67	1.0	go	0.411	Go_O	1.0
485.194	0.1	stopsuccess	0.0	Go_X	1.0
487.719	1.0	go	0.372	Go_X	1.0
490.243	1.0	go	0.343	Go_X	1.0
492.767	1.0	go	0.344	Go_O	1.0
495.291	1.0	go	0.373	Go_O	1.0
497.815	0.15	stopfail	0.395	Go_O	0.0
500.339	1.0	go	0.308	Go_X	1.0
502.864	1.0	go	0.294	Go_X	1.0
505.388	0.1	stopsuccess	0.0	Go_X	1.0
507.912	1.0	go	0.372	Go_O	1.0
510.436	0.15	stopfail	0.301	Go_O	0.0
512.96	1.0	go	0.311	Go_O	1.0
515.484	1.0	go	0.256	Go_X	1.0
518.009	1.0	go	0.412	Go_X	1.0
520.533	1.0	go	0.414	Go_O	1.0
523.057	1.0	go	0.434	Go_X	1.0
525.581	1.0	go	0.483	Go_O	1.0
528.105	1.0	go	0.518	Go_O	1.0
530.63	0.1	stopsuccess	0.0	Go_X	1.0
533.154	1.0	go	0.51	Go_X	1.0
535.678	1.0	go	0.186	Go_X	0.0
538.202	1.0	go	0.399	Go_O	1.0
540.726	0.15	stopfail	0.216	Go_O	0.0
543.25	1.0	go	0.292	Go_X	1.0
545.775	1.0	go	0.376	Go_O	1.0
548.299	1.0	go	0.31	Go_X	1.0
550.823	1.0	go	0.361	Go_O	1.0
553.347	0.1	stopsuccess	0.0	Go_X	1.0
555.871	1.0	go	0.378	Go_O	1.0
558.396	1.0	go	0.336	Go_X	1.0
560.92	0.15	stopfail	0.338	Go_O	0.0
563.444	1.0	go	0.355	Go_X	1.0
565.968	1.0	go	0.345	Go_O	1.0
568.492	0.1	stopsuccess	0.0	Go_X	1.0
571.016	1.0	go	0.399	Go_X	1.0
573.541	1.0	go	0.345	Go_O	1.0
576.065	0.15	stopsuccess	0.0	Go_O	1.0
578.589	1.0	go	0.706	Go_O	1.0
581.113	1.0	go	0.274	Go_X	1.0
583.637	1.0	go	0.352	Go_O	1.0
586.162	1.0	go	0.328	Go_X	1.0
588.702	1.0	go	0.653	Go_X	1.0
591.227	1.0	go	0.326	Go_O	1.0
593.751	0.2	stopsuccess	0.0	Go_X	1.0
596.275	1.0	go	0.329	Go_O	1.0
598.799	0.25	stopfail	0.378	Go_O	0.0
601.323	1.0	go	0.314	Go_X	1.0
603.848	1.0	go	0.347	Go_X	1.0
606.372	1.0	go	0.348	Go_O	1.0
608.896	1.0	go	0.236	Go_O	1.0
611.42	1.0	go	0.295	Go_X	1.0
613.944	0.2	stopfail	0.354	Go_X	0.0
616.468	1.0	go	0.343	Go_X	1.0
618.993	1.0	go	0.22	Go_O	1.0
621.517	1.0	go	0.234	Go_X	1.0
624.041	0.15	stopfail	0.246	Go_O	0.0
626.565	0.1	stopfail	0.308	Go_X	0.0
629.089	0.05	stopsuccess	0.0	Go_O	1.0
631.614	1.0	go	0.303	Go_O	1.0
634.138	0.1	stopfail	0.208	Go_X	0.0
636.662	1.0	go	0.386	Go_X	1.0
639.186	1.0	go	0.293	Go_O	1.0
641.71	1.0	go	0.401	Go_O	1.0
644.235	1.0	go	0.218	Go_X	1.0
646.759	1.0	go	0.226	Go_O	1.0
649.283	1.0	go	0.452	Go_X	0.0
651.807	1.0	go	0.441	Go_X	1.0
654.331	1.0	go	0.56	Go_O	0.0
656.855	0.05	stopsuccess	0.0	Go_O	1.0
659.38	1.0	go	0.438	Go_X	1.0
661.904	1.0	go	0.345	Go_O	1.0
664.428	0.1	stopsuccess	0.0	Go_X	1.0
666.952	1.0	go	0.386	Go_X	1.0
669.476	1.0	go	0.335	Go_O	1.0
672.001	1.0	go	0.335	Go_X	1.0
674.525	1.0	go	0.342	Go_O	1.0
677.049	1.0	go	0.367	Go_X	1.0
679.573	0.15	stopsuccess	0.0	Go_O	1.0
682.097	1.0	go	0.461	Go_O	1.0
684.621	1.0	go	0.435	Go_X	1.0
687.146	1.0	go	0.312	Go_O	1.0
689.67	0.2	stopsuccess	0.0	Go_X	1.0
692.194	1.0	go	0.317	Go_O	1.0
694.718	0.25	stopfail	0.263	Go_O	0.0
697.242	1.0	go	0.37	Go_X	1.0
699.767	1.0	go	0.308	Go_O	1.0
702.291	1.0	go	0.427	Go_X	1.0
704.832	1.0	go	0.404	Go_O	1.0
707.372	1.0	go	0.279	Go_X	1.0
709.897	1.0	go	0.321	Go_O	1.0
712.438	1.0	go	0.278	Go_X	1.0
714.978	0.2	stopsuccess	0.0	Go_X	1.0
717.519	1.0	go	0.368	Go_O	1.0
720.044	1.0	go	0.299	Go_X	1.0
722.568	1.0	go	0.427	Go_O	1.0
725.109	1.0	go	0.507	Go_X	1.0
727.633	0.25	stopfail	0.344	Go_O	0.0
730.174	1.0	go	0.326	Go_X	1.0
732.698	0.2	stopfail	0.351	Go_X	0.0
735.239	1.0	go	0.436	Go_O	1.0
737.78	1.0	go	0.463	Go_O	1.0
740.304	0.15	stopsuccess	0.0	Go_O	1.0
742.828	1.0	go	0.39	Go_X	1.0
745.352	1.0	go	0.479	Go_O	1.0
747.876	1.0	go	0.276	Go_X	1.0
750.401	1.0	go	0.36	Go_X	1.0
752.942	1.0	go	0.294	Go_O	1.0
755.466	1.0	go	0.248	Go_X	1.0
757.99	1.0	go	0.439	Go_O	1.0
760.514	1.0	go	0.5	Go_O	1.0
763.038	1.0	go	0.316	Go_X	1.0
765.562	1.0	go	0.375	Go_X	1.0
768.087	0.2	stopfail	0.384	Go_X	0.0
770.611	1.0	go	0.32	Go_O	1.0
773.135	1.0	go	0.643	Go_O	1.0
775.659	0.15	stopfail	0.307	Go_O	0.0
778.183	1.0	go	0.302	Go_X	1.0
780.708	0.1	stopsuccess	0.0	Go_X	1.0
783.232	1.0	go	0.378	Go_X	1.0
785.756	1.0	go	0.409	Go_O	1.0
788.28	0.15	stopsuccess	0.0	Go_O	1.0
790.804	1.0	go	0.301	Go_X	1.0
793.328	0.2	stopsuccess	0.0	Go_X	1.0
795.853	1.0	go	0.426	Go_O	1.0
798.377	1.0	go	0.435	Go_X	1.0
800.918	1.0	go	0.421	Go_O	1.0
803.442	0.25	stopfail	0.755	Go_O	0.0
805.966	1.0	go	0.484	Go_X	1.0
808.49	1.0	go	0.464	Go_O	1.0
811.014	1.0	go	0.705	Go_X	1.0
813.539	1.0	go	0.322	Go_O	1.0
816.063	0.2	stopfail	0.454	Go_X	0.0
818.587	1.0	go	0.447	Go_X	1.0
821.111	1.0	go	0.8	Go_O	1.0
823.635	0.15	stopfail	0.416	Go_O	0.0
826.16	1.0	go	0.393	Go_O	1.0
828.684	1.0	go	0.391	Go_X	1.0
831.208	1.0	go	0.444	Go_X	1.0
833.732	1.0	go	0.968	Go_O	1.0
836.273	0.1	stopsuccess	0.0	Go_X	1.0
838.797	1.0	go	0.365	Go_X	1.0
841.338	0.15	stopsuccess	0.0	Go_O	1.0
843.862	1.0	go	0.477	Go_O	1.0
846.386	1.0	go	0.349	Go_O	1.0
848.911	0.2	stopfail	0.299	Go_X	0.0
851.452	1.0	go	0.251	Go_X	1.0
853.976	1.0	go	0.146	Go_O	1.0
856.5	1.0	go	0.037	Go_X	0.0
859.024	1.0	go	0.337	Go_X	1.0
861.548	0.15	stopfail	0.292	Go_O	0.0
864.072	1.0	go	0.318	Go_O	1.0
866.597	0.1	stopfail	0.349	Go_X	0.0
869.121	1.0	go	0.303	Go_O	1.0
871.662	1.0	go	0.255	Go_X	1.0
874.203	1.0	go	0.37	Go_O	1.0
876.743	1.0	go	0.33	Go_X	1.0
879.268	1.0	go	0.378	Go_O	1.0
881.792	1.0	go	0.472	Go_X	1.0
884.316	0.05	stopsuccess	0.0	Go_O	1.0
886.84	1.0	go	0.345	Go_O	1.0
889.364	1.0	go	0.362	Go_X	1.0
891.889	0.1	stopsuccess	0.0	Go_X	1.0
894.413	1.0	go	0.453	Go_O	1.0
896.937	1.0	go	0.372	Go_X	1.0
899.461	0.15	stopsuccess	0.0	Go_O	1.0
901.985	1.0	go	0.364	Go_O	1.0
904.509	1.0	go	0.352	Go_X	1.0
907.034	1.0	go	0.443	Go_X	1.0
909.558	1.0	go	0.333	Go_O	1.0
912.082	0.2	stopfail	0.378	Go_X	0.0
914.606	1.0	go	0.271	Go_O	1.0
917.13	0.15	stopsuccess	0.0	Go_O	1.0
919.655	1.0	go	0.53	Go_X	1.0
922.179	1.0	go	0.287	Go_O	1.0
924.703	1.0	go	0.353	Go_X	1.0
927.227	1.0	go	0.332	Go_O	1.0
929.751	1.0	go	0.326	Go_X	1.0
932.275	0.2	stopfail	0.229	Go_X	0.0
934.8	1.0	go	0.298	Go_X	1.0
937.341	1.0	go	0.244	Go_O	1.0
939.881	0.15	stopsuccess	0.0	Go_O	1.0
942.406	0.2	stopsuccess	0.0	Go_X	1.0
944.93	1.0	go	0.451	Go_X	1.0
947.454	1.0	go	0.273	Go_O	1.0
949.978	1.0	go	0.444	Go_X	1.0
952.502	1.0	go	0.328	Go_O	1.0
955.027	0.25	stopfail	0.371	Go_O	0.0
957.567	1.0	go	0.305	Go_O	1.0
