frame	onset	duration	trial_type	event_type	response_type	response_time	stim_file	accuracy
0	71.364		win-reward	ImageDisplay1		0.0		
0	73.587	0.75	win-reward	StartDisplay				
0	74.339		win-reward	ImageDisplay2		0.0		
0	77.348	1.6	win-reward	ChoiceDisplay	1	0.863	1	1
0	78.234	0.737	win-reward	ChosenDisplay		0.0		
0	78.953	0.25	win-reward	TurnDisplay				
0	79.204	0.75	win-reward	OutcomeDisplay				
1	79.956		win-noreward	ImageDisplay1		0.0		
1	82.196	0.75	win-noreward	StartDisplay				
1	82.948		win-noreward	ImageDisplay2		0.0		
1	85.957	1.6	win-noreward	ChoiceDisplay	1	0.894	1	1
1	86.877	0.706	win-noreward	ChosenDisplay		0.0		
1	87.562	0.25	win-noreward	TurnDisplay				
1	87.813	0.75	win-noreward	OutcomeDisplay				
2	88.565		control-reward	ImageDisplay1		0.0		
2	90.554	0.75	control-reward	StartDisplay				
2	91.307		control-reward	ImageDisplay2		0.0		
2	94.566	1.6	control-reward	ChoiceDisplay	1	0.758	1	1
2	95.352	0.842	control-reward	ChosenDisplay		0.0		
2	96.171	0.25	control-reward	TurnDisplay				
2	96.422	0.75	control-reward	OutcomeDisplay				
3	97.174		control-reward	ImageDisplay1		0.0		
3	99.163	0.75	control-reward	StartDisplay				
3	99.916		control-reward	ImageDisplay2		0.0		
3	103.175	1.6	control-reward	ChoiceDisplay	1	0.808	1	1
3	103.994	0.792	control-reward	ChosenDisplay		0.0		
3	104.78	0.25	control-reward	TurnDisplay				
3	105.031	0.75	control-reward	OutcomeDisplay				
4	105.783		win-reward	ImageDisplay1		0.0		
4	107.772	0.75	win-reward	StartDisplay				
4	108.525		win-reward	ImageDisplay2		0.0		
4	111.784	1.6	win-reward	ChoiceDisplay	1	0.962	1	1
4	112.771	0.638	win-reward	ChosenDisplay		0.0		
4	113.389	0.25	win-reward	TurnDisplay				
4	113.64	0.75	win-reward	OutcomeDisplay				
5	114.392		loss-reward	ImageDisplay1		0.0		
5	116.632	0.75	loss-reward	StartDisplay				
5	117.385		loss-reward	ImageDisplay2		0.0		
5	120.394	1.6	loss-reward	ChoiceDisplay	1	0.858	1	1
5	121.279	0.742	loss-reward	ChosenDisplay		0.0		
5	121.998	0.25	loss-reward	TurnDisplay				
5	122.249	0.75	loss-reward	OutcomeDisplay				
6	123.001		loss-noreward	ImageDisplay1		0.0		
6	125.241	0.75	loss-noreward	StartDisplay				
6	125.994		loss-noreward	ImageDisplay2		0.0		
6	129.003	1.6	loss-noreward	ChoiceDisplay	1	0.756	1	1
6	129.772	0.844	loss-noreward	ChosenDisplay		0.0		
6	130.607	0.25	loss-noreward	TurnDisplay				
6	130.858	0.75	loss-noreward	OutcomeDisplay				
7	131.61		loss-noreward	ImageDisplay1		0.0		
7	133.85	0.75	loss-noreward	StartDisplay				
7	134.603		loss-noreward	ImageDisplay2		0.0		
7	137.612	1.6	loss-noreward	ChoiceDisplay	1	0.893	1	1
7	138.531	0.707	loss-noreward	ChosenDisplay		0.0		
7	139.216	0.25	loss-noreward	TurnDisplay				
7	139.467	0.75	loss-noreward	OutcomeDisplay				
8	140.219		win-noreward	ImageDisplay1		0.0		
8	142.209	0.75	win-noreward	StartDisplay				
8	142.961		win-noreward	ImageDisplay2		0.0		
8	146.221	1.6	win-noreward	ChoiceDisplay	1	0.67	1	1
8	146.906	0.93	win-noreward	ChosenDisplay		0.0		
8	147.826	0.25	win-noreward	TurnDisplay				
8	148.076	0.75	win-noreward	OutcomeDisplay				
9	148.829		loss-reward	ImageDisplay1		0.0		
9	150.818	0.75	loss-reward	StartDisplay				
9	151.57		loss-reward	ImageDisplay2		0.0		
9	154.83	1.6	loss-reward	ChoiceDisplay	1	1.02	1	1
9	155.866	0.58	loss-reward	ChosenDisplay		0.0		
9	156.435	0.25	loss-reward	TurnDisplay				
9	156.685	0.75	loss-reward	OutcomeDisplay				
10	157.438		win-reward	ImageDisplay1		0.0		
10	159.427	0.75	win-reward	StartDisplay				
10	160.179		win-reward	ImageDisplay2		0.0		
10	163.439	1.6	win-reward	ChoiceDisplay	1	1.042	1	1
10	164.509	0.558	win-reward	ChosenDisplay		0.0		
10	165.044	0.25	win-reward	TurnDisplay				
10	165.294	0.75	win-reward	OutcomeDisplay				
11	166.047		loss-noreward	ImageDisplay1		0.0		
11	168.287	0.75	loss-noreward	StartDisplay				
11	169.039		loss-noreward	ImageDisplay2		0.0		
11	172.048	1.6	loss-noreward	ChoiceDisplay	1	1.105	1	1
11	173.168	0.495	loss-noreward	ChosenDisplay		0.0		
11	173.653	0.25	loss-noreward	TurnDisplay				
11	173.904	0.75	loss-noreward	OutcomeDisplay				
12	174.656		win-reward	ImageDisplay1		0.0		
12	176.645	0.75	win-reward	StartDisplay				
12	177.397		win-reward	ImageDisplay2		0.0		
12	180.657	1.6	win-reward	ChoiceDisplay	1	1.097	1	1
12	181.777	0.503	win-reward	ChosenDisplay		0.0		
12	182.262	0.25	win-reward	TurnDisplay				
12	182.513	0.75	win-reward	OutcomeDisplay				
13	183.265		loss-reward	ImageDisplay1		0.0		
13	185.505	0.75	loss-reward	StartDisplay				
13	186.257		loss-reward	ImageDisplay2		0.0		
13	189.266	1.6	loss-reward	ChoiceDisplay	1	1.143	1	1
13	190.436	0.457	loss-reward	ChosenDisplay		0.0		
13	190.871	0.25	loss-reward	TurnDisplay				
13	191.122	0.75	loss-reward	OutcomeDisplay				
14	191.874		control-noreward	ImageDisplay1		0.0		
14	194.114	0.75	control-noreward	StartDisplay				
14	194.866		control-noreward	ImageDisplay2		0.0		
14	197.875	1.6	control-noreward	ChoiceDisplay	1	1.167	1	1
14	199.062	0.433	control-noreward	ChosenDisplay		0.0		
14	199.48	0.25	control-noreward	TurnDisplay				
14	199.731	0.75	control-noreward	OutcomeDisplay				
15	200.483		loss-reward	ImageDisplay1		0.0		
15	202.723	0.75	loss-reward	StartDisplay				
15	203.475		loss-reward	ImageDisplay2		0.0		
15	206.484	1.6	loss-reward	ChoiceDisplay	1	1.168	1	1
15	207.671	0.432	loss-reward	ChosenDisplay		0.0		
15	208.089	0.25	loss-reward	TurnDisplay				
15	208.34	0.75	loss-reward	OutcomeDisplay				
16	209.092		control-noreward	ImageDisplay1		0.0		
16	211.081	0.75	control-noreward	StartDisplay				
16	211.834		control-noreward	ImageDisplay2		0.0		
16	215.093	1.6	control-noreward	ChoiceDisplay	1	1.049	1	1
16	216.163	0.551	control-noreward	ChosenDisplay		0.0		
16	216.698	0.25	control-noreward	TurnDisplay				
16	216.949	0.75	control-noreward	OutcomeDisplay				
17	217.701		control-reward	ImageDisplay1		0.0		
17	219.941	0.75	control-reward	StartDisplay				
17	220.693		control-reward	ImageDisplay2		0.0		
17	223.702	1.6	control-reward	ChoiceDisplay	1	1.321	1	1
17	225.04	0.279	control-reward	ChosenDisplay		0.0		
17	225.307	0.25	control-reward	TurnDisplay				
17	225.558	0.75	control-reward	OutcomeDisplay				
18	226.31		win-noreward	ImageDisplay1		0.0		
18	228.55	0.75	win-noreward	StartDisplay				
18	229.302		win-noreward	ImageDisplay2		0.0		
18	232.311	1.6	win-noreward	ChoiceDisplay	1	1.168	1	1
18	233.498	0.432	win-noreward	ChosenDisplay		0.0		
18	233.916	0.25	win-noreward	TurnDisplay				
18	234.167	0.75	win-noreward	OutcomeDisplay				
19	234.919		control-noreward	ImageDisplay1		0.0		
19	236.909	0.75	control-noreward	StartDisplay				
19	237.661		control-noreward	ImageDisplay2		0.0		
19	240.921	1.6	control-noreward	ChoiceDisplay		0.0		
19	242.509	0.0	control-noreward	ChosenDisplay		0.0		
19	242.525	0.25	control-noreward	TurnDisplay				
19	242.759	0.75	control-noreward	OutcomeDisplay				
20	243.512		win-noreward	ImageDisplay1		0.0		
20	245.518	0.75	win-noreward	StartDisplay				
20	246.27		win-noreward	ImageDisplay2		0.0		
20	249.513	1.6	win-noreward	ChoiceDisplay	1	0.961	1	1
20	250.499	0.639	win-noreward	ChosenDisplay		0.0		
20	251.118	0.25	win-noreward	TurnDisplay				
20	251.368	0.75	win-noreward	OutcomeDisplay				
21	252.121		loss-noreward	ImageDisplay1		0.0		
21	254.11	0.75	loss-noreward	StartDisplay				
21	254.862		loss-noreward	ImageDisplay2		0.0		
21	258.122	1.6	loss-noreward	ChoiceDisplay	1	1.114	1	1
21	259.259	0.486	loss-noreward	ChosenDisplay		0.0		
21	259.727	0.25	loss-noreward	TurnDisplay				
21	259.978	0.75	loss-noreward	OutcomeDisplay				
22	260.73		loss-reward	ImageDisplay1		0.0		
22	262.97	0.75	loss-reward	StartDisplay				
22	263.722		loss-reward	ImageDisplay2		0.0		
22	266.731	1.6	loss-reward	ChoiceDisplay	1	1.124	1	1
22	267.868	0.476	loss-reward	ChosenDisplay		0.0		
22	268.336	0.25	loss-reward	TurnDisplay				
22	268.587	0.75	loss-reward	OutcomeDisplay				
23	269.339		control-reward	ImageDisplay1		0.0		
23	271.328	0.75	control-reward	StartDisplay				
23	272.08		control-reward	ImageDisplay2		0.0		
23	275.34	1.6	control-reward	ChoiceDisplay	1	0.661	1	1
23	276.026	0.939	control-reward	ChosenDisplay		0.0		
23	276.945	0.25	control-reward	TurnDisplay				
23	277.196	0.75	control-reward	OutcomeDisplay				
24	277.948		loss-noreward	ImageDisplay1		0.0		
24	279.937	0.75	loss-noreward	StartDisplay				
24	280.689		loss-noreward	ImageDisplay2		0.0		
24	283.949	1.6	loss-noreward	ChoiceDisplay	1	1.117	1	1
24	285.086	0.483	loss-noreward	ChosenDisplay		0.0		
24	285.554	0.25	loss-noreward	TurnDisplay				
24	285.805	0.75	loss-noreward	OutcomeDisplay				
25	286.557		control-reward	ImageDisplay1		0.0		
25	288.546	0.75	control-reward	StartDisplay				
25	289.299		control-reward	ImageDisplay2		0.0		
25	292.558	1.6	control-reward	ChoiceDisplay	1	1.092	1	1
25	293.662	0.508	control-reward	ChosenDisplay		0.0		
25	294.163	0.25	control-reward	TurnDisplay				
25	294.414	0.75	control-reward	OutcomeDisplay				
26	295.166		win-noreward	ImageDisplay1		0.0		
26	297.406	0.75	win-noreward	StartDisplay				
26	298.158		win-noreward	ImageDisplay2		0.0		
26	301.167	1.6	win-noreward	ChoiceDisplay	1	1.016	1	1
26	302.204	0.584	win-noreward	ChosenDisplay		0.0		
26	302.772	0.25	win-noreward	TurnDisplay				
26	303.023	0.75	win-noreward	OutcomeDisplay				
27	303.775		loss-noreward	ImageDisplay1		0.0		
27	306.015	0.75	loss-noreward	StartDisplay				
27	306.767		loss-noreward	ImageDisplay2		0.0		
27	309.776	1.6	loss-noreward	ChoiceDisplay	1	1.119	1	1
27	310.913	0.481	loss-noreward	ChosenDisplay		0.0		
27	311.381	0.25	loss-noreward	TurnDisplay				
27	311.632	0.75	loss-noreward	OutcomeDisplay				
28	312.384		control-noreward	ImageDisplay1		0.0		
28	314.373	0.75	control-noreward	StartDisplay				
28	315.126		control-noreward	ImageDisplay2		0.0		
28	318.385	1.6	control-noreward	ChoiceDisplay	1	1.317	1	1
28	319.723	0.283	control-noreward	ChosenDisplay		0.0		
28	319.99	0.25	control-noreward	TurnDisplay				
28	320.241	0.75	control-noreward	OutcomeDisplay				
29	320.993		loss-noreward	ImageDisplay1		0.0		
29	323.233	0.75	loss-noreward	StartDisplay				
29	323.986		loss-noreward	ImageDisplay2		0.0		
29	326.995	1.6	loss-noreward	ChoiceDisplay	1	0.983	1	1
29	327.998	0.617	loss-noreward	ChosenDisplay		0.0		
29	328.599	0.25	loss-noreward	TurnDisplay				
29	328.85	0.75	loss-noreward	OutcomeDisplay				
30	329.602		win-reward	ImageDisplay1		0.0		
30	331.842	0.75	win-reward	StartDisplay				
30	332.595		win-reward	ImageDisplay2		0.0		
30	335.604	1.6	win-reward	ChoiceDisplay	1	0.968	1	1
30	336.59	0.632	win-reward	ChosenDisplay		0.0		
30	337.208	0.25	win-reward	TurnDisplay				
30	337.459	0.75	win-reward	OutcomeDisplay				
31	338.211		loss-reward	ImageDisplay1		0.0		
31	340.451	0.75	loss-reward	StartDisplay				
31	341.204		loss-reward	ImageDisplay2		0.0		
31	344.213	1.6	loss-reward	ChoiceDisplay	1	0.695	1	1
31	344.932	0.905	loss-reward	ChosenDisplay		0.0		
31	345.818	0.25	loss-reward	TurnDisplay				
31	346.068	0.75	loss-reward	OutcomeDisplay				
32	346.821		win-noreward	ImageDisplay1		0.0		
32	349.061	0.75	win-noreward	StartDisplay				
32	349.813		win-noreward	ImageDisplay2		0.0		
32	352.822	1.6	win-noreward	ChoiceDisplay	1	0.877	1	1
32	353.724	0.723	win-noreward	ChosenDisplay		0.0		
32	354.427	0.25	win-noreward	TurnDisplay				
32	354.677	0.75	win-noreward	OutcomeDisplay				
33	355.43		win-reward	ImageDisplay1		0.0		
33	357.67	0.75	win-reward	StartDisplay				
33	358.422		win-reward	ImageDisplay2		0.0		
33	361.431	1.6	win-reward	ChoiceDisplay	1	0.96	1	1
33	362.417	0.64	win-reward	ChosenDisplay		0.0		
33	363.036	0.25	win-reward	TurnDisplay				
33	363.286	0.75	win-reward	OutcomeDisplay				
34	364.039		control-reward	ImageDisplay1		0.0		
34	366.279	0.75	control-reward	StartDisplay				
34	367.031		control-reward	ImageDisplay2		0.0		
34	370.04	1.6	control-reward	ChoiceDisplay	1	0.922	1	1
34	370.976	0.678	control-reward	ChosenDisplay		0.0		
34	371.645	0.25	control-reward	TurnDisplay				
34	371.895	0.75	control-reward	OutcomeDisplay				
35	372.648		loss-noreward	ImageDisplay1		0.0		
35	374.637	0.75	loss-noreward	StartDisplay				
35	375.389		loss-noreward	ImageDisplay2		0.0		
35	378.649	1.6	loss-noreward	ChoiceDisplay	1	0.92	1	1
35	379.585	0.68	loss-noreward	ChosenDisplay		0.0		
35	380.254	0.25	loss-noreward	TurnDisplay				
35	380.505	0.75	loss-noreward	OutcomeDisplay				
36	381.257		control-reward	ImageDisplay1		0.0		
36	383.246	0.75	control-reward	StartDisplay				
36	383.998		control-reward	ImageDisplay2		0.0		
36	387.258	1.6	control-reward	ChoiceDisplay	1	0.384	1	1
36	387.659	1.216	control-reward	ChosenDisplay		0.0		
36	388.863	0.25	control-reward	TurnDisplay				
36	389.114	0.75	control-reward	OutcomeDisplay				
37	389.866		loss-reward	ImageDisplay1		0.0		
37	391.855	0.75	loss-reward	StartDisplay				
37	392.607		loss-reward	ImageDisplay2		0.0		
37	395.867	1.6	loss-reward	ChoiceDisplay	1	0.657	1	1
37	396.536	0.943	loss-reward	ChosenDisplay		0.0		
37	397.472	0.25	loss-reward	TurnDisplay				
37	397.723	0.75	loss-reward	OutcomeDisplay				
38	398.475		control-noreward	ImageDisplay1		0.0		
38	400.464	0.75	control-noreward	StartDisplay				
38	401.216		control-noreward	ImageDisplay2		0.0		
38	404.476	1.6	control-noreward	ChoiceDisplay	1	0.062	1	1
38	404.56	1.538	control-noreward	ChosenDisplay		0.0		
38	406.081	0.25	control-noreward	TurnDisplay				
38	406.332	0.75	control-noreward	OutcomeDisplay				
39	407.084		loss-reward	ImageDisplay1		0.0		
39	409.073	0.75	loss-reward	StartDisplay				
39	409.826		loss-reward	ImageDisplay2		0.0		
39	413.085	1.6	loss-reward	ChoiceDisplay	1	0.954	1	1
39	414.055	0.646	loss-reward	ChosenDisplay		0.0		
39	414.69	0.25	loss-reward	TurnDisplay				
39	414.941	0.75	loss-reward	OutcomeDisplay				
40	415.693		win-reward	ImageDisplay1		0.0		
40	417.933	0.75	win-reward	StartDisplay				
40	418.685		win-reward	ImageDisplay2		0.0		
40	421.694	1.6	win-reward	ChoiceDisplay	1	0.953	1	1
40	422.664	0.647	win-reward	ChosenDisplay		0.0		
40	423.299	0.25	win-reward	TurnDisplay				
40	423.55	0.75	win-reward	OutcomeDisplay				
41	424.302		control-reward	ImageDisplay1		0.0		
41	426.542	0.75	control-reward	StartDisplay				
41	427.294		control-reward	ImageDisplay2		0.0		
41	430.303	1.6	control-reward	ChoiceDisplay	1	0.192	1	1
41	430.521	1.408	control-reward	ChosenDisplay		0.0		
41	431.908	0.25	control-reward	TurnDisplay				
41	432.159	0.75	control-reward	OutcomeDisplay				
42	432.911		control-noreward	ImageDisplay1		0.0		
42	434.901	0.75	control-noreward	StartDisplay				
42	435.653		control-noreward	ImageDisplay2		0.0		
42	438.913	1.6	control-noreward	ChoiceDisplay	1	0.221	1	1
42	439.147	1.379	control-noreward	ChosenDisplay		0.0		
42	440.517	0.25	control-noreward	TurnDisplay				
42	440.768	0.75	control-noreward	OutcomeDisplay				
43	441.52		win-noreward	ImageDisplay1		0.0		
43	443.76	0.75	win-noreward	StartDisplay				
43	444.513		win-noreward	ImageDisplay2		0.0		
43	447.522	1.6	win-noreward	ChoiceDisplay	1	1.036	1	1
43	448.575	0.564	win-noreward	ChosenDisplay		0.0		
43	449.126	0.25	win-noreward	TurnDisplay				
43	449.377	0.75	win-noreward	OutcomeDisplay				
44	450.129		win-noreward	ImageDisplay1		0.0		
44	452.119	0.75	win-noreward	StartDisplay				
44	452.871		win-noreward	ImageDisplay2		0.0		
44	456.131	1.6	win-noreward	ChoiceDisplay	1	1.211	1	1
44	457.368	0.389	win-noreward	ChosenDisplay		0.0		
44	457.735	0.25	win-noreward	TurnDisplay				
44	457.986	0.75	win-noreward	OutcomeDisplay				
45	458.738		win-reward	ImageDisplay1		0.0		
45	460.979	0.75	win-reward	StartDisplay				
45	461.731		win-reward	ImageDisplay2		0.0		
45	464.74	1.6	win-reward	ChoiceDisplay	1	0.644	1	1
45	465.408	0.956	win-reward	ChosenDisplay		0.0		
45	466.345	0.25	win-reward	TurnDisplay				
45	466.595	0.75	win-reward	OutcomeDisplay				
46	467.348		control-reward	ImageDisplay1		0.0		
46	469.588	0.75	control-reward	StartDisplay				
46	470.34		control-reward	ImageDisplay2		0.0		
46	473.349	1.6	control-reward	ChoiceDisplay	1	0.115	1	1
46	473.483	1.485	control-reward	ChosenDisplay		0.0		
46	474.954	0.25	control-reward	TurnDisplay				
46	475.204	0.75	control-reward	OutcomeDisplay				
47	475.957		loss-noreward	ImageDisplay1		0.0		
47	477.946	0.75	loss-noreward	StartDisplay				
47	478.698		loss-noreward	ImageDisplay2		0.0		
47	481.958	1.6	loss-noreward	ChoiceDisplay	1	0.607	1	1
47	482.576	0.993	loss-noreward	ChosenDisplay		0.0		
47	483.563	0.25	loss-noreward	TurnDisplay				
47	483.813	0.75	loss-noreward	OutcomeDisplay				
48	484.566		control-noreward	ImageDisplay1		0.0		
48	486.806	0.75	control-noreward	StartDisplay				
48	487.558		control-noreward	ImageDisplay2		0.0		
48	490.567	1.6	control-noreward	ChoiceDisplay	1	0.42	1	1
48	491.002	1.18	control-noreward	ChosenDisplay		0.0		
48	492.172	0.25	control-noreward	TurnDisplay				
48	492.423	0.75	control-noreward	OutcomeDisplay				
49	493.175		control-noreward	ImageDisplay1		0.0		
49	495.415	0.75	control-noreward	StartDisplay				
49	496.167		control-noreward	ImageDisplay2		0.0		
49	499.176	1.6	control-noreward	ChoiceDisplay	1	0.375	1	1
49	499.577	1.225	control-noreward	ChosenDisplay		0.0		
49	500.781	0.25	control-noreward	TurnDisplay				
49	501.032	0.75	control-noreward	OutcomeDisplay				
50	501.784		loss-reward	ImageDisplay1		0.0		
50	503.773	0.75	loss-reward	StartDisplay				
50	504.525		loss-reward	ImageDisplay2		0.0		
50	507.785	1.6	loss-reward	ChoiceDisplay	1	0.605	1	1
50	508.404	0.995	loss-reward	ChosenDisplay		0.0		
50	509.39	0.25	loss-reward	TurnDisplay				
50	509.641	0.75	loss-reward	OutcomeDisplay				
51	510.393		control-noreward	ImageDisplay1		0.0		
51	512.633	0.75	control-noreward	StartDisplay				
51	513.385		control-noreward	ImageDisplay2		0.0		
51	516.394	1.6	control-noreward	ChoiceDisplay	1	0.726	1	1
51	517.146	0.874	control-noreward	ChosenDisplay		0.0		
51	517.999	0.25	control-noreward	TurnDisplay				
51	518.25	0.75	control-noreward	OutcomeDisplay				
52	519.002		control-reward	ImageDisplay1		0.0		
52	520.991	0.75	control-reward	StartDisplay				
52	521.744		control-reward	ImageDisplay2		0.0		
52	525.003	1.6	control-reward	ChoiceDisplay	1	1.124	1	1
52	526.14	0.476	control-reward	ChosenDisplay		0.0		
52	526.608	0.25	control-reward	TurnDisplay				
52	526.859	0.75	control-reward	OutcomeDisplay				
53	527.611		win-reward	ImageDisplay1		0.0		
53	529.6	0.75	win-reward	StartDisplay				
53	530.353		win-reward	ImageDisplay2		0.0		
53	533.612	1.6	win-reward	ChoiceDisplay	1	1.033	1	1
53	534.665	0.567	win-reward	ChosenDisplay		0.0		
53	535.217	0.25	win-reward	TurnDisplay				
53	535.468	0.75	win-reward	OutcomeDisplay				
54	536.22		loss-reward	ImageDisplay1		0.0		
54	538.46	0.75	loss-reward	StartDisplay				
54	539.212		loss-reward	ImageDisplay2		0.0		
54	542.221	1.6	loss-reward	ChoiceDisplay	1	0.84	1	1
54	543.074	0.76	loss-reward	ChosenDisplay		0.0		
54	543.826	0.25	loss-reward	TurnDisplay				
54	544.077	0.75	loss-reward	OutcomeDisplay				
55	544.829		win-reward	ImageDisplay1		0.0		
55	547.069	0.75	win-reward	StartDisplay				
55	547.821		win-reward	ImageDisplay2		0.0		
55	550.83	1.6	win-reward	ChoiceDisplay	1	0.646	1	1
55	551.499	0.954	win-reward	ChosenDisplay		0.0		
55	552.435	0.25	win-reward	TurnDisplay				
55	552.686	0.75	win-reward	OutcomeDisplay				
56	553.438		win-reward	ImageDisplay1		0.0		
56	555.678	0.75	win-reward	StartDisplay				
56	556.431		win-reward	ImageDisplay2		0.0		
56	559.44	1.6	win-reward	ChoiceDisplay	1	0.797	1	1
56	560.259	0.803	win-reward	ChosenDisplay		0.0		
56	561.044	0.25	win-reward	TurnDisplay				
56	561.295	0.75	win-reward	OutcomeDisplay				
57	562.047		loss-reward	ImageDisplay1		0.0		
57	564.287	0.75	loss-reward	StartDisplay				
57	565.04		loss-reward	ImageDisplay2		0.0		
57	568.049	1.6	loss-reward	ChoiceDisplay	1	0.85	1	1
57	568.918	0.75	loss-reward	ChosenDisplay		0.0		
57	569.653	0.25	loss-reward	TurnDisplay				
57	569.904	0.75	loss-reward	OutcomeDisplay				
58	570.656		win-reward	ImageDisplay1		0.0		
58	572.896	0.75	win-reward	StartDisplay				
58	573.649		win-reward	ImageDisplay2		0.0		
58	576.658	1.6	win-reward	ChoiceDisplay	1	0.867	1	1
58	577.544	0.733	win-reward	ChosenDisplay		0.0		
58	578.263	0.25	win-reward	TurnDisplay				
58	578.513	0.75	win-reward	OutcomeDisplay				
59	579.266		loss-reward	ImageDisplay1		0.0		
59	581.255	0.75	loss-reward	StartDisplay				
59	582.007		loss-reward	ImageDisplay2		0.0		
59	585.267	1.6	loss-reward	ChoiceDisplay	1	0.759	1	1
59	586.052	0.841	loss-reward	ChosenDisplay		0.0		
59	586.872	0.25	loss-reward	TurnDisplay				
59	587.122	0.75	loss-reward	OutcomeDisplay				
60	587.875		win-reward	ImageDisplay1		0.0		
60	589.864	0.75	win-reward	StartDisplay				
60	590.616		win-reward	ImageDisplay2		0.0		
60	593.876	1.6	win-reward	ChoiceDisplay	1	0.67	1	1
60	594.561	0.93	win-reward	ChosenDisplay		0.0		
60	595.481	0.25	win-reward	TurnDisplay				
60	595.731	0.75	win-reward	OutcomeDisplay				
61	596.484		loss-reward	ImageDisplay1		0.0		
61	598.473	0.75	loss-reward	StartDisplay				
61	599.225		loss-reward	ImageDisplay2		0.0		
61	602.485	1.6	loss-reward	ChoiceDisplay	1	0.865	1	1
61	603.371	0.735	loss-reward	ChosenDisplay		0.0		
61	604.09	0.25	loss-reward	TurnDisplay				
61	604.34	0.75	loss-reward	OutcomeDisplay				
62	605.093		win-reward	ImageDisplay1		0.0		
62	607.082	0.75	win-reward	StartDisplay				
62	607.834		win-reward	ImageDisplay2		0.0		
62	611.094	1.6	win-reward	ChoiceDisplay	1	0.976	1	1
62	612.097	0.624	win-reward	ChosenDisplay		0.0		
62	612.699	0.25	win-reward	TurnDisplay				
62	612.95	0.75	win-reward	OutcomeDisplay				
63	613.702		win-noreward	ImageDisplay1		0.0		
63	615.942	0.75	win-noreward	StartDisplay				
63	616.694		win-noreward	ImageDisplay2		0.0		
63	619.703	1.6	win-noreward	ChoiceDisplay	1	0.946	1	1
63	620.673	0.654	win-noreward	ChosenDisplay		0.0		
63	621.308	0.25	win-noreward	TurnDisplay				
63	621.559	0.75	win-noreward	OutcomeDisplay				
64	622.311		win-reward	ImageDisplay1		0.0		
64	624.3	0.75	win-reward	StartDisplay				
64	625.052		win-reward	ImageDisplay2		0.0		
64	628.312	1.6	win-reward	ChoiceDisplay	1	0.87	1	1
64	629.198	0.73	win-reward	ChosenDisplay		0.0		
64	629.917	0.25	win-reward	TurnDisplay				
64	630.168	0.75	win-reward	OutcomeDisplay				
65	630.92		control-noreward	ImageDisplay1		0.0		
65	633.16	0.75	control-noreward	StartDisplay				
65	633.912		control-noreward	ImageDisplay2		0.0		
65	636.921	1.6	control-noreward	ChoiceDisplay	1	0.497	1	1
65	637.439	1.103	control-noreward	ChosenDisplay		0.0		
65	638.526	0.25	control-noreward	TurnDisplay				
65	638.777	0.75	control-noreward	OutcomeDisplay				
66	639.529		loss-reward	ImageDisplay1		0.0		
66	641.769	0.75	loss-reward	StartDisplay				
66	642.521		loss-reward	ImageDisplay2		0.0		
66	645.53	1.6	loss-reward	ChoiceDisplay	1	0.735	1	1
66	646.283	0.865	loss-reward	ChosenDisplay		0.0		
66	647.135	0.25	loss-reward	TurnDisplay				
66	647.386	0.75	loss-reward	OutcomeDisplay				
67	648.138		win-noreward	ImageDisplay1		0.0		
67	650.127	0.75	win-noreward	StartDisplay				
67	650.88		win-noreward	ImageDisplay2		0.0		
67	654.139	1.6	win-noreward	ChoiceDisplay	1	0.751	1	1
67	654.908	0.849	win-noreward	ChosenDisplay		0.0		
67	655.744	0.25	win-noreward	TurnDisplay				
67	655.995	0.75	win-noreward	OutcomeDisplay				
68	656.747		loss-noreward	ImageDisplay1		0.0		
68	658.736	0.75	loss-noreward	StartDisplay				
68	659.489		loss-noreward	ImageDisplay2		0.0		
68	662.748	1.6	loss-noreward	ChoiceDisplay	1	0.884	1	1
68	663.651	0.716	loss-noreward	ChosenDisplay		0.0		
68	664.353	0.25	loss-noreward	TurnDisplay				
68	664.604	0.75	loss-noreward	OutcomeDisplay				
69	665.356		control-reward	ImageDisplay1		0.0		
69	667.596	0.75	control-reward	StartDisplay				
69	668.349		control-reward	ImageDisplay2		0.0		
69	671.358	1.6	control-reward	ChoiceDisplay	1	1.302	1	1
69	672.678	0.298	control-reward	ChosenDisplay		0.0		
69	672.962	0.25	control-reward	TurnDisplay				
69	673.213	0.75	control-reward	OutcomeDisplay				
70	673.965		win-noreward	ImageDisplay1		0.0		
70	676.205	0.75	win-noreward	StartDisplay				
70	676.958		win-noreward	ImageDisplay2		0.0		
70	679.967	1.6	win-noreward	ChoiceDisplay	1	1.013	1	1
70	681.003	0.587	win-noreward	ChosenDisplay		0.0		
70	681.571	0.25	win-noreward	TurnDisplay				
70	681.822	0.75	win-noreward	OutcomeDisplay				
71	682.574		win-reward	ImageDisplay1		0.0		
71	684.564	0.75	win-reward	StartDisplay				
71	685.316		win-reward	ImageDisplay2		0.0		
71	688.576	1.6	win-reward	ChoiceDisplay	1	0.789	1	1
71	689.378	0.811	win-reward	ChosenDisplay		0.0		
71	690.18	0.25	win-reward	TurnDisplay				
71	690.431	0.75	win-reward	OutcomeDisplay				
72	691.183		win-noreward	ImageDisplay1		0.0		
72	693.173	0.75	win-noreward	StartDisplay				
72	693.925		win-noreward	ImageDisplay2		0.0		
72	697.185	1.6	win-noreward	ChoiceDisplay	1	0.976	1	1
72	698.188	0.624	win-noreward	ChosenDisplay		0.0		
72	698.79	0.25	win-noreward	TurnDisplay				
72	699.04	0.75	win-noreward	OutcomeDisplay				
73	699.793		win-reward	ImageDisplay1		0.0		
73	701.782	0.75	win-reward	StartDisplay				
73	702.534		win-reward	ImageDisplay2		0.0		
73	705.794	1.6	win-reward	ChoiceDisplay	1	0.645	1	1
73	706.462	0.955	win-reward	ChosenDisplay		0.0		
73	707.399	0.25	win-reward	TurnDisplay				
73	707.649	0.75	win-reward	OutcomeDisplay				
74	708.402		loss-noreward	ImageDisplay1		0.0		
74	710.391	0.75	loss-noreward	StartDisplay				
74	711.143		loss-noreward	ImageDisplay2		0.0		
74	714.403	1.6	loss-noreward	ChoiceDisplay	1	0.889	1	1
74	715.306	0.711	loss-noreward	ChosenDisplay		0.0		
74	716.008	0.25	loss-noreward	TurnDisplay				
74	716.258	0.75	loss-noreward	OutcomeDisplay				
75	717.011		control-noreward	ImageDisplay1		0.0		
75	719.0	0.75	control-noreward	StartDisplay				
75	719.752		control-noreward	ImageDisplay2		0.0		
75	723.012	1.6	control-noreward	ChoiceDisplay	1	0.56	1	1
75	723.597	1.04	control-noreward	ChosenDisplay		0.0		
75	724.617	0.25	control-noreward	TurnDisplay				
75	724.868	0.75	control-noreward	OutcomeDisplay				
76	725.62		loss-reward	ImageDisplay1		0.0		
76	727.609	0.75	loss-reward	StartDisplay				
76	728.361		loss-reward	ImageDisplay2		0.0		
76	731.621	1.6	loss-reward	ChoiceDisplay	1	0.498	1	1
76	732.139	1.102	loss-reward	ChosenDisplay		0.0		
76	733.226	0.25	loss-reward	TurnDisplay				
76	733.477	0.75	loss-reward	OutcomeDisplay				
77	734.229		win-noreward	ImageDisplay1		0.0		
77	736.218	0.75	win-noreward	StartDisplay				
77	736.97		win-noreward	ImageDisplay2		0.0		
77	740.23	1.6	win-noreward	ChoiceDisplay	1	0.538	1	1
77	740.782	1.062	win-noreward	ChosenDisplay		0.0		
77	741.835	0.25	win-noreward	TurnDisplay				
77	742.086	0.75	win-noreward	OutcomeDisplay				
78	742.838		control-reward	ImageDisplay1		0.0		
78	745.078	0.75	control-reward	StartDisplay				
78	745.83		control-reward	ImageDisplay2		0.0		
78	748.839	1.6	control-reward	ChoiceDisplay	1	0.539	1	1
78	749.391	1.061	control-reward	ChosenDisplay		0.0		
78	750.444	0.25	control-reward	TurnDisplay				
78	750.695	0.75	control-reward	OutcomeDisplay				
79	751.447		control-reward	ImageDisplay1		0.0		
79	753.436	0.75	control-reward	StartDisplay				
79	754.189		control-reward	ImageDisplay2		0.0		
79	757.448	1.6	control-reward	ChoiceDisplay	1	0.625	1	1
79	758.083	0.975	control-reward	ChosenDisplay		0.0		
79	759.053	0.25	control-reward	TurnDisplay				
79	759.304	0.75	control-reward	OutcomeDisplay				
80	760.056		control-noreward	ImageDisplay1		0.0		
80	762.296	0.75	control-noreward	StartDisplay				
80	763.048		control-noreward	ImageDisplay2		0.0		
80	766.057	1.6	control-noreward	ChoiceDisplay	1	0.782	1	1
80	766.86	0.818	control-noreward	ChosenDisplay		0.0		
80	767.662	0.25	control-noreward	TurnDisplay				
80	767.913	0.75	control-noreward	OutcomeDisplay				
81	768.665		loss-reward	ImageDisplay1		0.0		
81	770.654	0.75	loss-reward	StartDisplay				
81	771.407		loss-reward	ImageDisplay2		0.0		
81	774.666	1.6	loss-reward	ChoiceDisplay	1	1.23	1	1
81	775.92	0.37	loss-reward	ChosenDisplay		0.0		
81	776.271	0.25	loss-reward	TurnDisplay				
81	776.522	0.75	loss-reward	OutcomeDisplay				
82	777.274		loss-noreward	ImageDisplay1		0.0		
82	779.263	0.75	loss-noreward	StartDisplay				
82	780.016		loss-noreward	ImageDisplay2		0.0		
82	783.275	1.6	loss-noreward	ChoiceDisplay	1	0.77	1	1
82	784.061	0.83	loss-noreward	ChosenDisplay		0.0		
82	784.88	0.25	loss-noreward	TurnDisplay				
82	785.131	0.75	loss-noreward	OutcomeDisplay				
83	785.883		loss-noreward	ImageDisplay1		0.0		
83	788.123	0.75	loss-noreward	StartDisplay				
83	788.876		loss-noreward	ImageDisplay2		0.0		
83	791.885	1.6	loss-noreward	ChoiceDisplay	1	0.604	1	1
83	792.503	0.996	loss-noreward	ChosenDisplay		0.0		
83	793.489	0.25	loss-noreward	TurnDisplay				
83	793.74	0.75	loss-noreward	OutcomeDisplay				
84	794.492		control-reward	ImageDisplay1		0.0		
84	796.482	0.75	control-reward	StartDisplay				
84	797.234		control-reward	ImageDisplay2		0.0		
84	800.494	1.6	control-reward	ChoiceDisplay	1	0.473	1	1
84	800.978	1.127	control-reward	ChosenDisplay		0.0		
84	802.098	0.25	control-reward	TurnDisplay				
84	802.349	0.75	control-reward	OutcomeDisplay				
85	803.101		loss-reward	ImageDisplay1		0.0		
85	805.341	0.75	loss-reward	StartDisplay				
85	806.094		loss-reward	ImageDisplay2		0.0		
85	809.103	1.6	loss-reward	ChoiceDisplay	1	0.679	1	1
85	809.805	0.921	loss-reward	ChosenDisplay		0.0		
85	810.707	0.25	loss-reward	TurnDisplay				
85	810.958	0.75	loss-reward	OutcomeDisplay				
86	811.711		loss-reward	ImageDisplay1		0.0		
86	813.7	0.75	loss-reward	StartDisplay				
86	814.452		loss-reward	ImageDisplay2		0.0		
86	817.712	1.6	loss-reward	ChoiceDisplay	1	0.836	1	1
86	818.564	0.764	loss-reward	ChosenDisplay		0.0		
86	819.317	0.25	loss-reward	TurnDisplay				
86	819.567	0.75	loss-reward	OutcomeDisplay				
87	820.32		control-reward	ImageDisplay1		0.0		
87	822.56	0.75	control-reward	StartDisplay				
87	823.312		control-reward	ImageDisplay2		0.0		
87	826.321	1.6	control-reward	ChoiceDisplay	1	0.741	1	1
87	827.073	0.859	control-reward	ChosenDisplay		0.0		
87	827.926	0.25	control-reward	TurnDisplay				
87	828.176	0.75	control-reward	OutcomeDisplay				
88	828.929		win-noreward	ImageDisplay1		0.0		
88	830.918	0.75	win-noreward	StartDisplay				
88	831.67		win-noreward	ImageDisplay2		0.0		
88	834.93	1.6	win-noreward	ChoiceDisplay	1	0.77	1	1
88	835.716	0.83	win-noreward	ChosenDisplay		0.0		
88	836.535	0.25	win-noreward	TurnDisplay				
88	836.785	0.75	win-noreward	OutcomeDisplay				
89	837.538		win-reward	ImageDisplay1		0.0		
89	839.778	0.75	win-reward	StartDisplay				
89	840.53		win-reward	ImageDisplay2		0.0		
89	843.539	1.6	win-reward	ChoiceDisplay	1	0.61	1	1
89	844.174	0.99	win-reward	ChosenDisplay		0.0		
89	845.144	0.25	win-reward	TurnDisplay				
89	845.395	0.75	win-reward	OutcomeDisplay				
90	846.147		control-noreward	ImageDisplay1		0.0		
90	848.387	0.75	control-noreward	StartDisplay				
90	849.139		control-noreward	ImageDisplay2		0.0		
90	852.148	1.6	control-noreward	ChoiceDisplay	1	0.58	1	1
90	852.75	1.02	control-noreward	ChosenDisplay		0.0		
90	853.753	0.25	control-noreward	TurnDisplay				
90	854.004	0.75	control-noreward	OutcomeDisplay				
91	854.756		loss-noreward	ImageDisplay1		0.0		
91	856.996	0.75	loss-noreward	StartDisplay				
91	857.748		loss-noreward	ImageDisplay2		0.0		
91	860.757	1.6	loss-noreward	ChoiceDisplay	1	0.763	1	1
91	861.543	0.837	loss-noreward	ChosenDisplay		0.0		
91	862.362	0.25	loss-noreward	TurnDisplay				
91	862.613	0.75	loss-noreward	OutcomeDisplay				
92	863.365		control-reward	ImageDisplay1		0.0		
92	865.605	0.75	control-reward	StartDisplay				
92	866.357		control-reward	ImageDisplay2		0.0		
92	869.366	1.6	control-reward	ChoiceDisplay	1	0.33	1	1
92	869.717	1.27	control-reward	ChosenDisplay		0.0		
92	870.971	0.25	control-reward	TurnDisplay				
92	871.222	0.75	control-reward	OutcomeDisplay				
93	871.974		control-noreward	ImageDisplay1		0.0		
93	873.963	0.75	control-noreward	StartDisplay				
93	874.716		control-noreward	ImageDisplay2		0.0		
93	877.975	1.6	control-noreward	ChoiceDisplay	1	0.651	1	1
93	878.644	0.949	control-noreward	ChosenDisplay		0.0		
93	879.58	0.25	control-noreward	TurnDisplay				
93	879.831	0.75	control-noreward	OutcomeDisplay				
94	880.583		control-noreward	ImageDisplay1		0.0		
94	882.823	0.75	control-noreward	StartDisplay				
94	883.575		control-noreward	ImageDisplay2		0.0		
94	886.584	1.6	control-noreward	ChoiceDisplay	1	0.728	1	1
94	887.337	0.872	control-noreward	ChosenDisplay		0.0		
94	888.189	0.25	control-noreward	TurnDisplay				
94	888.44	0.75	control-noreward	OutcomeDisplay				
95	889.192		control-noreward	ImageDisplay1		0.0		
95	891.181	0.75	control-noreward	StartDisplay				
95	891.934		control-noreward	ImageDisplay2		0.0		
95	895.193	1.6	control-noreward	ChoiceDisplay	1	0.625	1	1
95	895.845	0.975	control-noreward	ChosenDisplay		0.0		
95	896.798	0.25	control-noreward	TurnDisplay				
95	897.049	0.75	control-noreward	OutcomeDisplay				
