onset	duration	trial_type	response_time	stim_file	accuracy
51.11	1.0	go	0.703	Go_O	1.0
53.634	1.0	go	0.604	Go_X	1.0
56.158	1.0	go	0.613	Go_X	1.0
58.683	1.0	go	0.692	Go_O	1.0
61.207	1.0	go	0.507	Go_O	1.0
63.731	1.0	go	0.72	Go_X	1.0
66.255	0.25	stopfail	0.468	Go_O	0.0
68.78	1.0	go	0.483	Go_X	1.0
71.304	0.2	stopfail	0.357	Go_X	0.0
73.828	1.0	go	0.485	Go_O	1.0
76.352	1.0	go	0.571	Go_O	1.0
78.876	1.0	go	0.531	Go_X	1.0
81.401	0.15	stopsuccess	0.0	Go_O	1.0
83.925	1.0	go	0.661	Go_O	1.0
86.449	1.0	go	0.521	Go_X	1.0
88.973	0.2	stopsuccess	0.0	Go_X	1.0
91.497	0.25	stopsuccess	0.0	Go_O	1.0
94.022	1.0	go	0.555	Go_O	1.0
96.546	1.0	go	0.598	Go_X	1.0
99.07	0.3	stopfail	0.399	Go_X	0.0
101.594	1.0	go	0.591	Go_O	1.0
104.119	1.0	go	0.55	Go_X	1.0
106.643	0.25	stopsuccess	0.0	Go_O	1.0
109.167	1.0	go	0.562	Go_O	1.0
111.691	1.0	go	0.505	Go_X	1.0
114.215	0.3	stopsuccess	0.0	Go_X	1.0
116.74	1.0	go	0.601	Go_O	1.0
119.264	1.0	go	0.627	Go_X	1.0
121.788	0.35	stopsuccess	0.0	Go_O	1.0
124.312	1.0	go	0.625	Go_X	1.0
126.836	1.0	go	0.717	Go_O	1.0
129.361	1.0	go	0.626	Go_X	1.0
131.885	1.0	go	0.482	Go_O	1.0
134.409	1.0	go	0.615	Go_X	1.0
136.933	0.4	stopsuccess	0.0	Go_X	1.0
139.458	1.0	go	0.762	Go_O	1.0
141.982	1.0	go	0.747	Go_X	1.0
144.506	1.0	go	0.639	Go_O	1.0
147.03	1.0	go	0.639	Go_O	1.0
149.554	1.0	go	0.682	Go_X	1.0
152.079	0.45	stopfail	0.694	Go_O	0.0
154.603	1.0	go	0.485	Go_X	1.0
157.127	1.0	go	0.382	Go_O	1.0
159.651	1.0	go	0.473	Go_O	1.0
162.175	1.0	go	0.649	Go_X	1.0
164.7	1.0	go	0.649	Go_X	1.0
167.224	1.0	go	0.673	Go_O	1.0
169.748	0.4	stopsuccess	0.0	Go_X	1.0
172.272	1.0	go	0.524	Go_X	1.0
174.796	1.0	go	0.623	Go_O	1.0
177.321	0.45	stopsuccess	0.0	Go_O	1.0
179.845	1.0	go	0.426	Go_O	1.0
182.369	0.5	stopfail	0.645	Go_X	0.0
184.893	0.45	stopfail	0.427	Go_O	0.0
187.418	1.0	go	0.615	Go_X	1.0
189.942	1.0	go	0.761	Go_X	1.0
192.466	1.0	go	0.647	Go_O	1.0
194.99	1.0	go	0.692	Go_O	1.0
197.514	0.4	stopsuccess	0.0	Go_X	1.0
200.039	1.0	go	0.575	Go_X	1.0
202.563	0.45	stopsuccess	0.0	Go_O	1.0
205.087	1.0	go	0.697	Go_O	1.0
207.611	1.0	go	0.687	Go_X	1.0
210.135	1.0	go	0.612	Go_O	1.0
212.66	1.0	go	0.545	Go_X	1.0
215.184	1.0	go	0.589	Go_X	1.0
217.708	1.0	go	0.632	Go_O	1.0
220.232	1.0	go	0.622	Go_X	1.0
222.757	1.0	go	0.772	Go_O	1.0
225.281	1.0	go	0.685	Go_X	1.0
227.805	0.5	stopsuccess	0.0	Go_X	1.0
230.329	1.0	go	0.672	Go_O	1.0
232.853	1.0	go	0.634	Go_X	1.0
235.378	1.0	go	0.724	Go_O	1.0
237.902	0.55	stopsuccess	0.0	Go_O	1.0
240.426	1.0	go	0.632	Go_O	1.0
242.95	1.0	go	0.755	Go_X	1.0
245.474	1.0	go	0.941	Go_O	1.0
247.999	1.0	go	0.684	Go_X	1.0
250.523	1.0	go	0.48	Go_O	1.0
253.047	1.0	go	0.489	Go_X	1.0
255.571	0.6	stopsuccess	0.0	Go_X	1.0
258.096	1.0	go	0.555	Go_O	1.0
260.62	1.0	go	0.653	Go_X	1.0
263.144	0.65	stopfail	0.658	Go_O	0.0
265.668	1.0	go	0.604	Go_X	1.0
268.192	1.0	go	0.711	Go_O	1.0
270.717	0.6	stopfail	0.792	Go_X	0.0
273.241	1.0	go	0.897	Go_O	1.0
275.765	0.55	stopsuccess	0.0	Go_O	1.0
278.289	1.0	go	0.391	Go_X	1.0
280.813	1.0	go	0.706	Go_O	1.0
283.338	1.0	go	0.692	Go_X	1.0
285.862	1.0	go	0.866	Go_X	1.0
288.386	1.0	go	0.397	Go_O	1.0
290.91	0.6	stopfail	0.63	Go_X	0.0
293.435	0.55	stopfail	0.719	Go_O	0.0
295.959	1.0	go	0.463	Go_X	1.0
298.483	1.0	go	0.66	Go_O	1.0
301.007	0.5	stopfail	0.657	Go_X	0.0
303.531	1.0	go	0.579	Go_X	1.0
306.056	1.0	go	0.793	Go_O	1.0
308.58	1.0	go	0.49	Go_O	1.0
311.104	1.0	go	0.579	Go_X	1.0
313.628	1.0	go	0.629	Go_O	1.0
316.152	1.0	go	0.736	Go_X	1.0
318.677	0.45	stopsuccess	0.0	Go_O	1.0
321.201	1.0	go	0.661	Go_O	1.0
323.725	1.0	go	0.503	Go_X	1.0
326.249	1.0	go	0.446	Go_X	1.0
328.774	1.0	go	0.529	Go_O	1.0
331.298	1.0	go	0.528	Go_X	1.0
333.822	0.5	stopfail	0.76	Go_X	0.0
336.346	1.0	go	0.967	Go_O	1.0
338.87	1.0	go	0.483	Go_O	1.0
341.395	1.0	go	0.692	Go_X	1.0
343.919	1.0	go	0.609	Go_X	1.0
346.443	0.45	stopfail	0.513	Go_O	0.0
348.967	1.0	go	0.518	Go_O	1.0
351.491	1.0	go	0.493	Go_X	1.0
354.016	0.4	stopfail	0.478	Go_X	0.0
356.54	1.0	go	0.647	Go_O	1.0
359.064	0.35	stopfail	0.485	Go_O	0.0
361.588	1.0	go	0.38	Go_X	1.0
364.113	1.0	go	0.974	Go_O	1.0
366.637	1.0	go	0.753	Go_O	1.0
369.161	1.0	go	0.648	Go_X	1.0
371.685	1.0	go	0.796	Go_X	1.0
374.209	1.0	go	0.571	Go_O	1.0
376.734	1.0	go	0.804	Go_O	1.0
379.258	0.3	stopsuccess	0.0	Go_X	1.0
381.782	1.0	go	0.603	Go_X	1.0
384.306	1.0	go	0.611	Go_X	1.0
386.83	1.0	go	0.644	Go_O	1.0
389.355	0.35	stopfail	0.419	Go_O	0.0
391.879	1.0	go	0.559	Go_O	1.0
394.403	1.0	go	0.571	Go_X	1.0
396.927	1.0	go	0.546	Go_O	1.0
399.452	1.0	go	0.444	Go_X	1.0
401.976	0.3	stopsuccess	0.0	Go_X	1.0
404.5	1.0	go	0.62	Go_O	1.0
407.024	1.0	go	0.594	Go_X	1.0
409.548	0.35	stopsuccess	0.0	Go_O	1.0
412.073	1.0	go	0.648	Go_O	1.0
414.597	1.0	go	0.555	Go_X	1.0
417.121	0.4	stopfail	0.618	Go_X	0.0
419.645	1.0	go	0.445	Go_X	1.0
422.169	1.0	go	0.488	Go_O	1.0
424.694	0.35	stopfail	0.534	Go_O	0.0
427.218	1.0	go	0.471	Go_X	1.0
429.742	1.0	go	0.719	Go_O	1.0
432.266	1.0	go	0.553	Go_O	1.0
434.791	1.0	go	0.629	Go_X	1.0
437.315	1.0	go	0.701	Go_X	1.0
439.839	1.0	go	0.457	Go_O	1.0
442.363	0.3	stopfail	0.564	Go_X	0.0
444.887	1.0	go	0.487	Go_X	1.0
447.412	0.25	stopfail	0.486	Go_O	0.0
449.936	1.0	go	0.551	Go_O	0.0
452.46	1.0	go	0.524	Go_O	1.0
454.984	1.0	go	0.311	Go_X	1.0
457.508	1.0	go	0.416	Go_X	1.0
460.033	1.0	go	0.763	Go_O	1.0
462.557	0.2	stopsuccess	0.0	Go_X	1.0
465.081	1.0	go	0.56	Go_O	1.0
467.605	1.0	go	0.47	Go_X	1.0
470.13	1.0	go	0.464	Go_O	1.0
472.654	0.25	stopsuccess	0.0	Go_O	1.0
475.178	0.3	stopfail	0.468	Go_X	0.0
477.702	0.25	stopsuccess	0.0	Go_O	1.0
480.226	1.0	go	0.422	Go_X	1.0
482.751	0.3	stopsuccess	0.0	Go_X	1.0
485.275	1.0	go	0.433	Go_O	1.0
487.799	1.0	go	0.585	Go_X	1.0
490.323	1.0	go	0.381	Go_O	1.0
492.847	1.0	go	0.537	Go_X	1.0
495.372	1.0	go	0.446	Go_O	1.0
497.896	1.0	go	0.436	Go_X	1.0
500.42	1.0	go	0.52	Go_O	1.0
502.944	1.0	go	0.353	Go_X	1.0
505.469	0.35	stopfail	0.606	Go_O	0.0
507.993	1.0	go	0.597	Go_X	1.0
510.517	1.0	go	0.378	Go_O	1.0
513.041	0.3	stopfail	0.372	Go_X	0.0
515.565	1.0	go	0.391	Go_X	1.0
518.09	1.0	go	0.559	Go_O	0.0
520.614	1.0	go	0.436	Go_X	1.0
523.138	1.0	go	0.472	Go_O	1.0
525.662	1.0	go	0.463	Go_O	1.0
528.186	0.25	stopsuccess	0.0	Go_O	1.0
530.711	1.0	go	0.315	Go_X	1.0
533.235	1.0	go	0.414	Go_X	1.0
535.759	1.0	go	0.609	Go_O	1.0
538.283	0.3	stopfail	0.631	Go_X	0.0
540.808	1.0	go	0.382	Go_O	1.0
543.332	0.25	stopfail	0.533	Go_O	0.0
545.856	1.0	go	0.546	Go_X	1.0
548.38	1.0	go	0.494	Go_X	1.0
550.904	1.0	go	0.638	Go_O	1.0
553.429	1.0	go	0.578	Go_O	0.0
555.953	1.0	go	0.312	Go_X	1.0
558.477	1.0	go	0.638	Go_X	1.0
561.001	1.0	go	0.564	Go_O	1.0
563.525	0.2	stopsuccess	0.0	Go_X	1.0
566.05	1.0	go	0.545	Go_O	1.0
568.574	1.0	go	0.598	Go_X	1.0
571.098	1.0	go	0.512	Go_X	1.0
573.622	1.0	go	0.593	Go_O	1.0
576.146	0.25	stopfail	0.577	Go_O	0.0
578.671	1.0	go	0.862	Go_O	1.0
581.195	0.2	stopsuccess	0.0	Go_X	1.0
583.719	1.0	go	0.607	Go_X	1.0
586.243	1.0	go	0.563	Go_X	1.0
588.768	0.25	stopsuccess	0.0	Go_O	1.0
591.292	1.0	go	0.653	Go_O	1.0
593.816	1.0	go	0.51	Go_O	1.0
596.34	1.0	go	0.44	Go_X	1.0
598.864	1.0	go	0.505	Go_O	1.0
601.389	1.0	go	0.478	Go_X	1.0
603.913	1.0	go	0.633	Go_O	1.0
606.437	1.0	go	0.513	Go_X	1.0
608.961	1.0	go	0.707	Go_O	1.0
611.486	1.0	go	0.754	Go_X	1.0
614.01	1.0	go	0.0	Go_O	0.0
616.534	0.3	stopsuccess	0.0	Go_X	1.0
619.075	1.0	go	0.577	Go_X	1.0
621.599	1.0	go	0.897	Go_X	1.0
624.123	0.35	stopfail	0.658	Go_O	0.0
626.647	1.0	go	0.533	Go_O	0.0
629.172	0.3	stopfail	0.687	Go_X	0.0
631.696	1.0	go	0.658	Go_O	1.0
634.22	1.0	go	0.444	Go_X	1.0
636.744	0.25	stopfail	0.487	Go_O	0.0
639.269	1.0	go	0.0	Go_O	0.0
641.793	0.2	stopfail	0.383	Go_X	0.0
644.317	1.0	go	0.533	Go_X	1.0
646.841	1.0	go	0.605	Go_X	1.0
649.365	1.0	go	0.404	Go_O	1.0
651.89	0.15	stopsuccess	0.0	Go_O	1.0
654.414	1.0	go	0.32	Go_X	1.0
656.938	1.0	go	0.639	Go_O	1.0
659.462	1.0	go	0.535	Go_X	1.0
661.986	1.0	go	0.399	Go_O	1.0
664.511	0.2	stopfail	0.423	Go_X	0.0
667.035	1.0	go	0.663	Go_X	0.0
669.559	1.0	go	0.534	Go_O	1.0
672.083	0.15	stopsuccess	0.0	Go_O	1.0
674.608	1.0	go	0.318	Go_X	1.0
677.132	1.0	go	0.441	Go_O	1.0
679.656	1.0	go	0.481	Go_X	1.0
682.18	1.0	go	0.372	Go_O	1.0
684.704	0.2	stopsuccess	0.0	Go_X	1.0
687.229	1.0	go	0.648	Go_O	1.0
689.753	0.25	stopfail	0.405	Go_O	0.0
692.277	1.0	go	0.41	Go_X	1.0
694.801	1.0	go	0.467	Go_O	1.0
697.325	0.2	stopsuccess	0.0	Go_X	1.0
699.85	1.0	go	0.364	Go_X	1.0
702.374	1.0	go	0.519	Go_X	1.0
704.898	1.0	go	0.591	Go_O	1.0
707.422	1.0	go	0.416	Go_O	1.0
709.947	0.25	stopsuccess	0.0	Go_O	1.0
712.471	1.0	go	0.513	Go_X	1.0
714.995	0.3	stopfail	0.441	Go_X	0.0
717.519	1.0	go	0.525	Go_X	0.0
720.043	1.0	go	0.417	Go_O	1.0
722.568	1.0	go	0.505	Go_O	1.0
725.092	1.0	go	0.452	Go_X	1.0
727.616	1.0	go	0.0	Go_X	0.0
730.14	1.0	go	0.391	Go_O	0.0
732.664	0.25	stopsuccess	0.0	Go_O	1.0
735.189	1.0	go	0.357	Go_X	1.0
737.713	1.0	go	0.347	Go_O	1.0
740.237	0.3	stopfail	0.501	Go_X	0.0
742.761	1.0	go	0.433	Go_X	1.0
745.286	1.0	go	0.494	Go_O	1.0
747.81	0.25	stopsuccess	0.0	Go_O	1.0
750.334	1.0	go	0.572	Go_X	1.0
752.858	1.0	go	0.568	Go_O	1.0
755.382	1.0	go	0.403	Go_O	1.0
757.907	1.0	go	0.401	Go_X	1.0
760.431	0.3	stopfail	0.385	Go_X	0.0
762.955	1.0	go	0.366	Go_X	1.0
765.479	0.25	stopsuccess	0.0	Go_O	1.0
768.003	1.0	go	0.342	Go_O	1.0
770.528	1.0	go	0.473	Go_X	1.0
773.052	1.0	go	0.381	Go_O	1.0
775.576	1.0	go	0.494	Go_X	1.0
778.1	1.0	go	0.304	Go_O	1.0
780.625	0.3	stopfail	0.325	Go_X	0.0
783.149	1.0	go	0.388	Go_X	1.0
785.673	1.0	go	0.72	Go_O	1.0
788.197	0.25	stopsuccess	0.0	Go_O	1.0
790.721	0.3	stopfail	0.392	Go_X	0.0
793.246	1.0	go	0.446	Go_O	1.0
795.77	1.0	go	0.424	Go_X	1.0
798.294	1.0	go	0.354	Go_X	1.0
800.818	1.0	go	0.549	Go_O	1.0
803.342	0.25	stopsuccess	0.0	Go_O	1.0
805.867	1.0	go	0.492	Go_X	1.0
