onset	duration	trial_type	response_time	stim_file	accuracy
48.816	1.0	go	0.611	Go_O	1.0
51.374	1.0	go	0.361	Go_X	1.0
53.898	1.0	go	0.507	Go_O	1.0
56.422	1.0	go	0.312	Go_X	1.0
58.946	1.0	go	0.522	Go_O	1.0
61.471	1.0	go	0.59	Go_X	1.0
63.995	0.25	stop	0.397	Go_O	0.0
66.519	1.0	go	0.538	Go_X	1.0
69.043	0.2	stop	0.0	Go_X	1.0
71.567	1.0	go	0.341	Go_O	1.0
74.092	1.0	go	0.303	Go_X	1.0
76.616	1.0	go	0.308	Go_O	1.0
79.14	0.25	stop	0.0	Go_O	1.0
81.664	1.0	go	0.49	Go_O	1.0
84.188	1.0	go	0.419	Go_X	1.0
86.712	0.3	stop	0.325	Go_X	0.0
89.237	0.25	stop	0.466	Go_O	0.0
91.761	1.0	go	0.714	Go_O	1.0
94.285	1.0	go	0.358	Go_X	1.0
96.809	0.2	stop	0.0	Go_X	1.0
99.333	1.0	go	0.548	Go_X	1.0
101.858	1.0	go	0.386	Go_O	1.0
104.382	0.25	stop	0.665	Go_O	0.0
106.906	1.0	go	0.0	Go_X	0.0
109.43	1.0	go	0.516	Go_O	1.0
111.954	0.2	stop	0.348	Go_X	0.0
114.479	1.0	go	0.565	Go_X	1.0
117.003	1.0	go	0.948	Go_O	1.0
119.527	0.15	stop	0.0	Go_O	1.0
122.051	1.0	go	0.376	Go_X	1.0
124.575	1.0	go	0.395	Go_O	1.0
127.1	1.0	go	0.435	Go_X	1.0
129.624	1.0	go	0.441	Go_O	1.0
132.148	1.0	go	0.556	Go_X	1.0
134.672	0.2	stop	0.374	Go_X	0.0
137.196	1.0	go	0.619	Go_O	1.0
139.72	1.0	go	0.621	Go_O	1.0
142.245	1.0	go	0.423	Go_X	1.0
144.769	1.0	go	0.543	Go_X	1.0
147.293	1.0	go	0.48	Go_O	1.0
149.817	0.15	stop	0.0	Go_O	1.0
152.341	1.0	go	0.269	Go_O	0.0
154.866	1.0	go	0.386	Go_X	1.0
157.39	1.0	go	0.414	Go_O	1.0
159.914	1.0	go	0.468	Go_X	1.0
162.438	1.0	go	0.533	Go_X	1.0
164.962	1.0	go	0.578	Go_O	0.0
167.487	0.2	stop	0.0	Go_X	1.0
170.011	1.0	go	0.525	Go_O	0.0
172.535	1.0	go	0.627	Go_X	1.0
175.059	0.25	stop	0.395	Go_O	0.0
177.583	1.0	go	0.677	Go_O	1.0
180.108	0.2	stop	0.325	Go_X	0.0
182.632	0.15	stop	0.0	Go_O	1.0
185.156	1.0	go	0.68	Go_X	1.0
187.68	1.0	go	0.627	Go_X	1.0
190.204	1.0	go	0.687	Go_O	1.0
192.729	1.0	go	0.469	Go_O	1.0
195.253	0.2	stop	0.0	Go_X	1.0
197.777	1.0	go	0.403	Go_X	0.0
200.301	0.25	stop	0.483	Go_O	0.0
202.825	1.0	go	0.456	Go_O	1.0
205.349	1.0	go	0.351	Go_X	1.0
207.874	1.0	go	0.399	Go_X	1.0
210.398	1.0	go	0.445	Go_O	1.0
212.922	1.0	go	0.518	Go_X	1.0
215.446	1.0	go	0.51	Go_O	1.0
217.97	1.0	go	0.443	Go_X	1.0
220.495	1.0	go	0.624	Go_O	1.0
223.019	1.0	go	0.355	Go_O	1.0
225.543	0.2	stop	0.0	Go_X	1.0
228.067	1.0	go	0.32	Go_X	1.0
230.591	1.0	go	0.433	Go_X	1.0
233.116	1.0	go	0.474	Go_O	1.0
235.64	0.25	stop	0.0	Go_O	1.0
238.164	1.0	go	0.284	Go_X	1.0
240.688	1.0	go	0.674	Go_O	1.0
243.212	1.0	go	0.485	Go_X	1.0
245.737	1.0	go	0.278	Go_O	1.0
248.261	1.0	go	0.405	Go_X	1.0
250.785	1.0	go	0.415	Go_O	1.0
253.309	0.3	stop	0.243	Go_X	0.0
255.833	1.0	go	0.481	Go_X	1.0
258.358	1.0	go	0.361	Go_O	1.0
260.882	0.25	stop	0.394	Go_O	0.0
263.406	1.0	go	0.85	Go_X	1.0
265.93	1.0	go	0.305	Go_O	1.0
268.454	0.2	stop	0.372	Go_X	0.0
270.978	1.0	go	0.341	Go_X	1.0
273.503	0.15	stop	0.322	Go_O	0.0
276.027	1.0	go	0.0	Go_O	0.0
278.551	1.0	go	0.271	Go_O	0.0
281.075	1.0	go	0.38	Go_X	1.0
283.599	1.0	go	0.405	Go_O	1.0
286.124	1.0	go	0.33	Go_X	1.0
288.648	0.1	stop	0.0	Go_X	1.0
291.172	0.15	stop	0.0	Go_O	1.0
293.696	1.0	go	0.614	Go_O	1.0
296.22	1.0	go	0.321	Go_X	1.0
298.745	0.2	stop	0.0	Go_X	1.0
301.269	1.0	go	0.271	Go_O	1.0
303.793	1.0	go	0.552	Go_X	1.0
306.317	1.0	go	0.364	Go_O	1.0
308.841	1.0	go	0.674	Go_X	1.0
311.366	1.0	go	0.624	Go_O	1.0
313.89	1.0	go	0.488	Go_X	1.0
316.414	0.25	stop	0.301	Go_O	0.0
318.938	1.0	go	0.362	Go_X	1.0
321.462	1.0	go	0.335	Go_O	1.0
323.987	1.0	go	0.273	Go_X	1.0
326.511	1.0	go	0.376	Go_O	1.0
329.035	1.0	go	0.307	Go_O	0.0
331.559	0.2	stop	0.0	Go_X	1.0
334.083	1.0	go	0.473	Go_X	1.0
336.607	1.0	go	0.4	Go_O	1.0
339.132	1.0	go	0.55	Go_X	1.0
341.656	1.0	go	0.72	Go_O	1.0
344.18	0.25	stop	0.0	Go_O	1.0
346.704	1.0	go	0.328	Go_X	1.0
349.228	1.0	go	0.936	Go_O	1.0
351.753	0.3	stop	0.0	Go_X	1.0
354.294	1.0	go	0.487	Go_X	1.0
356.818	0.35	stop	0.625	Go_O	0.0
359.342	1.0	go	0.708	Go_O	1.0
361.866	1.0	go	0.271	Go_X	1.0
364.39	1.0	go	0.389	Go_O	1.0
366.915	1.0	go	0.403	Go_X	1.0
369.439	1.0	go	0.612	Go_X	1.0
371.963	1.0	go	0.42	Go_O	1.0
374.487	1.0	go	0.515	Go_O	1.0
377.011	0.3	stop	0.582	Go_X	0.0
379.535	1.0	go	0.554	Go_X	1.0
382.06	1.0	go	0.53	Go_X	1.0
384.584	1.0	go	0.491	Go_O	1.0
387.108	0.25	stop	0.0	Go_O	1.0
389.632	1.0	go	0.5	Go_X	1.0
392.156	1.0	go	0.512	Go_O	1.0
394.681	1.0	go	0.343	Go_X	1.0
397.205	1.0	go	0.345	Go_O	1.0
399.729	0.3	stop	0.339	Go_X	0.0
402.253	1.0	go	0.384	Go_X	1.0
404.777	1.0	go	0.451	Go_O	1.0
407.302	0.25	stop	0.36	Go_O	0.0
409.842	1.0	go	0.636	Go_O	1.0
412.367	1.0	go	0.35	Go_X	1.0
414.891	0.2	stop	0.0	Go_X	1.0
417.415	1.0	go	0.843	Go_X	1.0
419.939	1.0	go	0.49	Go_O	1.0
422.463	0.25	stop	0.0	Go_O	1.0
424.988	1.0	go	0.67	Go_X	1.0
427.512	1.0	go	0.393	Go_O	1.0
430.036	1.0	go	0.255	Go_X	1.0
432.56	1.0	go	0.299	Go_O	1.0
435.084	1.0	go	0.659	Go_O	1.0
437.609	1.0	go	0.938	Go_X	1.0
440.133	0.3	stop	0.407	Go_X	0.0
442.657	1.0	go	0.648	Go_O	1.0
445.181	0.25	stop	0.0	Go_O	1.0
447.705	1.0	go	0.367	Go_X	1.0
450.23	1.0	go	0.0	Go_X	0.0
452.754	1.0	go	0.395	Go_O	1.0
455.278	1.0	go	0.297	Go_O	0.0
457.802	1.0	go	0.485	Go_X	1.0
460.326	0.3	stop	0.465	Go_X	0.0
462.851	1.0	go	0.648	Go_O	1.0
465.375	1.0	go	0.469	Go_X	1.0
467.899	1.0	go	0.384	Go_O	1.0
470.423	0.25	stop	0.0	Go_O	1.0
472.947	0.3	stop	0.323	Go_X	0.0
475.472	0.25	stop	0.0	Go_O	1.0
477.996	1.0	go	0.6	Go_X	1.0
480.52	0.3	stop	0.512	Go_X	0.0
483.044	1.0	go	0.448	Go_X	1.0
485.568	1.0	go	0.365	Go_O	1.0
488.092	1.0	go	0.641	Go_O	1.0
490.617	1.0	go	0.445	Go_X	1.0
493.141	1.0	go	0.412	Go_X	0.0
495.665	1.0	go	0.331	Go_O	1.0
498.189	1.0	go	0.269	Go_X	1.0
500.713	1.0	go	0.313	Go_O	1.0
503.238	0.25	stop	0.0	Go_O	1.0
505.762	1.0	go	0.595	Go_O	1.0
508.286	1.0	go	0.408	Go_X	1.0
510.81	0.3	stop	0.0	Go_X	1.0
513.334	1.0	go	0.433	Go_X	0.0
515.859	1.0	go	0.675	Go_O	1.0
518.383	1.0	go	0.464	Go_X	1.0
520.907	1.0	go	0.711	Go_O	1.0
523.431	1.0	go	0.881	Go_X	1.0
525.955	0.35	stop	0.362	Go_O	0.0
528.48	1.0	go	0.753	Go_O	0.0
531.004	1.0	go	0.735	Go_X	1.0
533.528	1.0	go	0.875	Go_O	1.0
536.052	0.3	stop	0.0	Go_X	1.0
538.576	1.0	go	0.0	Go_O	0.0
541.1	0.35	stop	0.41	Go_O	0.0
543.625	1.0	go	0.681	Go_X	1.0
546.149	1.0	go	0.622	Go_X	1.0
548.673	1.0	go	0.417	Go_O	1.0
551.197	1.0	go	0.551	Go_O	1.0
553.721	1.0	go	0.575	Go_X	1.0
556.246	1.0	go	0.326	Go_X	0.0
558.77	1.0	go	0.498	Go_O	1.0
561.294	0.3	stop	0.445	Go_X	0.0
563.818	1.0	go	0.896	Go_X	1.0
566.342	1.0	go	0.279	Go_O	1.0
568.867	1.0	go	0.388	Go_O	1.0
571.391	1.0	go	0.471	Go_X	1.0
573.915	0.25	stop	0.499	Go_O	0.0
576.439	1.0	go	0.486	Go_X	1.0
578.963	0.2	stop	0.0	Go_X	1.0
581.488	1.0	go	0.674	Go_O	1.0
584.012	1.0	go	0.483	Go_X	1.0
586.536	0.25	stop	0.0	Go_O	1.0
589.06	1.0	go	0.305	Go_O	1.0
591.584	1.0	go	0.63	Go_X	1.0
594.109	1.0	go	0.486	Go_O	1.0
596.633	1.0	go	0.509	Go_O	1.0
599.157	1.0	go	0.483	Go_X	1.0
601.681	1.0	go	0.598	Go_X	1.0
604.205	1.0	go	0.566	Go_O	1.0
606.729	1.0	go	0.696	Go_O	1.0
609.254	1.0	go	0.618	Go_X	1.0
611.778	1.0	go	0.449	Go_X	1.0
614.302	0.3	stop	0.0	Go_X	1.0
616.826	1.0	go	0.0	Go_O	0.0
619.35	1.0	go	0.462	Go_X	1.0
621.875	0.35	stop	0.505	Go_O	0.0
624.399	1.0	go	0.562	Go_O	0.0
626.923	0.3	stop	0.502	Go_X	0.0
629.447	1.0	go	0.291	Go_O	1.0
631.971	1.0	go	0.361	Go_X	1.0
634.496	0.25	stop	0.377	Go_O	0.0
637.02	1.0	go	0.553	Go_X	1.0
639.544	0.2	stop	0.357	Go_X	0.0
642.068	1.0	go	0.352	Go_O	1.0
644.592	1.0	go	0.333	Go_O	0.0
647.117	1.0	go	0.962	Go_X	1.0
649.641	0.15	stop	0.0	Go_O	1.0
652.165	1.0	go	0.311	Go_O	1.0
654.689	1.0	go	0.753	Go_X	0.0
657.213	1.0	go	0.601	Go_O	1.0
659.738	1.0	go	0.289	Go_X	1.0
662.262	0.2	stop	0.0	Go_X	1.0
664.786	1.0	go	0.417	Go_X	1.0
667.31	1.0	go	0.497	Go_O	1.0
669.834	0.25	stop	0.0	Go_O	1.0
672.358	1.0	go	0.531	Go_X	1.0
674.883	1.0	go	0.642	Go_O	1.0
677.407	1.0	go	0.667	Go_X	1.0
679.931	1.0	go	0.633	Go_O	1.0
682.455	0.3	stop	0.439	Go_X	0.0
684.979	1.0	go	0.457	Go_O	1.0
687.504	0.25	stop	0.0	Go_O	1.0
690.028	1.0	go	0.697	Go_X	1.0
692.552	1.0	go	0.52	Go_X	1.0
695.076	0.3	stop	0.0	Go_X	1.0
697.6	1.0	go	0.721	Go_O	0.0
700.125	1.0	go	0.784	Go_O	1.0
702.649	1.0	go	0.704	Go_X	1.0
705.173	1.0	go	0.472	Go_O	1.0
707.697	0.35	stop	0.0	Go_O	1.0
710.221	1.0	go	0.735	Go_X	1.0
712.746	0.4	stop	0.0	Go_X	1.0
715.286	1.0	go	0.673	Go_X	1.0
717.811	1.0	go	0.843	Go_O	1.0
720.352	1.0	go	0.833	Go_O	1.0
722.876	1.0	go	0.613	Go_X	1.0
725.4	1.0	go	0.3	Go_O	1.0
727.924	1.0	go	0.305	Go_X	1.0
730.448	0.45	stop	0.439	Go_O	0.0
732.973	1.0	go	0.671	Go_X	1.0
735.497	1.0	go	0.399	Go_O	1.0
738.021	0.4	stop	0.473	Go_X	0.0
740.545	1.0	go	0.462	Go_O	1.0
743.069	1.0	go	0.622	Go_X	1.0
745.593	0.35	stop	0.582	Go_O	0.0
748.118	1.0	go	0.505	Go_X	1.0
750.642	1.0	go	0.402	Go_O	1.0
753.166	1.0	go	0.859	Go_O	1.0
755.69	1.0	go	0.401	Go_X	1.0
758.214	0.3	stop	0.0	Go_X	1.0
760.739	1.0	go	0.627	Go_O	1.0
763.263	0.35	stop	0.0	Go_O	1.0
765.787	1.0	go	0.441	Go_X	1.0
768.311	1.0	go	0.519	Go_X	1.0
770.835	1.0	go	0.699	Go_O	1.0
773.36	1.0	go	0.397	Go_X	1.0
775.884	1.0	go	0.266	Go_O	1.0
778.408	0.4	stop	0.371	Go_X	0.0
780.932	1.0	go	0.0	Go_O	0.0
783.456	1.0	go	0.406	Go_X	1.0
785.981	0.35	stop	0.401	Go_O	0.0
788.521	0.3	stop	0.496	Go_X	0.0
791.046	1.0	go	0.444	Go_X	1.0
793.57	1.0	go	0.731	Go_O	1.0
796.094	1.0	go	0.55	Go_O	0.0
798.618	1.0	go	0.535	Go_X	1.0
801.142	0.25	stop	0.0	Go_O	1.0
803.667	1.0	go	0.354	Go_O	1.0
