onset	duration	trial_type	response_time	stim_file	accuracy
57.651	1.0	go	0.0	Go_X	0.0
60.184	1.0	go	0.406	Go_O	1.0
62.718	1.0	go	0.52	Go_X	1.0
65.267	1.0	go	0.402	Go_O	1.0
67.801	1.0	go	0.278	Go_X	1.0
70.334	1.0	go	0.333	Go_O	0.0
72.867	0.25	stopfail	0.424	Go_O	0.0
75.4	1.0	go	0.269	Go_O	1.0
77.934	0.2	stopfail	0.36	Go_X	0.0
80.467	1.0	go	0.363	Go_X	1.0
83.0	1.0	go	0.358	Go_X	1.0
85.533	1.0	go	0.317	Go_O	1.0
88.067	0.15	stopsuccess	0.0	Go_O	1.0
90.6	1.0	go	0.327	Go_X	1.0
93.133	1.0	go	0.513	Go_O	1.0
95.666	0.2	stopfail	0.324	Go_X	0.0
98.2	0.15	stopsuccess	0.0	Go_O	1.0
100.733	1.0	go	0.384	Go_O	1.0
103.266	1.0	go	0.269	Go_X	1.0
105.799	0.2	stopfail	0.339	Go_X	0.0
108.333	1.0	go	0.452	Go_X	1.0
110.866	1.0	go	0.282	Go_O	1.0
113.399	0.15	stopfail	0.318	Go_O	0.0
115.932	1.0	go	0.355	Go_O	1.0
118.466	1.0	go	0.295	Go_X	1.0
120.999	0.1	stopsuccess	0.0	Go_X	1.0
123.532	1.0	go	0.31	Go_O	1.0
126.065	1.0	go	0.524	Go_X	1.0
128.599	0.15	stopsuccess	0.0	Go_O	1.0
131.132	1.0	go	0.591	Go_O	1.0
133.665	1.0	go	0.318	Go_X	1.0
136.199	1.0	go	0.389	Go_X	1.0
138.748	1.0	go	0.439	Go_O	1.0
141.282	1.0	go	0.438	Go_O	1.0
143.815	0.2	stopsuccess	0.0	Go_X	1.0
146.348	1.0	go	0.423	Go_X	1.0
148.881	1.0	go	0.349	Go_X	1.0
151.415	1.0	go	0.35	Go_O	1.0
153.948	1.0	go	0.331	Go_O	1.0
156.481	1.0	go	0.313	Go_X	1.0
159.014	0.25	stopfail	0.335	Go_O	0.0
161.548	1.0	go	0.526	Go_O	1.0
164.081	1.0	go	0.358	Go_X	1.0
166.614	1.0	go	0.318	Go_O	1.0
169.147	1.0	go	0.517	Go_X	1.0
171.681	1.0	go	0.487	Go_X	1.0
174.214	1.0	go	0.569	Go_O	1.0
176.747	0.2	stopsuccess	0.0	Go_X	1.0
179.28	1.0	go	0.337	Go_O	1.0
181.814	1.0	go	0.502	Go_X	1.0
184.347	0.25	stopsuccess	0.0	Go_O	1.0
186.88	1.0	go	0.38	Go_O	1.0
189.413	0.3	stopfail	0.415	Go_X	0.0
191.947	0.25	stopsuccess	0.0	Go_O	1.0
194.48	1.0	go	0.438	Go_X	1.0
197.013	1.0	go	0.426	Go_O	1.0
199.546	1.0	go	0.583	Go_X	1.0
202.08	1.0	go	0.524	Go_O	1.0
204.613	0.3	stopfail	0.436	Go_X	0.0
207.146	1.0	go	0.375	Go_X	1.0
209.68	0.25	stopfail	0.355	Go_O	0.0
212.229	1.0	go	0.654	Go_X	1.0
214.763	1.0	go	0.439	Go_O	1.0
217.296	1.0	go	0.328	Go_X	1.0
219.829	1.0	go	0.625	Go_O	1.0
222.362	1.0	go	0.424	Go_O	1.0
224.896	1.0	go	0.378	Go_X	1.0
227.429	1.0	go	0.414	Go_X	1.0
229.962	1.0	go	0.588	Go_O	1.0
232.495	1.0	go	0.44	Go_O	1.0
235.029	0.2	stopsuccess	0.0	Go_X	1.0
237.562	1.0	go	0.482	Go_X	1.0
240.095	1.0	go	0.371	Go_O	1.0
242.628	1.0	go	0.625	Go_X	1.0
245.162	0.25	stopsuccess	0.0	Go_O	1.0
247.695	1.0	go	0.417	Go_O	1.0
250.228	1.0	go	0.498	Go_X	1.0
252.761	1.0	go	0.906	Go_O	1.0
255.295	1.0	go	0.371	Go_X	1.0
257.828	1.0	go	0.416	Go_X	1.0
260.361	1.0	go	0.371	Go_O	1.0
262.894	0.3	stopfail	0.462	Go_X	0.0
265.428	1.0	go	0.437	Go_X	1.0
267.961	1.0	go	0.513	Go_O	1.0
270.494	0.25	stopsuccess	0.0	Go_O	1.0
273.027	1.0	go	0.385	Go_X	1.0
275.561	1.0	go	0.352	Go_O	1.0
278.094	0.3	stopsuccess	0.0	Go_X	1.0
280.627	1.0	go	0.471	Go_X	1.0
283.161	0.35	stopsuccess	0.0	Go_O	1.0
285.71	1.0	go	0.532	Go_O	1.0
288.244	1.0	go	0.453	Go_O	1.0
290.777	1.0	go	0.486	Go_X	1.0
293.31	1.0	go	0.467	Go_O	1.0
295.843	1.0	go	0.577	Go_X	1.0
298.377	0.4	stopfail	0.464	Go_X	0.0
300.91	0.35	stopsuccess	0.0	Go_O	1.0
303.443	1.0	go	0.457	Go_X	1.0
305.976	1.0	go	0.436	Go_O	1.0
308.51	0.4	stopfail	0.461	Go_X	0.0
311.043	1.0	go	0.544	Go_O	1.0
313.576	1.0	go	0.413	Go_X	1.0
316.109	1.0	go	0.423	Go_O	1.0
318.643	1.0	go	0.438	Go_X	1.0
321.176	1.0	go	0.63	Go_O	1.0
323.709	1.0	go	0.611	Go_X	1.0
326.242	0.35	stopfail	0.302	Go_O	0.0
328.776	1.0	go	0.445	Go_O	1.0
331.309	1.0	go	0.366	Go_X	1.0
333.842	1.0	go	0.46	Go_X	1.0
336.375	1.0	go	0.332	Go_O	1.0
338.909	1.0	go	0.38	Go_O	1.0
341.442	0.3	stopfail	0.421	Go_X	0.0
343.975	1.0	go	0.385	Go_X	1.0
346.508	1.0	go	0.373	Go_O	1.0
349.042	1.0	go	0.359	Go_X	1.0
351.575	1.0	go	0.501	Go_O	1.0
354.108	0.25	stopfail	0.423	Go_O	0.0
356.642	1.0	go	0.51	Go_X	1.0
359.191	1.0	go	0.321	Go_X	1.0
361.725	0.2	stopsuccess	0.0	Go_X	1.0
364.258	1.0	go	0.333	Go_O	1.0
366.791	0.25	stopfail	0.39	Go_O	0.0
369.324	1.0	go	0.471	Go_O	1.0
371.858	1.0	go	0.357	Go_X	1.0
374.391	1.0	go	0.407	Go_O	1.0
376.924	1.0	go	0.355	Go_X	1.0
379.457	1.0	go	0.478	Go_X	1.0
381.991	1.0	go	0.328	Go_O	1.0
384.524	1.0	go	0.317	Go_O	0.0
387.057	0.2	stopfail	0.362	Go_X	0.0
389.59	1.0	go	0.523	Go_X	1.0
392.124	1.0	go	0.331	Go_O	1.0
394.657	1.0	go	0.551	Go_X	1.0
397.19	0.15	stopsuccess	0.0	Go_O	1.0
399.723	1.0	go	0.317	Go_O	1.0
402.257	1.0	go	0.329	Go_X	1.0
404.79	1.0	go	0.329	Go_O	0.0
407.323	1.0	go	0.363	Go_X	1.0
409.856	0.2	stopfail	0.339	Go_X	0.0
412.39	1.0	go	0.58	Go_X	1.0
414.923	1.0	go	0.31	Go_O	1.0
417.456	0.15	stopsuccess	0.0	Go_O	1.0
419.989	1.0	go	0.416	Go_O	1.0
422.523	1.0	go	0.248	Go_X	1.0
425.056	0.2	stopfail	0.347	Go_X	0.0
427.589	1.0	go	0.247	Go_O	1.0
430.122	1.0	go	0.322	Go_X	1.0
432.656	0.15	stopsuccess	0.0	Go_O	1.0
435.189	1.0	go	0.346	Go_X	0.0
437.722	1.0	go	0.599	Go_O	1.0
440.255	1.0	go	0.341	Go_X	1.0
442.789	1.0	go	0.247	Go_O	1.0
445.322	1.0	go	0.352	Go_O	1.0
447.855	1.0	go	0.342	Go_X	1.0
450.389	0.2	stopfail	0.356	Go_X	0.0
452.938	1.0	go	0.387	Go_X	1.0
455.472	0.15	stopfail	0.411	Go_O	0.0
458.005	1.0	go	0.372	Go_O	1.0
460.538	1.0	go	0.336	Go_O	1.0
463.071	1.0	go	0.402	Go_X	1.0
465.605	1.0	go	0.683	Go_O	1.0
468.138	1.0	go	0.3	Go_X	1.0
470.671	0.1	stopsuccess	0.0	Go_X	1.0
473.204	1.0	go	0.437	Go_O	1.0
475.738	1.0	go	0.345	Go_X	1.0
478.271	1.0	go	0.454	Go_X	1.0
480.804	0.15	stopsuccess	0.0	Go_O	1.0
483.337	0.2	stopsuccess	0.0	Go_X	1.0
485.871	0.25	stopsuccess	0.0	Go_O	1.0
488.404	1.0	go	0.418	Go_O	1.0
490.937	0.3	stopfail	0.242	Go_X	0.0
493.47	1.0	go	0.513	Go_X	1.0
496.004	1.0	go	0.277	Go_O	1.0
498.537	1.0	go	0.337	Go_O	1.0
501.07	1.0	go	0.306	Go_X	1.0
503.603	1.0	go	0.459	Go_O	1.0
506.137	1.0	go	0.313	Go_X	1.0
508.67	1.0	go	0.332	Go_X	1.0
511.203	1.0	go	0.36	Go_O	1.0
513.736	0.25	stopsuccess	0.0	Go_O	1.0
516.27	1.0	go	0.469	Go_O	1.0
518.803	1.0	go	0.322	Go_X	1.0
521.336	0.3	stopfail	0.298	Go_X	0.0
523.87	1.0	go	0.366	Go_O	0.0
526.419	1.0	go	0.357	Go_X	1.0
528.953	1.0	go	0.343	Go_O	1.0
531.486	1.0	go	0.304	Go_X	1.0
534.019	1.0	go	0.568	Go_O	1.0
536.552	0.25	stopfail	0.409	Go_O	0.0
539.086	1.0	go	0.437	Go_X	1.0
541.619	1.0	go	0.346	Go_O	1.0
544.152	1.0	go	0.706	Go_X	1.0
546.685	0.2	stopfail	0.328	Go_X	0.0
549.219	1.0	go	0.265	Go_O	1.0
551.752	0.15	stopfail	0.369	Go_O	0.0
554.285	1.0	go	0.4	Go_X	1.0
556.818	1.0	go	0.297	Go_X	1.0
559.352	1.0	go	0.327	Go_O	1.0
561.885	1.0	go	0.361	Go_O	1.0
564.418	1.0	go	0.504	Go_X	1.0
566.951	1.0	go	0.287	Go_O	1.0
569.485	1.0	go	0.333	Go_X	1.0
572.018	0.1	stopsuccess	0.0	Go_X	1.0
574.551	1.0	go	0.302	Go_O	1.0
577.084	1.0	go	0.271	Go_X	1.0
579.618	1.0	go	0.34	Go_X	1.0
582.151	1.0	go	0.224	Go_O	1.0
584.684	0.15	stopsuccess	0.0	Go_O	1.0
587.217	1.0	go	0.322	Go_X	1.0
589.751	0.2	stopfail	0.338	Go_X	0.0
592.284	1.0	go	0.42	Go_O	1.0
594.817	1.0	go	0.323	Go_O	1.0
597.351	0.15	stopsuccess	0.0	Go_O	1.0
599.9	1.0	go	0.27	Go_X	1.0
602.434	1.0	go	0.353	Go_X	1.0
604.967	1.0	go	0.346	Go_O	1.0
607.5	1.0	go	0.317	Go_O	0.0
610.033	1.0	go	0.325	Go_X	1.0
612.567	1.0	go	0.465	Go_X	1.0
615.1	1.0	go	0.386	Go_O	1.0
617.633	1.0	go	0.321	Go_X	1.0
620.166	1.0	go	0.323	Go_O	1.0
622.7	1.0	go	0.416	Go_O	1.0
625.233	0.2	stopfail	0.385	Go_X	0.0
627.766	1.0	go	0.419	Go_X	1.0
630.299	1.0	go	0.469	Go_X	1.0
632.833	0.15	stopfail	0.405	Go_O	0.0
635.366	1.0	go	0.327	Go_O	0.0
637.899	0.1	stopsuccess	0.0	Go_X	1.0
640.432	1.0	go	0.361	Go_X	1.0
642.966	1.0	go	0.244	Go_O	1.0
645.499	0.15	stopsuccess	0.0	Go_O	1.0
648.032	1.0	go	0.477	Go_O	1.0
650.565	0.2	stopfail	0.348	Go_X	0.0
653.099	1.0	go	0.414	Go_X	1.0
655.632	1.0	go	0.276	Go_O	1.0
658.165	1.0	go	0.487	Go_X	1.0
660.698	0.15	stopsuccess	0.0	Go_O	1.0
663.232	1.0	go	0.396	Go_X	1.0
665.765	1.0	go	0.376	Go_O	1.0
668.298	1.0	go	0.331	Go_O	1.0
670.831	1.0	go	0.328	Go_X	1.0
673.365	0.2	stopfail	0.396	Go_X	0.0
675.898	1.0	go	0.391	Go_X	1.0
678.431	1.0	go	0.374	Go_O	0.0
680.965	0.15	stopsuccess	0.0	Go_O	1.0
683.514	1.0	go	0.349	Go_O	1.0
686.048	1.0	go	0.44	Go_X	1.0
688.581	1.0	go	0.283	Go_O	1.0
691.114	1.0	go	0.331	Go_X	1.0
693.647	0.2	stopsuccess	0.0	Go_X	1.0
696.181	1.0	go	0.377	Go_X	1.0
698.714	0.25	stopfail	0.442	Go_O	0.0
701.247	1.0	go	0.548	Go_O	0.0
703.78	1.0	go	0.395	Go_O	1.0
706.314	0.2	stopfail	0.325	Go_X	0.0
708.847	1.0	go	0.343	Go_X	1.0
711.38	1.0	go	0.325	Go_X	1.0
713.913	1.0	go	0.315	Go_O	1.0
716.447	1.0	go	0.428	Go_X	1.0
718.98	0.15	stopsuccess	0.0	Go_O	1.0
721.513	1.0	go	0.496	Go_O	1.0
724.046	0.2	stopsuccess	0.0	Go_X	1.0
726.58	1.0	go	0.303	Go_X	0.0
729.113	1.0	go	0.334	Go_O	1.0
731.646	1.0	go	0.409	Go_O	1.0
734.179	1.0	go	0.333	Go_X	1.0
736.713	1.0	go	0.239	Go_O	1.0
739.246	1.0	go	0.264	Go_X	1.0
741.779	0.25	stopfail	0.254	Go_O	0.0
744.312	1.0	go	0.235	Go_O	0.0
746.846	1.0	go	0.417	Go_X	1.0
749.379	0.2	stopfail	0.303	Go_X	0.0
751.912	1.0	go	0.343	Go_O	1.0
754.445	1.0	go	0.352	Go_X	1.0
756.979	0.15	stopsuccess	0.0	Go_O	1.0
759.512	1.0	go	0.345	Go_X	1.0
762.045	1.0	go	0.552	Go_O	1.0
764.579	1.0	go	0.368	Go_O	1.0
767.128	1.0	go	0.497	Go_X	1.0
769.662	0.2	stopsuccess	0.0	Go_X	1.0
772.195	1.0	go	0.542	Go_O	1.0
774.728	0.25	stopfail	0.449	Go_O	0.0
777.261	1.0	go	0.538	Go_X	1.0
779.795	1.0	go	0.359	Go_X	1.0
782.328	1.0	go	0.306	Go_O	1.0
784.861	1.0	go	0.331	Go_O	1.0
787.394	1.0	go	0.453	Go_X	1.0
789.928	0.2	stopfail	0.338	Go_X	0.0
792.461	1.0	go	0.359	Go_O	1.0
794.994	1.0	go	0.285	Go_X	1.0
797.527	0.15	stopfail	0.323	Go_O	0.0
800.061	0.1	stopsuccess	0.0	Go_X	1.0
802.594	1.0	go	0.314	Go_O	1.0
805.127	1.0	go	0.278	Go_X	1.0
807.66	1.0	go	0.304	Go_O	1.0
810.194	1.0	go	0.29	Go_X	1.0
812.727	0.15	stopsuccess	0.0	Go_O	1.0
815.26	1.0	go	0.354	Go_X	1.0
