onset	duration	trial_type	response_time	stim_file	accuracy
338.353	1.0	go	0.639	Go_X	1.0
340.944	1.0	go	0.311	Go_O	1.0
343.469	1.0	go	0.392	Go_X	1.0
345.993	1.0	go	0.309	Go_O	1.0
348.517	1.0	go	0.444	Go_O	1.0
351.041	1.0	go	0.42	Go_X	1.0
353.565	0.25	stop	0.0	Go_O	1.0
356.09	1.0	go	0.462	Go_O	1.0
358.614	0.3	stop	0.408	Go_X	0.0
361.138	1.0	go	0.694	Go_X	1.0
363.662	1.0	go	0.49	Go_X	1.0
366.187	1.0	go	0.601	Go_O	1.0
368.711	0.25	stop	0.0	Go_O	1.0
371.235	1.0	go	0.452	Go_O	1.0
373.759	1.0	go	0.582	Go_X	1.0
376.283	0.3	stop	0.0	Go_X	1.0
378.808	0.35	stop	0.431	Go_O	0.0
381.332	1.0	go	0.491	Go_O	1.0
383.856	1.0	go	0.624	Go_X	1.0
386.38	0.3	stop	0.0	Go_X	1.0
388.905	1.0	go	0.629	Go_X	1.0
391.429	1.0	go	0.679	Go_O	1.0
393.953	0.35	stop	0.0	Go_O	1.0
396.477	1.0	go	0.463	Go_X	1.0
399.002	1.0	go	0.578	Go_O	1.0
401.526	0.4	stop	0.418	Go_X	0.0
404.05	1.0	go	0.58	Go_O	1.0
406.574	1.0	go	0.823	Go_X	1.0
409.098	0.35	stop	0.0	Go_O	1.0
411.623	1.0	go	0.353	Go_X	1.0
414.147	1.0	go	0.49	Go_O	1.0
416.671	1.0	go	0.71	Go_O	1.0
419.195	1.0	go	0.406	Go_X	1.0
421.72	1.0	go	0.534	Go_X	1.0
424.244	0.4	stop	0.0	Go_X	1.0
426.768	1.0	go	0.427	Go_O	1.0
429.292	1.0	go	0.724	Go_X	1.0
431.816	1.0	go	0.505	Go_O	1.0
434.341	1.0	go	0.947	Go_O	1.0
436.865	1.0	go	0.334	Go_X	1.0
439.389	0.45	stop	0.496	Go_O	0.0
441.913	1.0	go	0.53	Go_X	1.0
444.438	1.0	go	0.414	Go_O	1.0
446.962	1.0	go	0.478	Go_X	1.0
449.486	1.0	go	0.623	Go_O	1.0
452.01	1.0	go	0.822	Go_O	1.0
454.534	1.0	go	0.3	Go_X	1.0
457.059	0.4	stop	0.0	Go_X	1.0
459.583	1.0	go	0.48	Go_X	1.0
462.107	1.0	go	0.528	Go_O	1.0
464.631	0.45	stop	0.0	Go_O	1.0
467.156	1.0	go	0.51	Go_O	0.0
469.68	0.5	stop	0.0	Go_X	1.0
472.204	0.55	stop	0.335	Go_O	0.0
474.728	1.0	go	0.774	Go_X	1.0
477.252	1.0	go	0.498	Go_O	1.0
479.777	1.0	go	0.37	Go_X	1.0
482.301	1.0	go	0.698	Go_X	1.0
484.825	0.5	stop	0.0	Go_X	1.0
487.349	1.0	go	0.38	Go_O	1.0
489.874	0.55	stop	0.708	Go_O	0.0
492.398	1.0	go	0.417	Go_X	1.0
494.922	1.0	go	0.535	Go_O	1.0
497.446	1.0	go	0.398	Go_O	1.0
499.97	1.0	go	0.606	Go_X	1.0
502.495	1.0	go	0.0	Go_O	0.0
505.019	1.0	go	0.508	Go_X	1.0
507.543	1.0	go	0.495	Go_X	1.0
510.067	1.0	go	0.317	Go_O	1.0
512.592	1.0	go	0.88	Go_O	1.0
515.116	0.5	stop	0.327	Go_X	0.0
517.64	1.0	go	0.42	Go_X	1.0
520.164	1.0	go	0.429	Go_O	1.0
522.689	1.0	go	0.495	Go_X	1.0
525.213	0.45	stop	0.542	Go_O	0.0
527.737	1.0	go	0.297	Go_O	1.0
530.261	1.0	go	0.415	Go_X	1.0
532.785	1.0	go	0.508	Go_O	1.0
535.31	1.0	go	0.837	Go_X	1.0
537.834	1.0	go	0.708	Go_O	1.0
540.358	1.0	go	0.699	Go_X	1.0
542.882	0.4	stop	0.466	Go_X	0.0
545.407	1.0	go	0.461	Go_O	1.0
547.931	1.0	go	0.568	Go_X	1.0
550.455	0.35	stop	0.0	Go_O	1.0
552.979	1.0	go	0.376	Go_O	1.0
555.503	1.0	go	0.646	Go_X	1.0
558.028	0.4	stop	0.0	Go_X	1.0
560.552	1.0	go	0.428	Go_O	1.0
563.076	0.45	stop	0.0	Go_O	1.0
565.6	1.0	go	0.437	Go_X	1.0
568.125	1.0	go	0.749	Go_O	1.0
570.649	1.0	go	0.671	Go_X	1.0
573.173	1.0	go	0.883	Go_O	1.0
575.697	1.0	go	0.628	Go_X	1.0
578.221	0.5	stop	0.496	Go_X	0.0
580.746	0.45	stop	0.294	Go_O	0.0
583.27	1.0	go	0.301	Go_X	1.0
585.794	1.0	go	0.242	Go_O	1.0
588.318	0.4	stop	0.256	Go_X	0.0
590.843	1.0	go	0.419	Go_O	1.0
593.367	1.0	go	0.489	Go_X	1.0
595.891	1.0	go	0.788	Go_X	1.0
598.415	1.0	go	0.641	Go_O	1.0
600.939	1.0	go	0.545	Go_O	1.0
603.464	1.0	go	0.79	Go_X	1.0
605.988	0.35	stop	0.0	Go_O	1.0
608.512	1.0	go	0.355	Go_O	1.0
611.036	1.0	go	0.616	Go_X	1.0
613.561	1.0	go	0.587	Go_O	1.0
616.085	1.0	go	0.598	Go_X	1.0
618.609	1.0	go	0.671	Go_O	1.0
621.133	0.4	stop	0.0	Go_X	1.0
623.658	1.0	go	0.563	Go_X	1.0
626.182	1.0	go	0.404	Go_X	1.0
628.706	1.0	go	0.528	Go_O	1.0
631.23	1.0	go	0.615	Go_O	1.0
633.754	0.45	stop	0.0	Go_O	1.0
636.279	1.0	go	0.623	Go_X	1.0
638.803	1.0	go	0.528	Go_O	1.0
641.327	0.5	stop	0.698	Go_X	0.0
643.851	1.0	go	0.702	Go_X	1.0
646.376	0.45	stop	0.293	Go_O	0.0
648.9	1.0	go	0.3	Go_O	1.0
651.424	1.0	go	0.213	Go_X	1.0
653.948	1.0	go	0.352	Go_X	1.0
656.472	1.0	go	0.272	Go_O	1.0
658.997	1.0	go	0.296	Go_X	1.0
661.521	1.0	go	0.189	Go_O	1.0
664.045	1.0	go	0.76	Go_O	1.0
666.569	0.4	stop	0.268	Go_X	0.0
669.094	1.0	go	0.415	Go_X	1.0
671.618	1.0	go	0.197	Go_X	0.0
674.142	1.0	go	0.508	Go_O	1.0
676.666	0.35	stop	0.0	Go_O	1.0
679.19	1.0	go	0.322	Go_X	1.0
681.715	1.0	go	0.306	Go_O	1.0
684.239	1.0	go	0.373	Go_O	1.0
686.763	1.0	go	0.556	Go_X	1.0
689.287	0.4	stop	0.395	Go_X	0.0
691.812	1.0	go	0.412	Go_X	1.0
694.336	1.0	go	0.33	Go_O	1.0
696.86	0.35	stop	0.396	Go_O	0.0
699.384	1.0	go	0.502	Go_X	1.0
701.908	1.0	go	0.761	Go_O	1.0
704.433	0.3	stop	0.526	Go_X	0.0
706.957	1.0	go	0.518	Go_O	1.0
709.481	1.0	go	0.463	Go_X	1.0
712.005	0.25	stop	0.392	Go_O	0.0
714.53	1.0	go	0.54	Go_O	1.0
717.054	1.0	go	0.434	Go_X	1.0
719.578	1.0	go	0.519	Go_O	1.0
722.102	1.0	go	0.487	Go_X	1.0
724.626	1.0	go	0.665	Go_X	1.0
727.151	1.0	go	0.501	Go_O	1.0
729.675	0.2	stop	0.491	Go_X	0.0
732.199	1.0	go	0.371	Go_X	1.0
734.723	0.15	stop	0.0	Go_O	1.0
737.248	1.0	go	0.543	Go_O	1.0
739.772	1.0	go	0.679	Go_O	1.0
742.296	1.0	go	0.493	Go_X	1.0
744.82	1.0	go	0.461	Go_X	1.0
747.345	1.0	go	0.62	Go_O	1.0
749.869	0.2	stop	0.0	Go_X	1.0
752.393	1.0	go	0.375	Go_X	1.0
754.917	1.0	go	0.408	Go_O	1.0
757.441	1.0	go	0.558	Go_O	1.0
759.966	0.25	stop	0.0	Go_O	1.0
762.49	0.3	stop	0.452	Go_X	0.0
765.014	0.25	stop	0.296	Go_O	0.0
767.538	1.0	go	0.433	Go_X	1.0
770.063	0.2	stop	0.0	Go_X	1.0
772.587	1.0	go	0.649	Go_X	1.0
775.111	1.0	go	0.44	Go_O	1.0
777.635	1.0	go	0.623	Go_X	1.0
780.159	1.0	go	0.431	Go_O	1.0
782.684	1.0	go	0.44	Go_X	1.0
785.208	1.0	go	0.31	Go_O	1.0
787.732	1.0	go	0.348	Go_O	0.0
790.256	1.0	go	0.367	Go_X	1.0
792.781	0.25	stop	0.0	Go_O	1.0
795.305	1.0	go	0.491	Go_O	1.0
797.829	1.0	go	0.41	Go_X	1.0
800.353	0.3	stop	0.382	Go_X	0.0
802.877	1.0	go	0.41	Go_O	1.0
805.402	1.0	go	0.584	Go_X	1.0
807.926	1.0	go	0.862	Go_O	1.0
810.45	1.0	go	0.423	Go_X	1.0
812.974	1.0	go	0.436	Go_X	1.0
815.499	0.25	stop	0.0	Go_O	1.0
818.023	1.0	go	0.332	Go_O	1.0
820.547	1.0	go	0.624	Go_O	1.0
823.071	1.0	go	0.462	Go_X	1.0
825.595	0.3	stop	0.0	Go_X	1.0
828.12	1.0	go	0.334	Go_O	1.0
830.644	0.35	stop	0.477	Go_O	0.0
833.168	1.0	go	0.527	Go_X	1.0
835.692	1.0	go	0.446	Go_X	1.0
838.217	1.0	go	0.507	Go_O	1.0
840.741	1.0	go	0.555	Go_O	1.0
843.265	1.0	go	0.506	Go_X	1.0
845.789	1.0	go	0.578	Go_O	1.0
848.314	1.0	go	0.675	Go_X	1.0
850.838	0.3	stop	0.601	Go_X	0.0
853.362	1.0	go	0.579	Go_X	1.0
855.886	1.0	go	0.423	Go_O	1.0
858.41	1.0	go	0.51	Go_O	1.0
860.935	1.0	go	0.647	Go_X	1.0
863.459	0.25	stop	0.0	Go_O	1.0
865.983	1.0	go	0.51	Go_X	1.0
868.507	0.3	stop	0.442	Go_X	0.0
871.032	1.0	go	0.299	Go_O	1.0
873.556	1.0	go	0.276	Go_X	1.0
876.08	0.25	stop	0.0	Go_O	1.0
878.604	1.0	go	0.581	Go_O	1.0
881.128	1.0	go	0.564	Go_O	1.0
883.653	1.0	go	0.668	Go_X	1.0
886.177	1.0	go	0.521	Go_X	1.0
888.701	1.0	go	0.536	Go_O	1.0
891.225	1.0	go	0.48	Go_X	1.0
893.75	1.0	go	0.527	Go_O	1.0
896.274	1.0	go	0.803	Go_O	0.0
898.798	1.0	go	0.404	Go_X	1.0
901.322	1.0	go	0.285	Go_O	1.0
903.846	0.3	stop	0.424	Go_X	0.0
906.371	1.0	go	0.482	Go_X	1.0
908.895	1.0	go	0.389	Go_X	1.0
911.419	0.25	stop	0.316	Go_O	0.0
913.943	1.0	go	0.473	Go_O	1.0
916.468	0.2	stop	0.0	Go_X	1.0
918.992	1.0	go	0.434	Go_X	1.0
921.516	1.0	go	0.378	Go_O	1.0
924.04	0.25	stop	0.0	Go_O	1.0
926.564	1.0	go	0.534	Go_O	1.0
929.089	0.3	stop	0.0	Go_X	1.0
931.613	1.0	go	0.588	Go_X	1.0
934.137	1.0	go	0.693	Go_X	1.0
936.661	1.0	go	0.466	Go_O	1.0
939.186	0.35	stop	0.0	Go_O	1.0
941.71	1.0	go	0.618	Go_X	1.0
944.234	1.0	go	0.501	Go_O	1.0
946.758	1.0	go	0.673	Go_O	1.0
949.282	1.0	go	0.901	Go_X	1.0
951.807	0.4	stop	0.0	Go_X	1.0
954.331	1.0	go	0.435	Go_X	1.0
956.855	1.0	go	0.543	Go_O	1.0
959.379	0.45	stop	0.0	Go_O	1.0
961.904	1.0	go	0.383	Go_O	1.0
964.428	1.0	go	0.602	Go_X	1.0
966.952	1.0	go	0.777	Go_X	1.0
969.476	1.0	go	0.633	Go_O	1.0
972.001	0.5	stop	0.0	Go_X	1.0
974.525	1.0	go	0.399	Go_X	1.0
977.049	0.55	stop	0.456	Go_O	0.0
979.573	1.0	go	0.5	Go_O	1.0
982.097	1.0	go	0.954	Go_X	1.0
984.622	0.5	stop	0.0	Go_X	1.0
987.146	1.0	go	0.557	Go_O	1.0
989.67	1.0	go	0.5	Go_O	1.0
992.194	1.0	go	0.352	Go_X	1.0
994.719	1.0	go	0.432	Go_O	1.0
997.243	0.55	stop	0.485	Go_O	0.0
999.767	1.0	go	0.45	Go_X	1.0
1002.291	0.5	stop	0.0	Go_X	1.0
1004.815	1.0	go	0.353	Go_X	1.0
1007.34	1.0	go	0.365	Go_O	1.0
1009.864	1.0	go	0.599	Go_O	0.0
1012.388	1.0	go	0.342	Go_X	1.0
1014.912	1.0	go	0.481	Go_O	1.0
1017.437	1.0	go	0.526	Go_X	1.0
1019.961	0.55	stop	0.4	Go_O	0.0
1022.485	1.0	go	0.451	Go_O	1.0
1025.009	1.0	go	0.54	Go_X	1.0
1027.533	0.5	stop	0.417	Go_X	0.0
1030.058	1.0	go	0.424	Go_X	1.0
1032.582	1.0	go	0.544	Go_O	1.0
1035.106	0.45	stop	0.0	Go_O	1.0
1037.63	1.0	go	0.479	Go_X	1.0
1040.155	1.0	go	0.572	Go_O	1.0
1042.679	1.0	go	0.458	Go_X	1.0
1045.203	1.0	go	0.793	Go_O	1.0
1047.727	0.5	stop	0.495	Go_X	0.0
1050.251	1.0	go	0.617	Go_X	1.0
1052.776	0.45	stop	0.545	Go_O	0.0
1055.3	1.0	go	0.509	Go_O	1.0
1057.824	1.0	go	0.481	Go_X	1.0
1060.348	1.0	go	0.629	Go_O	1.0
1062.873	1.0	go	0.716	Go_X	1.0
1065.397	1.0	go	0.717	Go_O	1.0
1067.921	0.4	stop	0.0	Go_X	1.0
1070.445	1.0	go	0.64	Go_O	0.0
1072.969	1.0	go	0.728	Go_X	1.0
1075.494	0.45	stop	0.0	Go_O	1.0
1078.018	0.5	stop	0.588	Go_X	0.0
1080.542	1.0	go	0.403	Go_O	1.0
1083.066	1.0	go	0.733	Go_X	0.0
1085.591	1.0	go	0.556	Go_O	0.0
1088.115	1.0	go	0.458	Go_X	1.0
1090.639	0.45	stop	0.416	Go_O	0.0
1093.163	1.0	go	0.467	Go_X	1.0
