onset	duration	trial_type	response_time	stim_file	accuracy
51.14	1.0	go	0.0	Go_O	0.0
53.664	1.0	go	0.562	Go_X	1.0
56.188	1.0	go	0.628	Go_X	1.0
58.729	1.0	go	0.533	Go_O	1.0
61.253	1.0	go	0.701	Go_X	1.0
63.777	1.0	go	0.438	Go_O	1.0
66.301	0.25	stopsuccess	0.0	Go_O	1.0
68.826	1.0	go	0.377	Go_X	1.0
71.35	0.3	stopfail	0.432	Go_X	0.0
73.874	1.0	go	0.336	Go_O	1.0
76.398	1.0	go	0.494	Go_X	1.0
78.922	1.0	go	0.351	Go_O	1.0
81.447	0.25	stopsuccess	0.0	Go_O	1.0
83.971	1.0	go	0.332	Go_O	1.0
86.495	1.0	go	0.508	Go_X	1.0
89.019	0.3	stopsuccess	0.0	Go_X	1.0
91.543	0.35	stopfail	0.384	Go_O	0.0
94.067	1.0	go	0.384	Go_O	1.0
96.592	1.0	go	0.405	Go_X	1.0
99.116	0.3	stopfail	0.397	Go_X	0.0
101.64	1.0	go	0.46	Go_O	1.0
104.164	1.0	go	0.271	Go_X	1.0
106.688	0.25	stopsuccess	0.0	Go_O	1.0
109.213	1.0	go	0.463	Go_O	1.0
111.737	1.0	go	0.302	Go_X	1.0
114.261	0.3	stopfail	0.439	Go_X	0.0
116.785	1.0	go	0.622	Go_O	1.0
119.309	1.0	go	0.409	Go_X	1.0
121.833	0.25	stopfail	0.399	Go_O	0.0
124.358	1.0	go	0.299	Go_O	1.0
126.882	1.0	go	0.578	Go_X	1.0
129.406	1.0	go	0.475	Go_X	1.0
131.93	1.0	go	0.532	Go_O	1.0
134.454	1.0	go	0.35	Go_X	1.0
136.979	0.2	stopsuccess	0.0	Go_X	1.0
139.503	1.0	go	0.373	Go_O	1.0
142.027	1.0	go	0.32	Go_X	1.0
144.551	1.0	go	0.31	Go_O	1.0
147.075	1.0	go	0.375	Go_O	1.0
149.599	1.0	go	0.519	Go_X	1.0
152.124	0.25	stopsuccess	0.0	Go_O	1.0
154.648	1.0	go	0.443	Go_O	1.0
157.172	1.0	go	0.415	Go_X	1.0
159.696	1.0	go	0.317	Go_X	0.0
162.22	1.0	go	0.333	Go_O	1.0
164.745	1.0	go	0.409	Go_O	1.0
167.269	1.0	go	0.547	Go_X	1.0
169.793	0.3	stopfail	0.459	Go_X	0.0
172.317	1.0	go	0.461	Go_X	1.0
174.841	1.0	go	0.434	Go_O	1.0
177.365	0.25	stopsuccess	0.0	Go_O	1.0
179.89	1.0	go	0.457	Go_X	1.0
182.414	0.3	stopsuccess	0.0	Go_X	1.0
184.938	0.35	stopfail	0.348	Go_O	0.0
187.462	1.0	go	0.523	Go_O	1.0
189.986	1.0	go	0.482	Go_X	1.0
192.511	1.0	go	0.619	Go_O	1.0
195.035	1.0	go	0.645	Go_O	1.0
197.559	0.3	stopsuccess	0.0	Go_X	1.0
200.083	1.0	go	0.628	Go_X	1.0
202.607	0.35	stopsuccess	0.0	Go_O	1.0
205.132	1.0	go	0.573	Go_O	1.0
207.656	1.0	go	0.696	Go_X	1.0
210.18	1.0	go	0.495	Go_O	1.0
212.704	1.0	go	0.588	Go_X	1.0
215.228	1.0	go	0.468	Go_X	1.0
217.752	1.0	go	0.608	Go_O	1.0
220.277	1.0	go	0.571	Go_X	1.0
222.801	1.0	go	0.754	Go_O	1.0
225.325	1.0	go	0.622	Go_O	1.0
227.849	0.4	stopfail	0.506	Go_X	0.0
230.373	1.0	go	0.534	Go_X	1.0
232.898	1.0	go	0.439	Go_O	1.0
235.422	1.0	go	0.492	Go_X	1.0
237.946	0.35	stopfail	0.445	Go_O	0.0
240.47	1.0	go	0.561	Go_O	1.0
242.994	1.0	go	0.579	Go_X	1.0
245.518	1.0	go	0.411	Go_X	1.0
248.043	1.0	go	0.404	Go_O	1.0
250.567	1.0	go	0.499	Go_X	1.0
253.091	1.0	go	0.484	Go_O	1.0
255.615	0.3	stopfail	0.425	Go_X	0.0
258.139	1.0	go	0.473	Go_X	1.0
260.664	1.0	go	0.458	Go_O	1.0
263.188	0.25	stopsuccess	0.0	Go_O	1.0
265.712	1.0	go	0.39	Go_X	1.0
268.236	1.0	go	0.492	Go_O	1.0
270.76	0.3	stopfail	0.357	Go_X	0.0
273.284	1.0	go	0.539	Go_O	1.0
275.809	0.25	stopsuccess	0.0	Go_O	1.0
278.333	1.0	go	0.434	Go_X	1.0
280.857	1.0	go	0.425	Go_O	1.0
283.381	1.0	go	0.505	Go_X	1.0
285.905	1.0	go	0.494	Go_X	1.0
288.43	1.0	go	0.54	Go_O	1.0
290.954	0.3	stopsuccess	0.0	Go_X	1.0
293.478	0.35	stopsuccess	0.0	Go_O	1.0
296.002	1.0	go	0.337	Go_X	1.0
298.526	1.0	go	0.595	Go_O	1.0
301.05	0.4	stopfail	0.504	Go_X	0.0
303.575	1.0	go	0.564	Go_O	1.0
306.099	1.0	go	0.539	Go_X	1.0
308.623	1.0	go	0.428	Go_O	1.0
311.147	1.0	go	0.383	Go_X	1.0
313.671	1.0	go	0.511	Go_X	1.0
316.196	1.0	go	0.306	Go_O	1.0
318.72	0.35	stopfail	0.424	Go_O	0.0
321.244	1.0	go	0.515	Go_O	1.0
323.768	1.0	go	0.385	Go_X	1.0
326.292	1.0	go	0.458	Go_X	1.0
328.816	1.0	go	0.326	Go_O	1.0
331.341	1.0	go	0.486	Go_O	1.0
333.865	0.3	stopfail	0.407	Go_X	0.0
336.389	1.0	go	0.461	Go_X	1.0
338.913	1.0	go	0.443	Go_X	1.0
341.437	1.0	go	0.518	Go_O	1.0
343.962	1.0	go	0.435	Go_X	1.0
346.486	0.25	stopsuccess	0.0	Go_O	1.0
349.01	1.0	go	0.473	Go_O	1.0
351.534	1.0	go	0.413	Go_O	1.0
354.058	0.3	stopsuccess	0.0	Go_X	1.0
356.582	1.0	go	0.319	Go_X	1.0
359.107	0.35	stopfail	0.439	Go_O	0.0
361.631	1.0	go	0.379	Go_X	1.0
364.155	1.0	go	0.597	Go_O	1.0
366.679	1.0	go	0.501	Go_O	1.0
369.203	1.0	go	0.544	Go_X	1.0
371.728	1.0	go	0.557	Go_O	1.0
374.252	1.0	go	0.485	Go_X	1.0
376.776	1.0	go	0.506	Go_X	1.0
379.3	0.3	stopsuccess	0.0	Go_X	1.0
381.824	1.0	go	0.293	Go_O	1.0
384.348	1.0	go	0.451	Go_X	1.0
386.873	1.0	go	0.492	Go_O	1.0
389.397	0.35	stopsuccess	0.0	Go_O	1.0
391.921	1.0	go	0.766	Go_X	1.0
394.445	1.0	go	0.363	Go_O	1.0
396.969	1.0	go	0.408	Go_O	1.0
399.494	1.0	go	0.485	Go_X	1.0
402.018	0.4	stopfail	0.484	Go_X	0.0
404.542	1.0	go	0.495	Go_X	1.0
407.066	1.0	go	0.413	Go_O	1.0
409.59	0.35	stopsuccess	0.0	Go_O	1.0
412.114	1.0	go	0.385	Go_X	1.0
414.639	1.0	go	0.452	Go_O	1.0
417.163	0.4	stopsuccess	0.0	Go_X	1.0
419.687	1.0	go	0.617	Go_X	1.0
422.211	1.0	go	0.351	Go_O	1.0
424.735	0.45	stopfail	0.434	Go_O	0.0
427.26	1.0	go	0.435	Go_X	1.0
429.784	1.0	go	0.384	Go_O	1.0
432.308	1.0	go	0.588	Go_O	1.0
434.832	1.0	go	0.376	Go_X	1.0
437.356	1.0	go	0.461	Go_X	1.0
439.88	1.0	go	0.535	Go_O	1.0
442.405	0.4	stopfail	0.371	Go_X	0.0
444.929	1.0	go	0.542	Go_X	1.0
447.453	0.35	stopfail	0.342	Go_O	0.0
449.977	1.0	go	0.411	Go_O	1.0
452.501	1.0	go	0.36	Go_X	1.0
455.026	1.0	go	0.43	Go_O	1.0
457.55	1.0	go	0.495	Go_O	1.0
460.074	1.0	go	0.377	Go_X	1.0
462.598	0.3	stopsuccess	0.0	Go_X	1.0
465.122	1.0	go	0.501	Go_O	1.0
467.646	1.0	go	0.351	Go_X	1.0
470.171	1.0	go	0.394	Go_X	1.0
472.695	0.35	stopfail	0.284	Go_O	0.0
475.219	0.3	stopfail	0.415	Go_X	0.0
477.743	0.25	stopfail	0.312	Go_O	0.0
480.267	1.0	go	0.598	Go_O	1.0
482.792	0.2	stopsuccess	0.0	Go_X	1.0
485.316	1.0	go	0.476	Go_O	1.0
487.84	1.0	go	0.339	Go_X	1.0
490.364	1.0	go	0.621	Go_O	1.0
492.888	1.0	go	0.305	Go_X	1.0
495.412	1.0	go	0.44	Go_X	1.0
497.937	1.0	go	0.466	Go_O	1.0
500.461	1.0	go	0.391	Go_X	1.0
502.985	1.0	go	0.435	Go_O	1.0
505.509	0.25	stopsuccess	0.0	Go_O	1.0
508.033	1.0	go	0.414	Go_X	1.0
510.558	1.0	go	0.353	Go_O	1.0
513.082	0.3	stopfail	0.428	Go_X	0.0
515.606	1.0	go	0.407	Go_X	1.0
518.13	1.0	go	0.356	Go_O	1.0
520.654	1.0	go	0.308	Go_O	0.0
523.178	1.0	go	0.303	Go_X	1.0
525.703	1.0	go	0.338	Go_O	1.0
528.227	0.25	stopsuccess	0.0	Go_O	1.0
530.751	1.0	go	0.57	Go_X	1.0
533.275	1.0	go	0.438	Go_X	1.0
535.799	1.0	go	0.311	Go_O	1.0
538.324	0.3	stopfail	0.468	Go_X	0.0
540.848	1.0	go	0.557	Go_O	1.0
543.372	0.25	stopsuccess	0.0	Go_O	1.0
545.896	1.0	go	0.485	Go_X	0.0
548.42	1.0	go	0.455	Go_X	1.0
550.945	1.0	go	0.568	Go_O	1.0
553.469	1.0	go	0.622	Go_X	1.0
555.993	1.0	go	0.563	Go_O	1.0
558.517	1.0	go	0.555	Go_O	1.0
561.041	1.0	go	0.694	Go_X	1.0
563.565	0.3	stopsuccess	0.0	Go_X	1.0
566.09	1.0	go	0.509	Go_O	1.0
568.614	1.0	go	0.512	Go_X	1.0
571.138	1.0	go	0.379	Go_X	1.0
573.662	1.0	go	0.384	Go_O	1.0
576.186	0.35	stopsuccess	0.0	Go_O	1.0
578.711	1.0	go	0.697	Go_O	1.0
581.235	0.4	stopsuccess	0.0	Go_X	1.0
583.759	1.0	go	0.748	Go_X	1.0
586.283	1.0	go	0.584	Go_X	1.0
588.807	0.45	stopsuccess	0.0	Go_O	1.0
591.331	1.0	go	0.459	Go_O	1.0
593.856	1.0	go	0.525	Go_O	1.0
596.38	1.0	go	0.357	Go_X	1.0
598.904	1.0	go	0.512	Go_O	1.0
601.428	1.0	go	0.339	Go_X	1.0
603.952	1.0	go	0.406	Go_O	1.0
606.477	1.0	go	0.42	Go_X	1.0
609.001	1.0	go	0.44	Go_X	1.0
611.525	1.0	go	0.529	Go_O	1.0
614.049	1.0	go	0.44	Go_X	1.0
616.573	0.5	stopfail	0.448	Go_X	0.0
619.097	1.0	go	0.44	Go_O	1.0
621.622	1.0	go	0.41	Go_O	1.0
624.146	0.45	stopfail	0.502	Go_O	0.0
626.67	1.0	go	0.521	Go_X	1.0
629.194	0.4	stopfail	0.436	Go_X	0.0
631.718	1.0	go	0.382	Go_O	1.0
634.243	1.0	go	0.343	Go_X	1.0
636.767	0.35	stopsuccess	0.0	Go_O	1.0
639.291	1.0	go	0.453	Go_O	1.0
641.815	0.4	stopfail	0.521	Go_X	0.0
644.339	1.0	go	0.718	Go_X	1.0
646.863	1.0	go	0.412	Go_O	1.0
649.388	1.0	go	0.59	Go_X	1.0
651.912	0.35	stopsuccess	0.0	Go_O	1.0
654.436	1.0	go	0.5	Go_O	1.0
656.96	1.0	go	0.336	Go_X	1.0
659.484	1.0	go	0.441	Go_O	1.0
662.009	1.0	go	0.346	Go_X	1.0
664.533	0.4	stopfail	0.483	Go_X	0.0
667.057	1.0	go	0.402	Go_O	1.0
669.581	1.0	go	0.736	Go_X	1.0
672.105	0.35	stopfail	0.444	Go_O	0.0
674.629	1.0	go	0.431	Go_X	1.0
677.154	1.0	go	0.398	Go_O	1.0
679.678	1.0	go	0.452	Go_X	1.0
682.202	1.0	go	0.34	Go_O	1.0
684.726	0.3	stopsuccess	0.0	Go_X	1.0
687.25	1.0	go	0.586	Go_O	1.0
689.775	0.35	stopfail	0.322	Go_O	0.0
692.299	1.0	go	0.722	Go_X	1.0
694.823	1.0	go	0.526	Go_X	1.0
697.347	0.3	stopsuccess	0.0	Go_X	1.0
699.871	1.0	go	0.384	Go_O	1.0
702.395	1.0	go	0.279	Go_O	1.0
704.92	1.0	go	0.389	Go_X	1.0
707.444	1.0	go	0.409	Go_O	1.0
709.968	0.35	stopfail	0.429	Go_O	0.0
712.492	1.0	go	0.319	Go_X	1.0
715.016	0.3	stopfail	0.438	Go_X	0.0
717.541	1.0	go	0.615	Go_X	1.0
720.065	1.0	go	0.553	Go_O	1.0
722.589	1.0	go	0.397	Go_O	1.0
725.113	1.0	go	0.306	Go_X	1.0
727.637	1.0	go	0.339	Go_X	1.0
730.161	1.0	go	0.238	Go_O	1.0
732.686	0.25	stopfail	0.487	Go_O	0.0
735.21	1.0	go	0.568	Go_O	1.0
737.734	1.0	go	0.287	Go_X	1.0
740.258	0.2	stopsuccess	0.0	Go_X	1.0
742.782	1.0	go	0.413	Go_X	1.0
745.307	1.0	go	0.286	Go_O	1.0
747.831	0.25	stopfail	0.332	Go_O	0.0
750.355	1.0	go	0.409	Go_O	1.0
752.879	1.0	go	0.44	Go_X	1.0
755.403	1.0	go	0.336	Go_O	1.0
757.927	1.0	go	0.479	Go_X	1.0
760.452	0.2	stopsuccess	0.0	Go_X	1.0
762.976	1.0	go	0.435	Go_X	1.0
765.5	0.25	stopsuccess	0.0	Go_O	1.0
768.024	1.0	go	0.374	Go_O	1.0
770.548	1.0	go	0.555	Go_X	1.0
773.073	1.0	go	0.56	Go_O	1.0
775.597	1.0	go	0.47	Go_X	1.0
778.121	1.0	go	0.408	Go_O	1.0
780.645	0.3	stopfail	0.53	Go_X	0.0
783.169	1.0	go	0.6	Go_X	1.0
785.693	1.0	go	0.385	Go_O	1.0
788.218	0.25	stopsuccess	0.0	Go_O	1.0
790.742	0.3	stopsuccess	0.0	Go_X	1.0
793.266	1.0	go	0.418	Go_X	1.0
795.79	1.0	go	0.276	Go_O	1.0
798.314	1.0	go	0.429	Go_X	1.0
800.839	1.0	go	0.36	Go_O	1.0
803.363	0.35	stopsuccess	0.0	Go_O	1.0
805.887	1.0	go	0.588	Go_X	1.0
