frame	onset	duration	trial_type	event_type	response_type	response_time	stim_file	accuracy
0	314.745		loss-noreward	ImageDisplay1		0.0		
0	316.968	0.75	loss-noreward	StartDisplay				
0	317.72		loss-noreward	ImageDisplay2		0.0		
0	320.729	1.6	loss-noreward	ChoiceDisplay	1	1.15	1	1
0	321.9	0.45	loss-noreward	ChosenDisplay		0.0		
0	322.334	0.25	loss-noreward	TurnDisplay				
0	322.585	0.75	loss-noreward	OutcomeDisplay				
1	323.337		control-reward	ImageDisplay1		0.0		
1	325.577	0.75	control-reward	StartDisplay				
1	326.329		control-reward	ImageDisplay2		0.0		
1	329.338	1.6	control-reward	ChoiceDisplay	1	1.248	1	1
1	330.609	0.352	control-reward	ChosenDisplay		0.0		
1	330.943	0.25	control-reward	TurnDisplay				
1	331.194	0.75	control-reward	OutcomeDisplay				
2	331.946		loss-noreward	ImageDisplay1		0.0		
2	333.935	0.75	loss-noreward	StartDisplay				
2	334.688		loss-noreward	ImageDisplay2		0.0		
2	337.947	1.6	loss-noreward	ChoiceDisplay	1	1.111	1	1
2	339.084	0.489	loss-noreward	ChosenDisplay		0.0		
2	339.552	0.25	loss-noreward	TurnDisplay				
2	339.803	0.75	loss-noreward	OutcomeDisplay				
3	340.555		win-reward	ImageDisplay1		0.0		
3	342.795	0.75	win-reward	StartDisplay				
3	343.547		win-reward	ImageDisplay2		0.0		
3	346.556	1.6	win-reward	ChoiceDisplay	1	1.217	1	1
3	347.793	0.383	win-reward	ChosenDisplay		0.0		
3	348.161	0.25	win-reward	TurnDisplay				
3	348.412	0.75	win-reward	OutcomeDisplay				
4	349.164		loss-reward	ImageDisplay1		0.0		
4	351.404	0.75	loss-reward	StartDisplay				
4	352.156		loss-reward	ImageDisplay2		0.0		
4	355.165	1.6	loss-reward	ChoiceDisplay	1	0.976	1	1
4	356.152	0.624	loss-reward	ChosenDisplay		0.0		
4	356.77	0.25	loss-reward	TurnDisplay				
4	357.021	0.75	loss-reward	OutcomeDisplay				
5	357.773		loss-reward	ImageDisplay1		0.0		
5	360.013	0.75	loss-reward	StartDisplay				
5	360.765		loss-reward	ImageDisplay2		0.0		
5	363.774	1.6	loss-reward	ChoiceDisplay	1	0.992	1	1
5	364.794	0.608	loss-reward	ChosenDisplay		0.0		
5	365.379	0.25	loss-reward	TurnDisplay				
5	365.63	0.75	loss-reward	OutcomeDisplay				
6	366.382		win-reward	ImageDisplay1		0.0		
6	368.371	0.75	win-reward	StartDisplay				
6	369.123		win-reward	ImageDisplay2		0.0		
6	372.383	1.6	win-reward	ChoiceDisplay	1	1.142	1	1
6	373.553	0.458	win-reward	ChosenDisplay		0.0		
6	373.988	0.25	win-reward	TurnDisplay				
6	374.239	0.75	win-reward	OutcomeDisplay				
7	374.991		control-reward	ImageDisplay1		0.0		
7	377.231	0.75	control-reward	StartDisplay				
7	377.983		control-reward	ImageDisplay2		0.0		
7	380.992	1.6	control-reward	ChoiceDisplay	1	0.785	1	1
7	381.795	0.815	control-reward	ChosenDisplay		0.0		
7	382.597	0.25	control-reward	TurnDisplay				
7	382.848	0.75	control-reward	OutcomeDisplay				
8	383.6		loss-reward	ImageDisplay1		0.0		
8	385.589	0.75	loss-reward	StartDisplay				
8	386.341		loss-reward	ImageDisplay2		0.0		
8	389.601	1.6	loss-reward	ChoiceDisplay	1	0.879	1	1
8	390.504	0.721	loss-reward	ChosenDisplay		0.0		
8	391.206	0.25	loss-reward	TurnDisplay				
8	391.457	0.75	loss-reward	OutcomeDisplay				
9	392.209		loss-noreward	ImageDisplay1		0.0		
9	394.198	0.75	loss-noreward	StartDisplay				
9	394.95		loss-noreward	ImageDisplay2		0.0		
9	398.21	1.6	loss-noreward	ChoiceDisplay	1	1.25	1	1
9	399.481	0.35	loss-noreward	ChosenDisplay		0.0		
9	399.815	0.25	loss-noreward	TurnDisplay				
9	400.066	0.75	loss-noreward	OutcomeDisplay				
10	400.818		loss-reward	ImageDisplay1		0.0		
10	402.807	0.75	loss-reward	StartDisplay				
10	403.559		loss-reward	ImageDisplay2		0.0		
10	406.819	1.6	loss-reward	ChoiceDisplay	1	0.994	1	1
10	407.839	0.606	loss-reward	ChosenDisplay		0.0		
10	408.424	0.25	loss-reward	TurnDisplay				
10	408.675	0.75	loss-reward	OutcomeDisplay				
11	409.427		control-noreward	ImageDisplay1		0.0		
11	411.416	0.75	control-noreward	StartDisplay				
11	412.168		control-noreward	ImageDisplay2		0.0		
11	415.428	1.6	control-noreward	ChoiceDisplay	1	0.793	1	1
11	416.247	0.807	control-noreward	ChosenDisplay		0.0		
11	417.033	0.25	control-noreward	TurnDisplay				
11	417.284	0.75	control-noreward	OutcomeDisplay				
12	418.036		win-reward	ImageDisplay1		0.0		
12	420.025	0.75	win-reward	StartDisplay				
12	420.777		win-reward	ImageDisplay2		0.0		
12	424.037	1.6	win-reward	ChoiceDisplay	1	0.676	1	1
12	424.739	0.924	win-reward	ChosenDisplay		0.0		
12	425.642	0.25	win-reward	TurnDisplay				
12	425.893	0.75	win-reward	OutcomeDisplay				
13	426.645		control-reward	ImageDisplay1		0.0		
13	428.634	0.75	control-reward	StartDisplay				
13	429.386		control-reward	ImageDisplay2		0.0		
13	432.646	1.6	control-reward	ChoiceDisplay	1	0.848	1	1
13	433.515	0.752	control-reward	ChosenDisplay		0.0		
13	434.251	0.25	control-reward	TurnDisplay				
13	434.501	0.75	control-reward	OutcomeDisplay				
14	435.254		control-reward	ImageDisplay1		0.0		
14	437.494	0.75	control-reward	StartDisplay				
14	438.246		control-reward	ImageDisplay2		0.0		
14	441.255	1.6	control-reward	ChoiceDisplay	1	1.02	1	1
14	442.291	0.58	control-reward	ChosenDisplay		0.0		
14	442.86	0.25	control-reward	TurnDisplay				
14	443.11	0.75	control-reward	OutcomeDisplay				
15	443.863		control-reward	ImageDisplay1		0.0		
15	445.852	0.75	control-reward	StartDisplay				
15	446.604		control-reward	ImageDisplay2		0.0		
15	449.864	1.6	control-reward	ChoiceDisplay	1	1.114	1	1
15	451.001	0.486	control-reward	ChosenDisplay		0.0		
15	451.469	0.25	control-reward	TurnDisplay				
15	451.719	0.75	control-reward	OutcomeDisplay				
16	452.472		win-noreward	ImageDisplay1		0.0		
16	454.712	0.75	win-noreward	StartDisplay				
16	455.464		win-noreward	ImageDisplay2		0.0		
16	458.473	1.6	win-noreward	ChoiceDisplay	1	1.003	1	1
16	459.493	0.597	win-noreward	ChosenDisplay		0.0		
16	460.078	0.25	win-noreward	TurnDisplay				
16	460.328	0.75	win-noreward	OutcomeDisplay				
17	461.081		control-reward	ImageDisplay1		0.0		
17	463.321	0.75	control-reward	StartDisplay				
17	464.073		control-reward	ImageDisplay2		0.0		
17	467.082	1.6	control-reward	ChoiceDisplay	1	0.92	1	1
17	468.018	0.68	control-reward	ChosenDisplay		0.0		
17	468.687	0.25	control-reward	TurnDisplay				
17	468.937	0.75	control-reward	OutcomeDisplay				
18	469.69		win-reward	ImageDisplay1		0.0		
18	471.679	0.75	win-reward	StartDisplay				
18	472.431		win-reward	ImageDisplay2		0.0		
18	475.691	1.6	win-reward	ChoiceDisplay	1	0.879	1	1
18	476.594	0.721	win-reward	ChosenDisplay		0.0		
18	477.296	0.25	win-reward	TurnDisplay				
18	477.546	0.75	win-reward	OutcomeDisplay				
19	478.299		control-reward	ImageDisplay1		0.0		
19	480.539	0.75	control-reward	StartDisplay				
19	481.291		control-reward	ImageDisplay2		0.0		
19	484.3	1.6	control-reward	ChoiceDisplay	1	0.83	1	1
19	485.152	0.77	control-reward	ChosenDisplay		0.0		
19	485.905	0.25	control-reward	TurnDisplay				
19	486.155	0.75	control-reward	OutcomeDisplay				
20	486.908		control-noreward	ImageDisplay1		0.0		
20	489.148	0.75	control-noreward	StartDisplay				
20	489.9		control-noreward	ImageDisplay2		0.0		
20	492.909	1.6	control-noreward	ChoiceDisplay	1	1.074	1	1
20	493.995	0.526	control-noreward	ChosenDisplay		0.0		
20	494.514	0.25	control-noreward	TurnDisplay				
20	494.764	0.75	control-noreward	OutcomeDisplay				
21	495.517		loss-reward	ImageDisplay1		0.0		
21	497.757	0.75	loss-reward	StartDisplay				
21	498.509		loss-reward	ImageDisplay2		0.0		
21	501.518	1.6	loss-reward	ChoiceDisplay	1	0.859	1	1
21	502.404	0.741	loss-reward	ChosenDisplay		0.0		
21	503.122	0.25	loss-reward	TurnDisplay				
21	503.373	0.75	loss-reward	OutcomeDisplay				
22	504.125		win-reward	ImageDisplay1		0.0		
22	506.365	0.75	win-reward	StartDisplay				
22	507.118		win-reward	ImageDisplay2		0.0		
22	510.127	1.6	win-reward	ChoiceDisplay	1	0.891	1	1
22	511.029	0.709	win-reward	ChosenDisplay		0.0		
22	511.731	0.25	win-reward	TurnDisplay				
22	511.982	0.75	win-reward	OutcomeDisplay				
23	512.734		control-reward	ImageDisplay1		0.0		
23	514.724	0.75	control-reward	StartDisplay				
23	515.476		control-reward	ImageDisplay2		0.0		
23	518.736	1.6	control-reward	ChoiceDisplay	1	0.938	1	1
23	519.688	0.662	control-reward	ChosenDisplay		0.0		
23	520.34	0.25	control-reward	TurnDisplay				
23	520.591	0.75	control-reward	OutcomeDisplay				
24	521.343		loss-noreward	ImageDisplay1		0.0		
24	523.583	0.75	loss-noreward	StartDisplay				
24	524.336		loss-noreward	ImageDisplay2		0.0		
24	527.345	1.6	loss-noreward	ChoiceDisplay	1	0.957	1	1
24	528.314	0.643	loss-noreward	ChosenDisplay		0.0		
24	528.949	0.25	loss-noreward	TurnDisplay				
24	529.2	0.75	loss-noreward	OutcomeDisplay				
25	529.952		control-noreward	ImageDisplay1		0.0		
25	532.192	0.75	control-noreward	StartDisplay				
25	532.945		control-noreward	ImageDisplay2		0.0		
25	535.954	1.6	control-noreward	ChoiceDisplay	1	0.991	1	1
25	536.973	0.609	control-noreward	ChosenDisplay		0.0		
25	537.558	0.25	control-noreward	TurnDisplay				
25	537.809	0.75	control-noreward	OutcomeDisplay				
26	538.561		loss-reward	ImageDisplay1		0.0		
26	540.801	0.75	loss-reward	StartDisplay				
26	541.554		loss-reward	ImageDisplay2		0.0		
26	544.563	1.6	loss-reward	ChoiceDisplay	1	1.128	1	1
26	545.716	0.472	loss-reward	ChosenDisplay		0.0		
26	546.167	0.25	loss-reward	TurnDisplay				
26	546.418	0.75	loss-reward	OutcomeDisplay				
27	547.17		control-reward	ImageDisplay1		0.0		
27	549.41	0.75	control-reward	StartDisplay				
27	550.163		control-reward	ImageDisplay2		0.0		
27	553.172	1.6	control-reward	ChoiceDisplay	1	0.938	1	1
27	554.124	0.662	control-reward	ChosenDisplay		0.0		
27	554.776	0.25	control-reward	TurnDisplay				
27	555.027	0.75	control-reward	OutcomeDisplay				
28	555.779		win-noreward	ImageDisplay1		0.0		
28	558.019	0.75	win-noreward	StartDisplay				
28	558.772		win-noreward	ImageDisplay2		0.0		
28	561.78	1.6	win-noreward	ChoiceDisplay	1	1.119	1	1
28	562.917	0.481	win-noreward	ChosenDisplay		0.0		
28	563.385	0.25	win-noreward	TurnDisplay				
28	563.636	0.75	win-noreward	OutcomeDisplay				
29	564.388		control-noreward	ImageDisplay1		0.0		
29	566.377	0.75	control-noreward	StartDisplay				
29	567.13		control-noreward	ImageDisplay2		0.0		
29	570.389	1.6	control-noreward	ChoiceDisplay	1	1.043	1	1
29	571.459	0.557	control-noreward	ChosenDisplay		0.0		
29	571.994	0.25	control-noreward	TurnDisplay				
29	572.245	0.75	control-noreward	OutcomeDisplay				
30	572.997		loss-noreward	ImageDisplay1		0.0		
30	574.986	0.75	loss-noreward	StartDisplay				
30	575.739		loss-noreward	ImageDisplay2		0.0		
30	578.998	1.6	loss-noreward	ChoiceDisplay	1	1.107	1	1
30	580.118	0.493	loss-noreward	ChosenDisplay		0.0		
30	580.603	0.25	loss-noreward	TurnDisplay				
30	580.854	0.75	loss-noreward	OutcomeDisplay				
31	581.606		win-reward	ImageDisplay1		0.0		
31	583.846	0.75	win-reward	StartDisplay				
31	584.598		win-reward	ImageDisplay2		0.0		
31	587.607	1.6	win-reward	ChoiceDisplay	1	0.943	1	1
31	588.577	0.657	win-reward	ChosenDisplay		0.0		
31	589.212	0.25	win-reward	TurnDisplay				
31	589.463	0.75	win-reward	OutcomeDisplay				
32	590.215		control-reward	ImageDisplay1		0.0		
32	592.455	0.75	control-reward	StartDisplay				
32	593.207		control-reward	ImageDisplay2		0.0		
32	596.216	1.6	control-reward	ChoiceDisplay	1	1.221	1	1
32	597.453	0.379	control-reward	ChosenDisplay		0.0		
32	597.821	0.25	control-reward	TurnDisplay				
32	598.072	0.75	control-reward	OutcomeDisplay				
33	598.824		win-reward	ImageDisplay1		0.0		
33	600.813	0.75	win-reward	StartDisplay				
33	601.566		win-reward	ImageDisplay2		0.0		
33	604.825	1.6	win-reward	ChoiceDisplay	1	1.031	1	1
33	605.878	0.569	win-reward	ChosenDisplay		0.0		
33	606.43	0.25	win-reward	TurnDisplay				
33	606.681	0.75	win-reward	OutcomeDisplay				
34	607.433		win-reward	ImageDisplay1		0.0		
34	609.422	0.75	win-reward	StartDisplay				
34	610.175		win-reward	ImageDisplay2		0.0		
34	613.434	1.6	win-reward	ChoiceDisplay	1	1.102	1	1
34	614.554	0.498	win-reward	ChosenDisplay		0.0		
34	615.039	0.25	win-reward	TurnDisplay				
34	615.29	0.75	win-reward	OutcomeDisplay				
35	616.042		control-noreward	ImageDisplay1		0.0		
35	618.031	0.75	control-noreward	StartDisplay				
35	618.784		control-noreward	ImageDisplay2		0.0		
35	622.043	1.6	control-noreward	ChoiceDisplay	1	1.019	1	1
35	623.08	0.581	control-noreward	ChosenDisplay		0.0		
35	623.648	0.25	control-noreward	TurnDisplay				
35	623.899	0.75	control-noreward	OutcomeDisplay				
36	624.651		loss-noreward	ImageDisplay1		0.0		
36	626.891	0.75	loss-noreward	StartDisplay				
36	627.643		loss-noreward	ImageDisplay2		0.0		
36	630.652	1.6	loss-noreward	ChoiceDisplay	1	1.079	1	1
36	631.755	0.521	loss-noreward	ChosenDisplay		0.0		
36	632.257	0.25	loss-noreward	TurnDisplay				
36	632.508	0.75	loss-noreward	OutcomeDisplay				
37	633.26		loss-noreward	ImageDisplay1		0.0		
37	635.5	0.75	loss-noreward	StartDisplay				
37	636.252		loss-noreward	ImageDisplay2		0.0		
37	639.261	1.6	loss-noreward	ChoiceDisplay	1	1.179	1	1
37	640.465	0.421	loss-noreward	ChosenDisplay		0.0		
37	640.866	0.25	loss-noreward	TurnDisplay				
37	641.117	0.75	loss-noreward	OutcomeDisplay				
38	641.869		win-reward	ImageDisplay1		0.0		
38	643.858	0.75	win-reward	StartDisplay				
38	644.61		win-reward	ImageDisplay2		0.0		
38	647.87	1.6	win-reward	ChoiceDisplay	1	0.849	1	1
38	648.739	0.751	win-reward	ChosenDisplay		0.0		
38	649.475	0.25	win-reward	TurnDisplay				
38	649.726	0.75	win-reward	OutcomeDisplay				
39	650.478		win-noreward	ImageDisplay1		0.0		
39	652.467	0.75	win-noreward	StartDisplay				
39	653.219		win-noreward	ImageDisplay2		0.0		
39	656.479	1.6	win-noreward	ChoiceDisplay	1	0.995	1	1
39	657.499	0.605	win-noreward	ChosenDisplay		0.0		
39	658.084	0.25	win-noreward	TurnDisplay				
39	658.335	0.75	win-noreward	OutcomeDisplay				
40	659.087		win-noreward	ImageDisplay1		0.0		
40	661.076	0.75	win-noreward	StartDisplay				
40	661.828		win-noreward	ImageDisplay2		0.0		
40	665.088	1.6	win-noreward	ChoiceDisplay	1	1.026	1	1
40	666.141	0.574	win-noreward	ChosenDisplay		0.0		
40	666.693	0.25	win-noreward	TurnDisplay				
40	666.944	0.75	win-noreward	OutcomeDisplay				
41	667.696		loss-reward	ImageDisplay1		0.0		
41	669.936	0.75	loss-reward	StartDisplay				
41	670.688		loss-reward	ImageDisplay2		0.0		
41	673.697	1.6	loss-reward	ChoiceDisplay	1	1.288	1	1
41	675.001	0.312	loss-reward	ChosenDisplay		0.0		
41	675.302	0.25	loss-reward	TurnDisplay				
41	675.553	0.75	loss-reward	OutcomeDisplay				
42	676.305		control-reward	ImageDisplay1		0.0		
42	678.294	0.75	control-reward	StartDisplay				
42	679.046		control-reward	ImageDisplay2		0.0		
42	682.306	1.6	control-reward	ChoiceDisplay	1	1.152	1	1
42	683.476	0.448	control-reward	ChosenDisplay		0.0		
42	683.911	0.25	control-reward	TurnDisplay				
42	684.162	0.75	control-reward	OutcomeDisplay				
43	684.914		win-reward	ImageDisplay1		0.0		
43	687.154	0.75	win-reward	StartDisplay				
43	687.906		win-reward	ImageDisplay2		0.0		
43	690.915	1.6	win-reward	ChoiceDisplay	1	1.154	1	1
43	692.085	0.446	win-reward	ChosenDisplay		0.0		
43	692.52	0.25	win-reward	TurnDisplay				
43	692.77	0.75	win-reward	OutcomeDisplay				
44	693.523		win-noreward	ImageDisplay1		0.0		
44	695.512	0.75	win-noreward	StartDisplay				
44	696.264		win-noreward	ImageDisplay2		0.0		
44	699.524	1.6	win-noreward	ChoiceDisplay	1	1.523	1	1
44	701.062	0.0	win-noreward	ChosenDisplay		0.0		
44	701.129	0.25	win-noreward	TurnDisplay				
44	701.296	0.75	win-noreward	OutcomeDisplay				
45	702.048		loss-reward	ImageDisplay1		0.0		
45	704.054	0.75	loss-reward	StartDisplay				
45	704.806		loss-reward	ImageDisplay2		0.0		
45	708.049	1.6	loss-reward	ChoiceDisplay	1	0.884	1	1
45	708.952	0.716	loss-reward	ChosenDisplay		0.0		
45	709.654	0.25	loss-reward	TurnDisplay				
45	709.905	0.75	loss-reward	OutcomeDisplay				
46	710.657		win-reward	ImageDisplay1		0.0		
46	712.646	0.75	win-reward	StartDisplay				
46	713.399		win-reward	ImageDisplay2		0.0		
46	716.658	1.6	win-reward	ChoiceDisplay	1	0.726	1	1
46	717.411	0.874	win-reward	ChosenDisplay		0.0		
46	718.263	0.25	win-reward	TurnDisplay				
46	718.514	0.75	win-reward	OutcomeDisplay				
47	719.266		loss-reward	ImageDisplay1		0.0		
47	721.506	0.75	loss-reward	StartDisplay				
47	722.258		loss-reward	ImageDisplay2		0.0		
47	725.267	1.6	loss-reward	ChoiceDisplay	1	0.898	1	1
47	726.187	0.702	loss-reward	ChosenDisplay		0.0		
47	726.872	0.25	loss-reward	TurnDisplay				
47	727.123	0.75	loss-reward	OutcomeDisplay				
48	727.875		loss-noreward	ImageDisplay1		0.0		
48	729.864	0.75	loss-noreward	StartDisplay				
48	730.617		loss-noreward	ImageDisplay2		0.0		
48	733.876	1.6	loss-noreward	ChoiceDisplay	1	0.865	1	1
48	734.762	0.735	loss-noreward	ChosenDisplay		0.0		
48	735.481	0.25	loss-noreward	TurnDisplay				
48	735.732	0.75	loss-noreward	OutcomeDisplay				
49	736.484		win-reward	ImageDisplay1		0.0		
49	738.724	0.75	win-reward	StartDisplay				
49	739.476		win-reward	ImageDisplay2		0.0		
49	742.485	1.6	win-reward	ChoiceDisplay	1	1.05	1	1
49	743.555	0.55	win-reward	ChosenDisplay		0.0		
49	744.09	0.25	win-reward	TurnDisplay				
49	744.341	0.75	win-reward	OutcomeDisplay				
50	745.093		control-reward	ImageDisplay1		0.0		
50	747.082	0.75	control-reward	StartDisplay				
50	747.834		control-reward	ImageDisplay2		0.0		
50	751.094	1.6	control-reward	ChoiceDisplay	1	0.806	1	1
50	751.913	0.794	control-reward	ChosenDisplay		0.0		
50	752.699	0.25	control-reward	TurnDisplay				
50	752.95	0.75	control-reward	OutcomeDisplay				
51	753.702		loss-reward	ImageDisplay1		0.0		
51	755.691	0.75	loss-reward	StartDisplay				
51	756.443		loss-reward	ImageDisplay2		0.0		
51	759.703	1.6	loss-reward	ChoiceDisplay	1	0.855	1	1
51	760.572	0.745	loss-reward	ChosenDisplay		0.0		
51	761.308	0.25	loss-reward	TurnDisplay				
51	761.559	0.75	loss-reward	OutcomeDisplay				
52	762.311		loss-noreward	ImageDisplay1		0.0		
52	764.3	0.75	loss-noreward	StartDisplay				
52	765.052		loss-noreward	ImageDisplay2		0.0		
52	768.312	1.6	loss-noreward	ChoiceDisplay	1	0.735	1	1
52	769.064	0.865	loss-noreward	ChosenDisplay		0.0		
52	769.917	0.25	loss-noreward	TurnDisplay				
52	770.168	0.75	loss-noreward	OutcomeDisplay				
53	770.92		control-noreward	ImageDisplay1		0.0		
53	772.909	0.75	control-noreward	StartDisplay				
53	773.661		control-noreward	ImageDisplay2		0.0		
53	776.921	1.6	control-noreward	ChoiceDisplay	1	1.022	1	1
53	777.957	0.578	control-noreward	ChosenDisplay		0.0		
53	778.526	0.25	control-noreward	TurnDisplay				
53	778.777	0.75	control-noreward	OutcomeDisplay				
54	779.529		control-noreward	ImageDisplay1		0.0		
54	781.769	0.75	control-noreward	StartDisplay				
54	782.521		control-noreward	ImageDisplay2		0.0		
54	785.53	1.6	control-noreward	ChoiceDisplay	1	0.8	1	1
54	786.349	0.8	control-noreward	ChosenDisplay		0.0		
54	787.135	0.25	control-noreward	TurnDisplay				
54	787.386	0.75	control-noreward	OutcomeDisplay				
55	788.138		loss-noreward	ImageDisplay1		0.0		
55	790.378	0.75	loss-noreward	StartDisplay				
55	791.13		loss-noreward	ImageDisplay2		0.0		
55	794.139	1.6	loss-noreward	ChoiceDisplay	1	0.966	1	1
55	795.125	0.634	loss-noreward	ChosenDisplay		0.0		
55	795.744	0.25	loss-noreward	TurnDisplay				
55	795.995	0.75	loss-noreward	OutcomeDisplay				
56	796.747		win-noreward	ImageDisplay1		0.0		
56	798.987	0.75	win-noreward	StartDisplay				
56	799.739		win-noreward	ImageDisplay2		0.0		
56	802.748	1.6	win-noreward	ChoiceDisplay	1	1.038	1	1
56	803.801	0.562	win-noreward	ChosenDisplay		0.0		
56	804.353	0.25	win-noreward	TurnDisplay				
56	804.603	0.75	win-noreward	OutcomeDisplay				
57	805.356		win-reward	ImageDisplay1		0.0		
57	807.596	0.75	win-reward	StartDisplay				
57	808.348		win-reward	ImageDisplay2		0.0		
57	811.357	1.6	win-reward	ChoiceDisplay	1	0.999	1	1
57	812.377	0.601	win-reward	ChosenDisplay		0.0		
57	812.962	0.25	win-reward	TurnDisplay				
57	813.212	0.75	win-reward	OutcomeDisplay				
58	813.965		loss-reward	ImageDisplay1		0.0		
58	815.954	0.75	loss-reward	StartDisplay				
58	816.706		loss-reward	ImageDisplay2		0.0		
58	819.966	1.6	loss-reward	ChoiceDisplay	1	1.089	1	1
58	821.069	0.511	loss-reward	ChosenDisplay		0.0		
58	821.571	0.25	loss-reward	TurnDisplay				
58	821.821	0.75	loss-reward	OutcomeDisplay				
59	822.574		win-noreward	ImageDisplay1		0.0		
59	824.563	0.75	win-noreward	StartDisplay				
59	825.315		win-noreward	ImageDisplay2		0.0		
59	828.575	1.6	win-noreward	ChoiceDisplay	1	0.883	1	1
59	829.478	0.717	win-noreward	ChosenDisplay		0.0		
59	830.18	0.25	win-noreward	TurnDisplay				
59	830.43	0.75	win-noreward	OutcomeDisplay				
60	831.183		control-reward	ImageDisplay1		0.0		
60	833.423	0.75	control-reward	StartDisplay				
60	834.175		control-reward	ImageDisplay2		0.0		
60	837.184	1.6	control-reward	ChoiceDisplay	1	1.104	1	1
60	838.304	0.496	control-reward	ChosenDisplay		0.0		
60	838.789	0.25	control-reward	TurnDisplay				
60	839.039	0.75	control-reward	OutcomeDisplay				
61	839.792		loss-noreward	ImageDisplay1		0.0		
61	842.032	0.75	loss-noreward	StartDisplay				
61	842.784		loss-noreward	ImageDisplay2		0.0		
61	845.793	1.6	loss-noreward	ChoiceDisplay	1	1.174	1	1
61	846.98	0.426	loss-noreward	ChosenDisplay		0.0		
61	847.398	0.25	loss-noreward	TurnDisplay				
61	847.648	0.75	loss-noreward	OutcomeDisplay				
62	848.401		win-reward	ImageDisplay1		0.0		
62	850.39	0.75	win-reward	StartDisplay				
62	851.142		win-reward	ImageDisplay2		0.0		
62	854.402	1.6	win-reward	ChoiceDisplay	1	1.476	1	1
62	855.89	0.124	win-reward	ChosenDisplay		0.0		
62	856.007	0.25	win-reward	TurnDisplay				
62	856.257	0.75	win-reward	OutcomeDisplay				
63	857.01		loss-reward	ImageDisplay1		0.0		
63	858.999	0.75	loss-reward	StartDisplay				
63	859.751		loss-reward	ImageDisplay2		0.0		
63	863.011	1.6	loss-reward	ChoiceDisplay	1	1.07	1	1
63	864.097	0.53	loss-reward	ChosenDisplay		0.0		
63	864.615	0.25	loss-reward	TurnDisplay				
63	864.866	0.75	loss-reward	OutcomeDisplay				
64	865.618		control-noreward	ImageDisplay1		0.0		
64	867.858	0.75	control-noreward	StartDisplay				
64	868.611		control-noreward	ImageDisplay2		0.0		
64	871.62	1.6	control-noreward	ChoiceDisplay	1	1.037	1	1
64	872.673	0.563	control-noreward	ChosenDisplay		0.0		
64	873.224	0.25	control-noreward	TurnDisplay				
64	873.475	0.75	control-noreward	OutcomeDisplay				
65	874.227		control-noreward	ImageDisplay1		0.0		
65	876.467	0.75	control-noreward	StartDisplay				
65	877.22		control-noreward	ImageDisplay2		0.0		
65	880.229	1.6	control-noreward	ChoiceDisplay	1	1.145	1	1
65	881.399	0.455	control-noreward	ChosenDisplay		0.0		
65	881.833	0.25	control-noreward	TurnDisplay				
65	882.084	0.75	control-noreward	OutcomeDisplay				
66	882.836		win-reward	ImageDisplay1		0.0		
66	885.076	0.75	win-reward	StartDisplay				
66	885.829		win-reward	ImageDisplay2		0.0		
66	888.838	1.6	win-reward	ChoiceDisplay	1	1.056	1	1
66	889.907	0.544	win-reward	ChosenDisplay		0.0		
66	890.442	0.25	win-reward	TurnDisplay				
66	890.693	0.75	win-reward	OutcomeDisplay				
67	891.445		loss-reward	ImageDisplay1		0.0		
67	893.685	0.75	loss-reward	StartDisplay				
67	894.438		loss-reward	ImageDisplay2		0.0		
67	897.447	1.6	loss-reward	ChoiceDisplay	1	1.058	1	1
67	898.533	0.542	loss-reward	ChosenDisplay		0.0		
67	899.051	0.25	loss-reward	TurnDisplay				
67	899.302	0.75	loss-reward	OutcomeDisplay				
68	900.054		control-reward	ImageDisplay1		0.0		
68	902.044	0.75	control-reward	StartDisplay				
68	902.796		control-reward	ImageDisplay2		0.0		
68	906.056	1.6	control-reward	ChoiceDisplay	1	0.98	1	1
68	907.059	0.62	control-reward	ChosenDisplay		0.0		
68	907.66	0.25	control-reward	TurnDisplay				
68	907.911	0.75	control-reward	OutcomeDisplay				
69	908.663		control-noreward	ImageDisplay1		0.0		
69	910.653	0.75	control-noreward	StartDisplay				
69	911.405		control-noreward	ImageDisplay2		0.0		
69	914.665	1.6	control-noreward	ChoiceDisplay	1	1.023	1	1
69	915.701	0.577	control-noreward	ChosenDisplay		0.0		
69	916.269	0.25	control-noreward	TurnDisplay				
69	916.52	0.75	control-noreward	OutcomeDisplay				
70	917.272		control-noreward	ImageDisplay1		0.0		
70	919.512	0.75	control-noreward	StartDisplay				
70	920.265		control-noreward	ImageDisplay2		0.0		
70	923.274	1.6	control-noreward	ChoiceDisplay	1	1.027	1	1
70	924.327	0.573	control-noreward	ChosenDisplay		0.0		
70	924.878	0.25	control-noreward	TurnDisplay				
70	925.129	0.75	control-noreward	OutcomeDisplay				
71	925.881		win-noreward	ImageDisplay1		0.0		
71	928.121	0.75	win-noreward	StartDisplay				
71	928.873		win-noreward	ImageDisplay2		0.0		
71	931.882	1.6	win-noreward	ChoiceDisplay	1	1.108	1	1
71	933.002	0.492	win-noreward	ChosenDisplay		0.0		
71	933.487	0.25	win-noreward	TurnDisplay				
71	933.738	0.75	win-noreward	OutcomeDisplay				
72	934.49		win-reward	ImageDisplay1		0.0		
72	936.479	0.75	win-reward	StartDisplay				
72	937.232		win-reward	ImageDisplay2		0.0		
72	940.491	1.6	win-reward	ChoiceDisplay	1	0.917	1	1
72	941.428	0.683	win-reward	ChosenDisplay		0.0		
72	942.096	0.25	win-reward	TurnDisplay				
72	942.347	0.75	win-reward	OutcomeDisplay				
73	943.099		loss-noreward	ImageDisplay1		0.0		
73	945.339	0.75	loss-noreward	StartDisplay				
73	946.091		loss-noreward	ImageDisplay2		0.0		
73	949.1	1.6	loss-noreward	ChoiceDisplay	1	1.05	1	1
73	950.17	0.55	loss-noreward	ChosenDisplay		0.0		
73	950.705	0.25	loss-noreward	TurnDisplay				
73	950.956	0.75	loss-noreward	OutcomeDisplay				
74	951.708		control-noreward	ImageDisplay1		0.0		
74	953.948	0.75	control-noreward	StartDisplay				
74	954.7		control-noreward	ImageDisplay2		0.0		
74	957.709	1.6	control-noreward	ChoiceDisplay	1	0.841	1	1
74	958.562	0.759	control-noreward	ChosenDisplay		0.0		
74	959.314	0.25	control-noreward	TurnDisplay				
74	959.565	0.75	control-noreward	OutcomeDisplay				
75	960.317		loss-reward	ImageDisplay1		0.0		
75	962.557	0.75	loss-reward	StartDisplay				
75	963.309		loss-reward	ImageDisplay2		0.0		
75	966.318	1.6	loss-reward	ChoiceDisplay	1	0.947	1	1
75	967.288	0.653	loss-reward	ChosenDisplay		0.0		
75	967.923	0.25	loss-reward	TurnDisplay				
75	968.174	0.75	loss-reward	OutcomeDisplay				
76	968.926		win-noreward	ImageDisplay1		0.0		
76	970.915	0.75	win-noreward	StartDisplay				
76	971.668		win-noreward	ImageDisplay2		0.0		
76	974.927	1.6	win-noreward	ChoiceDisplay	1	0.956	1	1
76	975.897	0.644	win-noreward	ChosenDisplay		0.0		
76	976.532	0.25	win-noreward	TurnDisplay				
76	976.783	0.75	win-noreward	OutcomeDisplay				
77	977.535		control-noreward	ImageDisplay1		0.0		
77	979.524	0.75	control-noreward	StartDisplay				
77	980.277		control-noreward	ImageDisplay2		0.0		
77	983.536	1.6	control-noreward	ChoiceDisplay	1	0.936	1	1
77	984.489	0.664	control-noreward	ChosenDisplay		0.0		
77	985.141	0.25	control-noreward	TurnDisplay				
77	985.392	0.75	control-noreward	OutcomeDisplay				
78	986.144		control-noreward	ImageDisplay1		0.0		
78	988.133	0.75	control-noreward	StartDisplay				
78	988.886		control-noreward	ImageDisplay2		0.0		
78	992.145	1.6	control-noreward	ChoiceDisplay	1	0.798	1	1
78	992.964	0.802	control-noreward	ChosenDisplay		0.0		
78	993.75	0.25	control-noreward	TurnDisplay				
78	994.001	0.75	control-noreward	OutcomeDisplay				
79	994.753		control-reward	ImageDisplay1		0.0		
79	996.742	0.75	control-reward	StartDisplay				
79	997.494		control-reward	ImageDisplay2		0.0		
79	1000.754	1.6	control-reward	ChoiceDisplay	1	0.793	1	1
79	1001.573	0.807	control-reward	ChosenDisplay		0.0		
79	1002.359	0.25	control-reward	TurnDisplay				
79	1002.61	0.75	control-reward	OutcomeDisplay				
80	1003.362		win-noreward	ImageDisplay1		0.0		
80	1005.351	0.75	win-noreward	StartDisplay				
80	1006.103		win-noreward	ImageDisplay2		0.0		
80	1009.363	1.6	win-noreward	ChoiceDisplay	1	0.811	1	1
80	1010.199	0.789	win-noreward	ChosenDisplay		0.0		
80	1010.968	0.25	win-noreward	TurnDisplay				
80	1011.219	0.75	win-noreward	OutcomeDisplay				
81	1011.971		win-reward	ImageDisplay1		0.0		
81	1014.211	0.75	win-reward	StartDisplay				
81	1014.963		win-reward	ImageDisplay2		0.0		
81	1017.972	1.6	win-reward	ChoiceDisplay	1	0.992	1	1
81	1018.992	0.608	win-reward	ChosenDisplay		0.0		
81	1019.577	0.25	win-reward	TurnDisplay				
81	1019.828	0.75	win-reward	OutcomeDisplay				
82	1020.58		win-noreward	ImageDisplay1		0.0		
82	1022.82	0.75	win-noreward	StartDisplay				
82	1023.572		win-noreward	ImageDisplay2		0.0		
82	1026.581	1.6	win-noreward	ChoiceDisplay	1	1.078	1	1
82	1027.684	0.522	win-noreward	ChosenDisplay		0.0		
82	1028.186	0.25	win-noreward	TurnDisplay				
82	1028.437	0.75	win-noreward	OutcomeDisplay				
83	1029.189		loss-reward	ImageDisplay1		0.0		
83	1031.178	0.75	loss-reward	StartDisplay				
83	1031.93		loss-reward	ImageDisplay2		0.0		
83	1035.19	1.6	loss-reward	ChoiceDisplay	1	0.899	1	1
83	1036.109	0.701	loss-reward	ChosenDisplay		0.0		
83	1036.795	0.25	loss-reward	TurnDisplay				
83	1037.046	0.75	loss-reward	OutcomeDisplay				
84	1037.798		loss-noreward	ImageDisplay1		0.0		
84	1039.787	0.75	loss-noreward	StartDisplay				
84	1040.539		loss-noreward	ImageDisplay2		0.0		
84	1043.799	1.6	loss-noreward	ChoiceDisplay	1	0.753	1	1
84	1044.568	0.847	loss-noreward	ChosenDisplay		0.0		
84	1045.404	0.25	loss-noreward	TurnDisplay				
84	1045.655	0.75	loss-noreward	OutcomeDisplay				
85	1046.407		loss-noreward	ImageDisplay1		0.0		
85	1048.396	0.75	loss-noreward	StartDisplay				
85	1049.148		loss-noreward	ImageDisplay2		0.0		
85	1052.408	1.6	loss-noreward	ChoiceDisplay	1	0.742	1	1
85	1053.177	0.858	loss-noreward	ChosenDisplay		0.0		
85	1054.013	0.25	loss-noreward	TurnDisplay				
85	1054.264	0.75	loss-noreward	OutcomeDisplay				
86	1055.016		loss-reward	ImageDisplay1		0.0		
86	1057.005	0.75	loss-reward	StartDisplay				
86	1057.757		loss-reward	ImageDisplay2		0.0		
86	1061.017	1.6	loss-reward	ChoiceDisplay	1	0.665	1	1
86	1061.702	0.935	loss-reward	ChosenDisplay		0.0		
86	1062.622	0.25	loss-reward	TurnDisplay				
86	1062.872	0.75	loss-reward	OutcomeDisplay				
87	1063.625		control-noreward	ImageDisplay1		0.0		
87	1065.865	0.75	control-noreward	StartDisplay				
87	1066.617		control-noreward	ImageDisplay2		0.0		
87	1069.626	1.6	control-noreward	ChoiceDisplay	1	0.65	1	1
87	1070.295	0.95	control-noreward	ChosenDisplay		0.0		
87	1071.231	0.25	control-noreward	TurnDisplay				
87	1071.481	0.75	control-noreward	OutcomeDisplay				
88	1072.234		control-reward	ImageDisplay1		0.0		
88	1074.223	0.75	control-reward	StartDisplay				
88	1074.975		control-reward	ImageDisplay2		0.0		
88	1078.235	1.6	control-reward	ChoiceDisplay	1	0.563	1	1
88	1078.82	1.037	control-reward	ChosenDisplay		0.0		
88	1079.84	0.25	control-reward	TurnDisplay				
88	1080.09	0.75	control-reward	OutcomeDisplay				
89	1080.843		control-noreward	ImageDisplay1		0.0		
89	1082.832	0.75	control-noreward	StartDisplay				
89	1083.584		control-noreward	ImageDisplay2		0.0		
89	1086.844	1.6	control-noreward	ChoiceDisplay	1	0.884	1	1
89	1087.747	0.716	control-noreward	ChosenDisplay		0.0		
89	1088.449	0.25	control-noreward	TurnDisplay				
89	1088.699	0.75	control-noreward	OutcomeDisplay				
90	1089.452		loss-reward	ImageDisplay1		0.0		
90	1091.441	0.75	loss-reward	StartDisplay				
90	1092.193		loss-reward	ImageDisplay2		0.0		
90	1095.453	1.6	loss-reward	ChoiceDisplay	1	0.87	1	1
90	1096.339	0.73	loss-reward	ChosenDisplay		0.0		
90	1097.058	0.25	loss-reward	TurnDisplay				
90	1097.308	0.75	loss-reward	OutcomeDisplay				
91	1098.061		loss-reward	ImageDisplay1		0.0		
91	1100.301	0.75	loss-reward	StartDisplay				
91	1101.053		loss-reward	ImageDisplay2		0.0		
91	1104.062	1.6	loss-reward	ChoiceDisplay	1	0.994	1	1
91	1105.081	0.606	loss-reward	ChosenDisplay		0.0		
91	1105.667	0.25	loss-reward	TurnDisplay				
91	1105.917	0.75	loss-reward	OutcomeDisplay				
92	1106.67		win-reward	ImageDisplay1		0.0		
92	1108.91	0.75	win-reward	StartDisplay				
92	1109.662		win-reward	ImageDisplay2		0.0		
92	1112.671	1.6	win-reward	ChoiceDisplay	1	0.878	1	1
92	1113.573	0.722	win-reward	ChosenDisplay		0.0		
92	1114.276	0.25	win-reward	TurnDisplay				
92	1114.526	0.75	win-reward	OutcomeDisplay				
93	1115.279		win-noreward	ImageDisplay1		0.0		
93	1117.519	0.75	win-noreward	StartDisplay				
93	1118.271		win-noreward	ImageDisplay2		0.0		
93	1121.28	1.6	win-noreward	ChoiceDisplay	1	0.671	1	1
93	1121.965	0.929	win-noreward	ChosenDisplay		0.0		
93	1122.885	0.25	win-noreward	TurnDisplay				
93	1123.135	0.75	win-noreward	OutcomeDisplay				
94	1123.888		win-noreward	ImageDisplay1		0.0		
94	1125.877	0.75	win-noreward	StartDisplay				
94	1126.629		win-noreward	ImageDisplay2		0.0		
94	1129.889	1.6	win-noreward	ChoiceDisplay	1	1.028	1	1
94	1130.942	0.572	win-noreward	ChosenDisplay		0.0		
94	1131.493	0.25	win-noreward	TurnDisplay				
94	1131.744	0.75	win-noreward	OutcomeDisplay				
95	1132.496		win-noreward	ImageDisplay1		0.0		
95	1134.736	0.75	win-noreward	StartDisplay				
95	1135.489		win-noreward	ImageDisplay2		0.0		
95	1138.498	1.6	win-noreward	ChoiceDisplay	1	1.008	1	1
95	1139.517	0.592	win-noreward	ChosenDisplay		0.0		
95	1140.102	0.25	win-noreward	TurnDisplay				
95	1140.353	0.75	win-noreward	OutcomeDisplay				
