onset	duration	trial_type	response_time	stim_file	accuracy
36.616	1.0	go	0.832	Go_X	0.0
39.216	1.0	go	0.447	Go_O	1.0
41.749	1.0	go	0.37	Go_X	1.0
44.282	1.0	go	0.431	Go_O	1.0
46.816	1.0	go	0.45	Go_O	1.0
49.365	1.0	go	0.558	Go_X	1.0
51.899	0.25	stopfail	0.411	Go_O	0.0
54.432	1.0	go	0.522	Go_O	1.0
56.965	0.2	stopsuccess	0.0	Go_X	1.0
59.498	1.0	go	0.674	Go_X	1.0
62.032	1.0	go	0.563	Go_X	1.0
64.565	1.0	go	0.498	Go_O	1.0
67.098	0.25	stopsuccess	0.0	Go_O	1.0
69.631	1.0	go	0.44	Go_X	1.0
72.165	1.0	go	0.447	Go_O	1.0
74.698	0.3	stopsuccess	0.0	Go_X	1.0
77.231	0.35	stopfail	0.427	Go_O	0.0
79.764	1.0	go	0.537	Go_O	1.0
82.298	1.0	go	0.52	Go_X	1.0
84.831	0.3	stopsuccess	0.0	Go_X	1.0
87.364	1.0	go	0.417	Go_X	1.0
89.897	1.0	go	0.606	Go_O	1.0
92.431	0.35	stopsuccess	0.0	Go_O	1.0
94.964	1.0	go	0.0	Go_X	0.0
97.497	1.0	go	0.482	Go_O	1.0
100.03	0.4	stopsuccess	0.0	Go_X	1.0
102.564	1.0	go	0.429	Go_O	1.0
105.097	1.0	go	0.592	Go_X	1.0
107.63	0.45	stopfail	0.536	Go_O	0.0
110.163	1.0	go	0.592	Go_X	1.0
112.697	1.0	go	0.834	Go_O	1.0
115.246	1.0	go	0.627	Go_O	1.0
117.78	1.0	go	0.728	Go_X	1.0
120.313	1.0	go	0.686	Go_X	1.0
122.846	0.4	stopsuccess	0.0	Go_X	1.0
125.379	1.0	go	0.408	Go_O	1.0
127.913	1.0	go	0.583	Go_X	1.0
130.446	1.0	go	0.742	Go_O	1.0
132.979	1.0	go	0.777	Go_X	0.0
135.512	1.0	go	0.634	Go_O	1.0
138.046	0.45	stopfail	0.542	Go_O	0.0
140.579	1.0	go	0.345	Go_X	1.0
143.112	1.0	go	0.674	Go_O	1.0
145.645	1.0	go	0.548	Go_O	1.0
148.179	1.0	go	0.543	Go_X	1.0
150.712	1.0	go	0.932	Go_O	1.0
153.245	1.0	go	0.57	Go_X	1.0
155.778	0.4	stopsuccess	0.0	Go_X	1.0
158.312	1.0	go	0.556	Go_X	1.0
160.845	1.0	go	0.722	Go_O	1.0
163.378	0.45	stopfail	0.604	Go_O	0.0
165.911	1.0	go	0.57	Go_O	1.0
168.445	0.4	stopfail	0.464	Go_X	0.0
170.978	0.35	stopsuccess	0.0	Go_O	1.0
173.511	1.0	go	0.56	Go_X	1.0
176.044	1.0	go	0.664	Go_X	1.0
178.578	1.0	go	0.54	Go_O	1.0
181.127	1.0	go	0.634	Go_O	1.0
183.661	0.4	stopfail	0.589	Go_X	0.0
186.194	1.0	go	0.754	Go_X	1.0
188.727	0.35	stopsuccess	0.0	Go_O	1.0
191.26	1.0	go	0.783	Go_O	1.0
193.794	1.0	go	0.743	Go_X	1.0
196.327	1.0	go	0.837	Go_X	1.0
198.86	1.0	go	0.679	Go_O	1.0
201.393	1.0	go	0.863	Go_X	1.0
203.927	1.0	go	0.749	Go_O	1.0
206.46	1.0	go	0.731	Go_X	1.0
208.993	1.0	go	0.543	Go_O	1.0
211.526	1.0	go	0.726	Go_O	1.0
214.06	0.4	stopsuccess	0.0	Go_X	1.0
216.593	1.0	go	0.0	Go_X	0.0
219.126	1.0	go	0.636	Go_X	1.0
221.659	1.0	go	0.718	Go_O	1.0
224.193	0.45	stopfail	0.625	Go_O	0.0
226.726	1.0	go	0.491	Go_O	1.0
229.259	1.0	go	0.603	Go_X	1.0
231.792	1.0	go	0.543	Go_O	1.0
234.326	1.0	go	0.568	Go_X	1.0
236.875	1.0	go	0.809	Go_X	1.0
239.409	1.0	go	0.753	Go_O	1.0
241.942	0.4	stopsuccess	0.0	Go_X	1.0
244.475	1.0	go	0.789	Go_O	0.0
247.008	1.0	go	0.656	Go_X	1.0
249.542	0.45	stopsuccess	0.0	Go_O	1.0
252.075	1.0	go	0.546	Go_X	1.0
254.608	1.0	go	0.649	Go_O	1.0
257.141	0.5	stopfail	0.601	Go_X	0.0
259.675	1.0	go	0.629	Go_O	1.0
262.208	0.45	stopsuccess	0.0	Go_O	1.0
264.741	1.0	go	0.686	Go_X	1.0
267.274	1.0	go	0.673	Go_X	1.0
269.808	1.0	go	0.794	Go_O	1.0
272.341	1.0	go	0.785	Go_X	1.0
274.874	1.0	go	0.676	Go_O	1.0
277.407	0.5	stopsuccess	0.0	Go_X	1.0
279.941	0.55	stopfail	0.668	Go_O	0.0
282.474	1.0	go	0.821	Go_X	1.0
285.007	1.0	go	0.744	Go_O	1.0
287.54	0.5	stopsuccess	0.0	Go_X	1.0
290.074	1.0	go	0.0	Go_O	0.0
292.623	1.0	go	0.846	Go_X	1.0
295.157	1.0	go	0.617	Go_X	1.0
297.69	1.0	go	0.824	Go_O	1.0
300.223	1.0	go	0.823	Go_O	1.0
302.756	1.0	go	0.759	Go_X	1.0
305.29	0.55	stopsuccess	0.0	Go_O	1.0
307.823	1.0	go	0.0	Go_O	0.0
310.356	1.0	go	0.581	Go_X	1.0
312.889	1.0	go	0.885	Go_X	1.0
315.423	1.0	go	0.621	Go_O	1.0
317.956	1.0	go	0.833	Go_O	1.0
320.489	0.6	stopfail	0.848	Go_X	0.0
323.022	1.0	go	0.642	Go_X	1.0
325.556	1.0	go	0.67	Go_O	1.0
328.089	1.0	go	0.744	Go_X	1.0
330.622	1.0	go	0.528	Go_X	1.0
333.155	0.55	stopfail	0.66	Go_O	0.0
335.689	1.0	go	0.574	Go_O	1.0
338.222	1.0	go	0.617	Go_O	1.0
340.755	0.5	stopsuccess	0.0	Go_X	1.0
343.288	1.0	go	0.758	Go_X	1.0
345.822	0.55	stopfail	0.653	Go_O	0.0
348.371	1.0	go	0.962	Go_O	1.0
350.905	1.0	go	0.675	Go_X	1.0
353.438	1.0	go	0.364	Go_O	1.0
355.971	1.0	go	0.896	Go_X	1.0
358.504	1.0	go	0.703	Go_X	1.0
361.038	1.0	go	0.795	Go_O	1.0
363.571	1.0	go	0.951	Go_O	1.0
366.104	0.5	stopsuccess	0.0	Go_X	1.0
368.637	1.0	go	0.705	Go_X	1.0
371.171	1.0	go	0.823	Go_O	1.0
373.704	1.0	go	0.0	Go_X	0.0
376.237	0.55	stopfail	0.568	Go_O	0.0
378.77	1.0	go	0.711	Go_O	1.0
381.304	1.0	go	0.655	Go_X	1.0
383.837	1.0	go	0.598	Go_X	1.0
386.37	1.0	go	0.502	Go_O	1.0
388.903	0.5	stopfail	0.526	Go_X	0.0
391.437	1.0	go	0.631	Go_X	1.0
393.97	1.0	go	0.738	Go_O	1.0
396.503	0.45	stopfail	0.656	Go_O	0.0
399.036	1.0	go	0.849	Go_X	1.0
401.57	1.0	go	0.743	Go_O	1.0
404.103	0.4	stopsuccess	0.0	Go_X	1.0
406.636	1.0	go	0.554	Go_X	1.0
409.169	1.0	go	0.525	Go_O	1.0
411.703	0.45	stopsuccess	0.0	Go_O	1.0
414.252	1.0	go	0.825	Go_O	1.0
416.786	1.0	go	0.963	Go_X	1.0
419.319	1.0	go	0.469	Go_O	1.0
421.852	1.0	go	0.612	Go_X	1.0
424.385	1.0	go	0.826	Go_O	1.0
426.919	1.0	go	0.638	Go_X	1.0
429.452	0.5	stopfail	0.579	Go_X	0.0
431.985	1.0	go	0.613	Go_O	1.0
434.518	0.45	stopfail	0.546	Go_O	0.0
437.052	1.0	go	0.57	Go_X	1.0
439.585	1.0	go	0.798	Go_X	1.0
442.118	1.0	go	0.756	Go_O	1.0
444.651	1.0	go	0.727	Go_X	1.0
447.185	1.0	go	0.833	Go_O	1.0
449.718	0.4	stopsuccess	0.0	Go_X	1.0
452.251	1.0	go	0.61	Go_O	1.0
454.784	1.0	go	0.615	Go_X	1.0
457.318	1.0	go	0.586	Go_O	1.0
459.851	0.45	stopfail	0.598	Go_O	0.0
462.384	0.4	stopsuccess	0.0	Go_X	1.0
464.917	0.45	stopsuccess	0.0	Go_O	1.0
467.451	1.0	go	0.753	Go_X	1.0
470.0	0.5	stopsuccess	0.0	Go_X	1.0
472.534	1.0	go	0.649	Go_O	1.0
475.067	1.0	go	0.875	Go_X	1.0
477.6	1.0	go	0.533	Go_X	1.0
480.133	1.0	go	0.69	Go_O	1.0
482.667	1.0	go	0.693	Go_O	1.0
485.2	1.0	go	0.666	Go_X	1.0
487.733	1.0	go	0.796	Go_X	1.0
490.266	1.0	go	0.536	Go_O	1.0
492.8	0.55	stopfail	0.718	Go_O	0.0
495.333	1.0	go	0.594	Go_X	1.0
497.866	1.0	go	0.717	Go_O	1.0
500.399	0.5	stopsuccess	0.0	Go_X	1.0
502.933	1.0	go	0.567	Go_O	1.0
505.466	1.0	go	0.772	Go_X	1.0
507.999	1.0	go	0.825	Go_X	1.0
510.532	1.0	go	0.706	Go_O	1.0
513.066	1.0	go	0.587	Go_X	1.0
515.599	0.55	stopfail	0.77	Go_O	0.0
518.132	1.0	go	0.642	Go_O	1.0
520.665	1.0	go	0.671	Go_X	1.0
523.199	1.0	go	0.983	Go_O	1.0
525.732	0.5	stopfail	0.538	Go_X	0.0
528.265	1.0	go	0.966	Go_X	1.0
530.798	0.45	stopfail	0.679	Go_O	0.0
533.332	1.0	go	0.714	Go_O	1.0
535.881	1.0	go	0.545	Go_X	1.0
538.415	1.0	go	0.665	Go_O	1.0
540.948	1.0	go	0.723	Go_O	1.0
543.481	1.0	go	0.552	Go_X	1.0
546.014	1.0	go	0.72	Go_O	1.0
548.548	1.0	go	0.693	Go_X	1.0
551.081	0.4	stopsuccess	0.0	Go_X	1.0
553.614	1.0	go	0.618	Go_X	1.0
556.147	1.0	go	0.579	Go_O	1.0
558.681	1.0	go	0.577	Go_O	1.0
561.214	1.0	go	0.594	Go_X	1.0
563.747	0.45	stopsuccess	0.0	Go_O	1.0
566.28	1.0	go	0.611	Go_O	1.0
568.814	0.5	stopsuccess	0.0	Go_X	1.0
571.347	1.0	go	0.981	Go_X	1.0
573.88	1.0	go	0.531	Go_X	1.0
576.413	0.55	stopfail	0.578	Go_O	0.0
578.947	1.0	go	0.572	Go_O	1.0
581.48	1.0	go	0.822	Go_O	1.0
584.013	1.0	go	0.732	Go_X	1.0
586.546	1.0	go	0.477	Go_O	1.0
589.08	1.0	go	0.703	Go_X	1.0
591.629	1.0	go	0.568	Go_X	1.0
594.163	1.0	go	0.757	Go_O	1.0
596.696	1.0	go	0.0	Go_O	0.0
599.229	1.0	go	0.72	Go_X	1.0
601.762	1.0	go	0.694	Go_O	1.0
604.296	0.5	stopfail	0.533	Go_X	0.0
606.829	1.0	go	0.595	Go_X	1.0
609.362	1.0	go	0.629	Go_O	1.0
611.895	0.45	stopfail	0.536	Go_O	0.0
614.429	1.0	go	0.534	Go_X	1.0
616.962	0.4	stopsuccess	0.0	Go_X	1.0
619.495	1.0	go	0.671	Go_X	1.0
622.028	1.0	go	0.848	Go_O	1.0
624.562	0.45	stopsuccess	0.0	Go_O	1.0
627.095	1.0	go	0.629	Go_X	1.0
629.628	0.5	stopsuccess	0.0	Go_X	1.0
632.161	1.0	go	0.769	Go_O	1.0
634.695	1.0	go	0.59	Go_X	1.0
637.228	1.0	go	0.65	Go_O	1.0
639.761	0.55	stopfail	0.654	Go_O	0.0
642.294	1.0	go	0.657	Go_O	1.0
644.828	1.0	go	0.745	Go_X	1.0
647.361	1.0	go	0.0	Go_X	0.0
649.894	1.0	go	0.662	Go_O	1.0
652.427	0.5	stopsuccess	0.0	Go_X	1.0
654.961	1.0	go	0.601	Go_X	1.0
657.51	1.0	go	0.671	Go_O	1.0
660.044	0.55	stopfail	0.644	Go_O	0.0
662.577	1.0	go	0.852	Go_O	1.0
665.11	1.0	go	0.604	Go_X	1.0
667.643	1.0	go	0.58	Go_O	1.0
670.177	1.0	go	0.955	Go_X	1.0
672.71	0.5	stopfail	0.613	Go_X	0.0
675.243	1.0	go	0.666	Go_X	1.0
677.776	0.45	stopsuccess	0.0	Go_O	1.0
680.31	1.0	go	0.0	Go_O	0.0
682.843	1.0	go	0.519	Go_O	1.0
685.376	0.5	stopfail	0.545	Go_X	0.0
687.909	1.0	go	0.936	Go_X	1.0
690.443	1.0	go	0.669	Go_O	1.0
692.976	1.0	go	0.657	Go_X	1.0
695.509	1.0	go	0.545	Go_O	1.0
698.042	0.45	stopsuccess	0.0	Go_O	1.0
700.576	1.0	go	0.605	Go_X	1.0
703.109	0.5	stopfail	0.736	Go_X	0.0
705.642	1.0	go	0.688	Go_X	1.0
708.175	1.0	go	0.545	Go_O	1.0
710.709	1.0	go	0.722	Go_O	1.0
713.258	1.0	go	0.659	Go_X	1.0
715.792	1.0	go	0.805	Go_X	1.0
718.325	1.0	go	0.0	Go_O	0.0
720.858	0.45	stopfail	0.48	Go_O	0.0
723.391	1.0	go	0.542	Go_X	1.0
725.925	1.0	go	0.474	Go_O	1.0
728.458	0.4	stopfail	0.511	Go_X	0.0
730.991	1.0	go	0.558	Go_O	1.0
733.524	1.0	go	0.623	Go_X	1.0
736.058	0.35	stopsuccess	0.0	Go_O	1.0
738.591	1.0	go	0.0	Go_X	0.0
741.124	1.0	go	0.445	Go_O	1.0
743.657	1.0	go	0.707	Go_O	1.0
746.191	1.0	go	0.575	Go_X	1.0
748.724	0.4	stopsuccess	0.0	Go_X	1.0
751.257	1.0	go	0.54	Go_O	1.0
753.79	0.45	stopfail	0.562	Go_O	0.0
756.324	1.0	go	0.529	Go_X	1.0
758.857	1.0	go	0.712	Go_X	1.0
761.39	1.0	go	0.759	Go_O	1.0
763.923	1.0	go	0.689	Go_O	1.0
766.457	1.0	go	0.743	Go_X	1.0
769.006	0.4	stopfail	0.579	Go_X	0.0
771.54	1.0	go	0.601	Go_X	1.0
774.073	1.0	go	0.559	Go_O	1.0
776.606	0.35	stopsuccess	0.0	Go_O	1.0
779.139	0.4	stopsuccess	0.0	Go_X	1.0
781.673	1.0	go	0.0	Go_O	0.0
784.206	1.0	go	0.788	Go_X	1.0
786.739	1.0	go	0.686	Go_X	1.0
789.272	1.0	go	0.748	Go_O	1.0
791.806	0.45	stopsuccess	0.0	Go_O	1.0
794.339	1.0	go	0.0	Go_O	0.0
