onset	duration	trial_type	response_time	stim_file	accuracy
344.411	1.0	go	0.598	Go_O	1.0
346.944	1.0	go	0.313	Go_X	1.0
349.478	1.0	go	0.456	Go_X	1.0
352.011	1.0	go	0.277	Go_O	1.0
354.544	1.0	go	0.286	Go_X	1.0
357.077	1.0	go	0.261	Go_O	1.0
359.611	0.25	stop	0.215	Go_O	0.0
362.144	1.0	go	0.488	Go_O	1.0
364.677	0.2	stop	0.375	Go_X	0.0
367.211	1.0	go	0.445	Go_X	0.0
369.76	1.0	go	0.638	Go_O	1.0
372.294	1.0	go	0.451	Go_X	1.0
374.827	0.15	stop	0.306	Go_O	0.0
377.36	1.0	go	0.494	Go_X	1.0
379.894	1.0	go	0.465	Go_O	1.0
382.427	0.1	stop	0.0	Go_X	1.0
384.96	0.15	stop	0.0	Go_O	1.0
387.493	1.0	go	0.491	Go_O	1.0
390.027	1.0	go	0.346	Go_X	1.0
392.56	0.2	stop	0.0	Go_X	1.0
395.093	1.0	go	0.0	Go_X	0.0
397.626	1.0	go	0.32	Go_O	1.0
400.16	0.25	stop	0.0	Go_O	1.0
402.693	1.0	go	0.5	Go_O	1.0
405.226	1.0	go	0.432	Go_X	1.0
407.76	0.3	stop	0.0	Go_X	1.0
410.293	1.0	go	0.0	Go_X	0.0
412.826	1.0	go	0.306	Go_O	1.0
415.359	0.35	stop	0.411	Go_O	0.0
417.893	1.0	go	0.86	Go_X	1.0
420.426	1.0	go	0.404	Go_O	1.0
422.959	1.0	go	0.511	Go_X	1.0
425.493	1.0	go	0.397	Go_O	1.0
428.042	1.0	go	0.369	Go_X	1.0
430.576	0.3	stop	0.0	Go_X	1.0
433.109	1.0	go	0.289	Go_O	1.0
435.642	1.0	go	0.677	Go_O	1.0
438.176	1.0	go	0.371	Go_X	1.0
440.725	1.0	go	0.282	Go_O	1.0
443.259	1.0	go	0.276	Go_X	1.0
445.792	0.35	stop	0.0	Go_O	1.0
448.325	1.0	go	0.511	Go_O	1.0
450.859	1.0	go	0.353	Go_X	1.0
453.392	1.0	go	0.347	Go_O	1.0
455.925	1.0	go	0.433	Go_X	1.0
458.458	1.0	go	0.506	Go_X	1.0
460.992	1.0	go	0.49	Go_O	1.0
463.525	0.4	stop	0.0	Go_X	1.0
466.058	1.0	go	0.531	Go_O	1.0
468.591	1.0	go	0.218	Go_X	1.0
471.125	0.45	stop	0.309	Go_O	0.0
473.658	1.0	go	0.324	Go_O	1.0
476.191	0.4	stop	0.218	Go_X	0.0
478.725	0.35	stop	0.363	Go_O	0.0
481.258	1.0	go	0.5	Go_X	1.0
483.791	1.0	go	0.77	Go_O	1.0
486.324	1.0	go	0.35	Go_X	1.0
488.858	1.0	go	0.324	Go_O	1.0
491.391	0.3	stop	0.323	Go_X	0.0
493.924	1.0	go	0.561	Go_X	0.0
496.458	0.25	stop	0.0	Go_O	1.0
499.007	1.0	go	0.565	Go_O	1.0
501.541	1.0	go	0.334	Go_X	1.0
504.074	1.0	go	0.434	Go_O	1.0
506.607	1.0	go	0.547	Go_X	1.0
509.141	1.0	go	0.361	Go_O	1.0
511.674	1.0	go	0.477	Go_X	1.0
514.207	1.0	go	0.471	Go_X	1.0
516.74	1.0	go	0.416	Go_O	1.0
519.274	1.0	go	0.398	Go_X	1.0
521.807	0.3	stop	0.417	Go_X	0.0
524.34	1.0	go	0.363	Go_O	1.0
526.873	1.0	go	0.912	Go_X	1.0
529.407	1.0	go	0.505	Go_O	1.0
531.94	0.25	stop	0.386	Go_O	0.0
534.473	1.0	go	0.273	Go_X	1.0
537.007	1.0	go	0.529	Go_O	1.0
539.54	1.0	go	0.544	Go_O	1.0
542.073	1.0	go	0.847	Go_X	1.0
544.606	1.0	go	0.465	Go_O	1.0
547.14	1.0	go	0.527	Go_X	0.0
549.673	0.2	stop	0.295	Go_X	0.0
552.206	1.0	go	0.315	Go_X	1.0
554.739	1.0	go	0.343	Go_O	1.0
557.273	0.15	stop	0.0	Go_O	1.0
559.806	1.0	go	0.265	Go_O	1.0
562.339	1.0	go	0.316	Go_X	1.0
564.873	0.2	stop	0.409	Go_X	0.0
567.406	1.0	go	0.484	Go_X	0.0
569.939	0.15	stop	0.0	Go_O	1.0
572.472	1.0	go	0.757	Go_O	1.0
575.006	1.0	go	0.506	Go_O	1.0
577.539	1.0	go	0.299	Go_X	1.0
580.072	1.0	go	0.877	Go_X	1.0
582.606	1.0	go	0.0	Go_O	0.0
585.155	0.2	stop	0.0	Go_X	1.0
587.689	0.25	stop	0.0	Go_O	1.0
590.222	1.0	go	0.755	Go_X	1.0
592.755	1.0	go	0.448	Go_O	1.0
595.289	0.3	stop	0.0	Go_X	1.0
597.822	1.0	go	0.575	Go_O	1.0
600.355	1.0	go	0.865	Go_X	1.0
602.888	1.0	go	0.538	Go_X	1.0
605.422	1.0	go	0.0	Go_O	0.0
607.955	1.0	go	0.523	Go_O	1.0
610.488	1.0	go	0.61	Go_X	1.0
613.021	0.35	stop	0.632	Go_O	0.0
615.555	1.0	go	0.363	Go_O	1.0
618.088	1.0	go	0.345	Go_X	1.0
620.621	1.0	go	0.596	Go_X	1.0
623.155	1.0	go	0.356	Go_O	1.0
625.688	1.0	go	0.683	Go_O	1.0
628.221	0.3	stop	0.274	Go_X	0.0
630.754	1.0	go	0.493	Go_X	1.0
633.288	1.0	go	0.392	Go_O	1.0
635.821	1.0	go	0.584	Go_X	1.0
638.354	1.0	go	0.335	Go_O	1.0
640.887	0.25	stop	0.355	Go_O	0.0
643.421	1.0	go	0.625	Go_X	1.0
645.954	1.0	go	0.39	Go_X	1.0
648.487	0.2	stop	0.275	Go_X	0.0
651.021	1.0	go	0.56	Go_O	1.0
653.554	0.15	stop	0.0	Go_O	1.0
656.087	1.0	go	0.345	Go_X	1.0
658.62	1.0	go	0.376	Go_O	1.0
661.154	1.0	go	0.602	Go_X	1.0
663.687	1.0	go	0.682	Go_O	1.0
666.22	1.0	go	0.311	Go_O	0.0
668.753	1.0	go	0.591	Go_X	1.0
671.287	1.0	go	0.277	Go_O	1.0
673.82	0.2	stop	0.283	Go_X	0.0
676.353	1.0	go	0.581	Go_X	1.0
678.887	1.0	go	0.603	Go_X	1.0
681.42	1.0	go	0.66	Go_O	1.0
683.953	0.15	stop	0.277	Go_O	0.0
686.486	1.0	go	0.8	Go_O	1.0
689.02	1.0	go	0.341	Go_X	1.0
691.553	1.0	go	0.627	Go_O	1.0
694.086	1.0	go	0.436	Go_X	1.0
696.62	0.1	stop	0.0	Go_X	1.0
699.169	1.0	go	0.341	Go_O	1.0
701.703	1.0	go	0.481	Go_X	1.0
704.236	0.15	stop	0.352	Go_O	0.0
706.769	1.0	go	0.397	Go_O	1.0
709.303	1.0	go	0.322	Go_X	1.0
711.836	0.1	stop	0.0	Go_X	1.0
714.369	1.0	go	0.55	Go_X	1.0
716.902	1.0	go	0.494	Go_O	1.0
719.436	0.15	stop	0.0	Go_O	1.0
721.969	1.0	go	0.606	Go_X	1.0
724.502	1.0	go	0.492	Go_O	1.0
727.035	1.0	go	0.268	Go_X	1.0
729.569	1.0	go	0.481	Go_O	1.0
732.102	1.0	go	0.51	Go_O	1.0
734.635	1.0	go	0.389	Go_X	1.0
737.169	0.2	stop	0.0	Go_X	1.0
739.702	1.0	go	0.272	Go_O	1.0
742.235	0.25	stop	0.363	Go_O	0.0
744.768	1.0	go	0.346	Go_X	1.0
747.302	1.0	go	0.446	Go_X	1.0
749.835	1.0	go	0.564	Go_O	1.0
752.368	1.0	go	0.73	Go_X	1.0
754.901	1.0	go	0.599	Go_O	1.0
757.435	0.2	stop	0.369	Go_X	0.0
759.968	1.0	go	0.773	Go_X	1.0
762.501	1.0	go	0.382	Go_O	1.0
765.035	1.0	go	0.41	Go_X	1.0
767.568	0.15	stop	0.0	Go_O	1.0
770.101	0.2	stop	0.0	Go_X	1.0
772.634	0.25	stop	0.0	Go_O	1.0
775.168	1.0	go	0.0	Go_O	0.0
777.701	0.3	stop	0.0	Go_X	1.0
780.234	1.0	go	0.353	Go_O	1.0
782.768	1.0	go	0.723	Go_X	1.0
785.317	1.0	go	0.508	Go_X	1.0
787.851	1.0	go	0.0	Go_O	0.0
790.384	1.0	go	0.0	Go_X	0.0
792.917	1.0	go	0.553	Go_O	1.0
795.451	1.0	go	0.0	Go_X	0.0
797.984	1.0	go	0.49	Go_O	1.0
800.517	0.35	stop	0.397	Go_O	0.0
803.05	1.0	go	0.78	Go_O	1.0
805.584	1.0	go	0.362	Go_X	1.0
808.117	0.3	stop	0.0	Go_X	1.0
810.65	1.0	go	0.737	Go_X	1.0
813.183	1.0	go	0.484	Go_O	1.0
815.717	1.0	go	0.567	Go_X	1.0
818.25	1.0	go	0.549	Go_O	1.0
820.783	1.0	go	0.53	Go_X	1.0
823.317	0.35	stop	0.398	Go_O	0.0
825.85	1.0	go	0.555	Go_O	1.0
828.383	1.0	go	0.434	Go_X	1.0
830.916	1.0	go	0.327	Go_O	1.0
833.45	0.3	stop	0.325	Go_X	0.0
835.983	1.0	go	0.445	Go_X	1.0
838.516	0.25	stop	0.369	Go_O	0.0
841.049	1.0	go	0.484	Go_O	1.0
843.583	1.0	go	0.342	Go_O	1.0
846.116	1.0	go	0.546	Go_X	1.0
848.649	1.0	go	0.585	Go_O	1.0
851.183	1.0	go	0.376	Go_X	1.0
853.716	1.0	go	0.499	Go_X	0.0
856.249	1.0	go	0.478	Go_O	0.0
858.782	0.2	stop	0.0	Go_X	1.0
861.316	1.0	go	0.0	Go_X	0.0
863.849	1.0	go	0.433	Go_O	1.0
866.382	1.0	go	0.841	Go_O	1.0
868.916	1.0	go	0.511	Go_X	1.0
871.465	0.25	stop	0.0	Go_O	1.0
873.999	1.0	go	0.0	Go_X	0.0
876.532	0.3	stop	0.0	Go_X	1.0
879.065	1.0	go	0.341	Go_O	1.0
881.599	1.0	go	0.715	Go_X	1.0
884.132	0.35	stop	0.0	Go_O	1.0
886.665	1.0	go	0.788	Go_O	1.0
889.198	1.0	go	0.517	Go_O	1.0
891.732	1.0	go	0.462	Go_X	1.0
894.265	1.0	go	0.0	Go_X	0.0
896.798	1.0	go	0.977	Go_O	1.0
899.331	1.0	go	0.714	Go_O	1.0
901.865	1.0	go	0.478	Go_X	1.0
904.398	1.0	go	0.706	Go_O	1.0
906.931	1.0	go	0.402	Go_X	1.0
909.465	1.0	go	0.338	Go_O	1.0
911.998	0.4	stop	0.449	Go_X	0.0
914.531	1.0	go	0.479	Go_X	1.0
917.064	1.0	go	0.434	Go_X	1.0
919.598	0.35	stop	0.279	Go_O	0.0
922.131	1.0	go	0.446	Go_O	1.0
924.664	0.3	stop	0.549	Go_X	0.0
927.197	1.0	go	0.778	Go_O	1.0
929.731	1.0	go	0.487	Go_X	1.0
932.264	0.25	stop	0.0	Go_O	1.0
934.797	1.0	go	0.48	Go_X	1.0
937.331	0.3	stop	0.285	Go_X	0.0
939.864	1.0	go	0.336	Go_O	1.0
942.397	1.0	go	0.557	Go_X	1.0
944.93	1.0	go	0.302	Go_O	1.0
947.464	0.25	stop	0.0	Go_O	1.0
949.997	1.0	go	0.309	Go_X	1.0
952.53	1.0	go	0.222	Go_O	1.0
955.064	1.0	go	0.47	Go_O	1.0
957.613	1.0	go	0.218	Go_X	1.0
960.147	0.3	stop	0.545	Go_X	0.0
962.68	1.0	go	0.355	Go_O	1.0
965.213	1.0	go	0.506	Go_X	1.0
967.747	0.25	stop	0.0	Go_O	1.0
970.296	1.0	go	0.332	Go_O	1.0
972.83	1.0	go	0.27	Go_X	1.0
975.363	1.0	go	0.316	Go_O	1.0
977.896	1.0	go	0.682	Go_X	1.0
980.43	0.3	stop	0.412	Go_X	0.0
982.963	1.0	go	0.549	Go_X	1.0
985.496	0.25	stop	0.0	Go_O	1.0
988.029	1.0	go	0.965	Go_O	1.0
990.563	1.0	go	0.661	Go_X	1.0
993.096	0.3	stop	0.0	Go_X	1.0
995.629	1.0	go	0.901	Go_O	0.0
998.162	1.0	go	0.0	Go_X	0.0
1000.696	1.0	go	0.989	Go_O	1.0
1003.229	1.0	go	0.849	Go_X	1.0
1005.762	0.35	stop	0.0	Go_O	1.0
1008.296	1.0	go	0.243	Go_O	1.0
1010.829	0.4	stop	0.446	Go_X	0.0
1013.362	1.0	go	0.0	Go_O	0.0
1015.895	1.0	go	0.351	Go_X	1.0
1018.429	1.0	go	0.625	Go_X	0.0
1020.962	1.0	go	0.421	Go_O	0.0
1023.495	1.0	go	0.601	Go_X	1.0
1026.029	1.0	go	0.889	Go_O	1.0
1028.578	0.35	stop	0.0	Go_O	1.0
1031.112	1.0	go	0.0	Go_O	0.0
1033.645	1.0	go	0.533	Go_X	1.0
1036.178	0.4	stop	0.549	Go_X	0.0
1038.712	1.0	go	0.337	Go_X	1.0
1041.245	1.0	go	0.466	Go_O	1.0
1043.778	0.35	stop	0.0	Go_O	1.0
1046.311	1.0	go	0.477	Go_X	1.0
1048.845	1.0	go	0.369	Go_O	1.0
1051.378	1.0	go	0.426	Go_O	0.0
1053.911	1.0	go	0.744	Go_X	1.0
1056.444	0.4	stop	0.381	Go_X	0.0
1058.978	1.0	go	0.667	Go_X	1.0
1061.511	0.35	stop	0.373	Go_O	0.0
1064.044	1.0	go	0.863	Go_O	1.0
1066.578	1.0	go	0.481	Go_X	1.0
1069.111	1.0	go	0.373	Go_O	1.0
1071.644	1.0	go	0.379	Go_O	0.0
1074.177	1.0	go	0.833	Go_X	1.0
1076.711	0.3	stop	0.0	Go_X	1.0
1079.244	1.0	go	0.0	Go_X	0.0
1081.777	1.0	go	0.493	Go_O	1.0
1084.31	0.35	stop	0.277	Go_O	0.0
1086.844	0.3	stop	0.33	Go_X	0.0
1089.377	1.0	go	0.762	Go_O	1.0
1091.91	1.0	go	0.34	Go_X	1.0
1094.444	1.0	go	0.5	Go_X	1.0
1096.977	1.0	go	0.724	Go_O	1.0
1099.51	0.25	stop	0.306	Go_O	0.0
1102.043	1.0	go	0.0	Go_O	0.0
