onset	duration	trial_type	response_time	stim_file	accuracy
132.952	1.0	go	0.0	Go_X	0.0
135.552	1.0	go	0.523	Go_O	0.0
138.085	1.0	go	0.564	Go_X	0.0
140.619	1.0	go	0.968	Go_O	0.0
143.152	1.0	go	0.76	Go_X	0.0
145.685	1.0	go	0.754	Go_O	0.0
148.218	0.25	stop	0.0	Go_O	1.0
150.752	1.0	go	0.692	Go_X	0.0
153.285	0.3	stop	0.0	Go_X	1.0
155.818	1.0	go	0.506	Go_O	0.0
158.351	1.0	go	0.63	Go_O	0.0
160.885	1.0	go	0.707	Go_X	0.0
163.418	0.35	stop	0.0	Go_O	1.0
165.951	1.0	go	0.602	Go_O	0.0
168.485	1.0	go	0.568	Go_X	0.0
171.018	0.4	stop	0.0	Go_X	1.0
173.551	0.45	stop	0.525	Go_O	0.0
176.084	1.0	go	0.768	Go_X	0.0
178.618	1.0	go	0.678	Go_O	0.0
181.151	0.4	stop	0.0	Go_X	1.0
183.684	1.0	go	0.595	Go_O	0.0
186.218	1.0	go	0.815	Go_X	0.0
188.767	0.45	stop	0.0	Go_O	1.0
191.301	1.0	go	0.598	Go_O	0.0
193.834	1.0	go	0.642	Go_X	0.0
196.367	0.5	stop	0.0	Go_X	1.0
198.901	1.0	go	0.788	Go_O	0.0
201.45	1.0	go	0.728	Go_X	0.0
203.984	0.55	stop	0.0	Go_O	1.0
206.517	1.0	go	0.66	Go_O	0.0
209.05	1.0	go	0.807	Go_X	0.0
211.584	1.0	go	0.968	Go_O	0.0
214.117	1.0	go	0.675	Go_X	0.0
216.65	1.0	go	0.759	Go_X	0.0
219.183	0.6	stop	0.587	Go_X	0.0
221.717	1.0	go	0.616	Go_O	0.0
224.25	1.0	go	0.624	Go_X	0.0
226.783	1.0	go	0.715	Go_O	0.0
229.317	1.0	go	0.757	Go_O	0.0
231.866	1.0	go	0.606	Go_X	0.0
234.4	0.55	stop	0.0	Go_O	1.0
236.933	1.0	go	0.735	Go_O	0.0
239.466	1.0	go	0.606	Go_X	0.0
242.0	1.0	go	0.77	Go_X	0.0
244.549	1.0	go	0.882	Go_O	0.0
247.083	1.0	go	0.65	Go_X	0.0
249.616	1.0	go	0.503	Go_O	0.0
252.149	0.6	stop	0.674	Go_X	0.0
254.683	1.0	go	0.789	Go_O	0.0
257.216	1.0	go	0.64	Go_X	0.0
259.749	0.55	stop	0.0	Go_O	1.0
262.282	1.0	go	0.798	Go_O	0.0
264.816	0.6	stop	0.655	Go_X	0.0
267.349	0.55	stop	0.0	Go_O	1.0
269.882	1.0	go	0.691	Go_X	0.0
272.415	1.0	go	0.637	Go_X	0.0
274.949	1.0	go	0.827	Go_O	0.0
277.482	1.0	go	0.773	Go_O	0.0
280.015	0.6	stop	0.0	Go_X	1.0
282.549	1.0	go	0.596	Go_X	0.0
285.082	0.65	stop	0.759	Go_O	0.0
287.615	1.0	go	0.901	Go_X	0.0
290.148	1.0	go	0.984	Go_O	0.0
292.682	1.0	go	0.841	Go_X	0.0
295.215	1.0	go	0.777	Go_O	0.0
297.748	1.0	go	0.964	Go_X	0.0
300.282	1.0	go	0.556	Go_O	0.0
302.831	1.0	go	0.855	Go_O	0.0
305.365	1.0	go	0.0	Go_X	0.0
307.898	1.0	go	0.498	Go_X	0.0
310.431	0.6	stop	0.0	Go_X	1.0
312.965	1.0	go	0.903	Go_O	0.0
315.498	1.0	go	0.958	Go_O	0.0
318.031	1.0	go	0.607	Go_X	0.0
320.564	0.65	stop	0.0	Go_O	1.0
323.098	1.0	go	0.433	Go_O	0.0
325.631	1.0	go	0.802	Go_X	0.0
328.164	1.0	go	0.867	Go_O	0.0
330.697	1.0	go	0.945	Go_X	0.0
333.231	1.0	go	0.613	Go_O	0.0
335.764	1.0	go	0.43	Go_X	0.0
338.297	0.7	stop	0.503	Go_X	0.0
340.831	1.0	go	0.71	Go_O	0.0
343.364	1.0	go	0.688	Go_X	0.0
345.897	0.65	stop	0.434	Go_O	0.0
348.43	1.0	go	0.972	Go_X	0.0
350.964	1.0	go	0.763	Go_O	0.0
353.497	0.6	stop	0.472	Go_X	0.0
356.03	1.0	go	0.482	Go_X	0.0
358.563	0.55	stop	0.671	Go_O	0.0
361.097	1.0	go	0.867	Go_O	0.0
363.63	1.0	go	0.893	Go_O	0.0
366.163	1.0	go	0.945	Go_X	0.0
368.697	1.0	go	0.54	Go_O	0.0
371.23	1.0	go	0.782	Go_X	0.0
373.763	0.5	stop	0.0	Go_X	1.0
376.296	0.55	stop	0.0	Go_O	1.0
378.83	1.0	go	0.77	Go_O	0.0
381.363	1.0	go	0.669	Go_X	0.0
383.896	0.6	stop	0.0	Go_X	1.0
386.429	1.0	go	0.737	Go_X	0.0
388.963	1.0	go	0.611	Go_O	0.0
391.496	1.0	go	0.905	Go_O	0.0
394.029	1.0	go	0.913	Go_X	0.0
396.563	1.0	go	0.796	Go_O	0.0
399.096	1.0	go	0.0	Go_X	0.0
401.629	0.65	stop	0.557	Go_O	0.0
404.162	1.0	go	0.546	Go_X	0.0
406.696	1.0	go	0.768	Go_O	0.0
409.229	1.0	go	0.739	Go_X	1.0
411.762	1.0	go	0.694	Go_O	0.0
414.296	1.0	go	0.81	Go_X	0.0
416.845	0.6	stop	0.0	Go_X	1.0
419.379	1.0	go	0.519	Go_O	0.0
421.912	1.0	go	0.607	Go_X	0.0
424.445	1.0	go	0.732	Go_O	0.0
426.979	1.0	go	0.705	Go_O	0.0
429.512	0.65	stop	0.704	Go_O	0.0
432.045	1.0	go	0.709	Go_X	0.0
434.578	1.0	go	0.722	Go_O	0.0
437.112	0.6	stop	0.69	Go_X	0.0
439.645	1.0	go	0.949	Go_X	0.0
442.178	0.55	stop	0.758	Go_O	0.0
444.711	1.0	go	0.0	Go_X	0.0
447.245	1.0	go	0.772	Go_O	0.0
449.778	1.0	go	0.62	Go_X	0.0
452.311	1.0	go	0.831	Go_O	0.0
454.845	1.0	go	0.439	Go_X	0.0
457.378	1.0	go	0.938	Go_O	0.0
459.911	1.0	go	0.488	Go_X	0.0
462.444	0.5	stop	0.597	Go_X	0.0
464.978	1.0	go	0.632	Go_O	0.0
467.511	1.0	go	0.559	Go_X	0.0
470.044	1.0	go	0.865	Go_O	0.0
472.577	0.45	stop	0.0	Go_O	1.0
475.111	1.0	go	0.429	Go_X	0.0
477.644	1.0	go	0.801	Go_O	0.0
480.177	1.0	go	0.715	Go_O	0.0
482.711	1.0	go	0.979	Go_X	0.0
485.244	0.5	stop	0.0	Go_X	1.0
487.777	1.0	go	0.645	Go_O	0.0
490.31	1.0	go	0.677	Go_X	0.0
492.844	0.55	stop	0.0	Go_O	1.0
495.377	1.0	go	0.504	Go_X	0.0
497.91	1.0	go	0.793	Go_O	0.0
500.444	0.6	stop	0.518	Go_X	0.0
502.993	1.0	go	0.846	Go_X	0.0
505.527	1.0	go	0.775	Go_O	0.0
508.06	0.55	stop	0.0	Go_O	1.0
510.593	1.0	go	0.524	Go_X	0.0
513.127	1.0	go	0.643	Go_O	0.0
515.66	1.0	go	0.617	Go_X	0.0
518.193	1.0	go	0.735	Go_O	0.0
520.726	1.0	go	0.585	Go_O	0.0
523.26	1.0	go	0.563	Go_X	0.0
525.793	0.6	stop	0.645	Go_X	0.0
528.326	1.0	go	0.809	Go_X	0.0
530.859	0.55	stop	0.658	Go_O	0.0
533.393	1.0	go	0.545	Go_O	0.0
535.926	1.0	go	0.618	Go_O	0.0
538.459	1.0	go	0.802	Go_X	0.0
540.993	1.0	go	0.714	Go_O	0.0
543.526	1.0	go	0.678	Go_X	0.0
546.059	0.5	stop	0.624	Go_X	0.0
548.592	1.0	go	0.533	Go_O	0.0
551.126	1.0	go	0.545	Go_X	0.0
553.659	1.0	go	0.587	Go_O	0.0
556.192	0.45	stop	0.558	Go_O	0.0
558.725	0.4	stop	0.0	Go_X	1.0
561.259	0.45	stop	0.552	Go_O	0.0
563.792	1.0	go	0.768	Go_X	0.0
566.325	0.4	stop	0.0	Go_X	1.0
568.859	1.0	go	0.735	Go_O	0.0
571.392	1.0	go	0.751	Go_X	0.0
573.925	1.0	go	0.825	Go_O	0.0
576.458	1.0	go	0.761	Go_X	0.0
578.992	1.0	go	0.649	Go_O	0.0
581.525	1.0	go	0.614	Go_X	0.0
584.058	1.0	go	0.874	Go_O	0.0
586.592	1.0	go	0.453	Go_X	0.0
589.141	0.45	stop	0.0	Go_O	1.0
591.675	1.0	go	0.527	Go_X	0.0
594.208	1.0	go	0.779	Go_O	0.0
596.741	0.5	stop	0.592	Go_X	0.0
599.275	1.0	go	0.653	Go_O	0.0
601.808	1.0	go	0.873	Go_X	0.0
604.341	1.0	go	0.7	Go_X	0.0
606.874	1.0	go	0.784	Go_O	0.0
609.408	1.0	go	0.682	Go_O	1.0
611.941	0.45	stop	0.0	Go_O	1.0
614.474	1.0	go	0.592	Go_X	0.0
617.007	1.0	go	0.661	Go_X	0.0
619.541	1.0	go	0.602	Go_O	0.0
622.074	0.5	stop	0.593	Go_X	0.0
624.607	1.0	go	0.878	Go_O	0.0
627.141	0.45	stop	0.0	Go_O	1.0
629.674	1.0	go	0.581	Go_X	0.0
632.207	1.0	go	0.728	Go_O	0.0
634.74	1.0	go	0.517	Go_X	0.0
637.274	1.0	go	0.573	Go_X	0.0
639.807	1.0	go	0.807	Go_O	0.0
642.34	1.0	go	0.588	Go_O	0.0
644.873	1.0	go	0.818	Go_X	0.0
647.407	0.5	stop	0.0	Go_X	1.0
649.94	1.0	go	0.674	Go_X	0.0
652.473	1.0	go	0.751	Go_O	0.0
655.007	1.0	go	0.723	Go_X	0.0
657.54	1.0	go	0.776	Go_O	0.0
660.073	0.55	stop	0.0	Go_O	1.0
662.606	1.0	go	0.761	Go_O	0.0
665.14	0.6	stop	0.0	Go_X	1.0
667.673	1.0	go	0.583	Go_X	0.0
670.206	1.0	go	0.807	Go_X	0.0
672.739	0.65	stop	0.606	Go_O	0.0
675.273	1.0	go	0.814	Go_O	0.0
677.806	1.0	go	0.943	Go_X	0.0
680.339	1.0	go	0.985	Go_O	0.0
682.873	1.0	go	0.765	Go_O	0.0
685.406	1.0	go	0.862	Go_X	0.0
687.939	1.0	go	0.0	Go_O	0.0
690.472	1.0	go	0.91	Go_X	0.0
693.006	1.0	go	0.919	Go_X	0.0
695.539	1.0	go	0.733	Go_O	0.0
698.072	1.0	go	0.822	Go_X	0.0
700.606	0.6	stop	0.0	Go_X	1.0
703.155	1.0	go	0.789	Go_O	0.0
705.689	1.0	go	0.937	Go_X	0.0
708.222	0.65	stop	0.669	Go_O	0.0
710.755	1.0	go	0.833	Go_O	1.0
713.289	0.6	stop	0.665	Go_X	0.0
715.822	1.0	go	0.743	Go_O	0.0
718.355	1.0	go	0.846	Go_X	0.0
720.888	0.55	stop	0.566	Go_O	0.0
723.422	1.0	go	0.874	Go_X	0.0
725.955	0.5	stop	0.627	Go_X	0.0
728.488	1.0	go	0.989	Go_O	0.0
731.021	1.0	go	0.675	Go_X	0.0
733.555	1.0	go	0.563	Go_O	0.0
736.088	0.45	stop	0.0	Go_O	1.0
738.621	1.0	go	0.781	Go_O	0.0
741.155	1.0	go	0.855	Go_X	0.0
743.688	1.0	go	0.595	Go_X	0.0
746.221	1.0	go	0.0	Go_O	0.0
748.754	0.5	stop	0.632	Go_X	0.0
751.288	1.0	go	0.643	Go_X	0.0
753.821	1.0	go	0.708	Go_O	0.0
756.354	0.45	stop	0.42	Go_O	0.0
758.887	1.0	go	0.874	Go_O	0.0
761.421	1.0	go	0.721	Go_X	0.0
763.954	1.0	go	0.802	Go_O	0.0
766.487	1.0	go	0.666	Go_X	0.0
769.021	0.4	stop	0.0	Go_X	1.0
771.554	1.0	go	0.702	Go_O	0.0
774.087	0.45	stop	0.0	Go_O	1.0
776.62	1.0	go	0.654	Go_X	0.0
779.154	1.0	go	0.682	Go_X	0.0
781.687	0.5	stop	0.622	Go_X	0.0
784.22	1.0	go	0.736	Go_O	0.0
786.754	1.0	go	0.804	Go_X	0.0
789.303	1.0	go	0.73	Go_O	0.0
791.837	1.0	go	0.747	Go_X	0.0
794.37	0.45	stop	0.0	Go_O	1.0
796.903	1.0	go	0.769	Go_O	0.0
799.437	0.5	stop	0.0	Go_X	1.0
801.97	1.0	go	0.854	Go_O	0.0
804.503	1.0	go	0.779	Go_X	0.0
807.036	1.0	go	0.885	Go_O	0.0
809.57	1.0	go	0.0	Go_X	0.0
812.103	1.0	go	0.837	Go_O	0.0
814.636	1.0	go	0.658	Go_X	0.0
817.169	0.55	stop	0.637	Go_O	0.0
819.703	1.0	go	0.816	Go_O	0.0
822.236	1.0	go	0.65	Go_X	0.0
824.769	0.5	stop	0.0	Go_X	1.0
827.303	1.0	go	0.669	Go_X	0.0
829.836	1.0	go	0.752	Go_O	0.0
832.369	0.55	stop	0.457	Go_O	0.0
834.902	1.0	go	0.791	Go_O	0.0
837.436	1.0	go	0.855	Go_X	0.0
839.969	1.0	go	0.844	Go_O	0.0
842.502	1.0	go	0.593	Go_X	0.0
845.035	0.5	stop	0.0	Go_X	1.0
847.569	1.0	go	0.781	Go_X	0.0
850.102	0.55	stop	0.0	Go_O	1.0
852.635	1.0	go	0.763	Go_O	0.0
855.169	1.0	go	0.97	Go_X	0.0
857.702	1.0	go	0.731	Go_O	0.0
860.235	1.0	go	0.881	Go_O	0.0
862.768	1.0	go	0.887	Go_X	0.0
865.302	0.6	stop	0.0	Go_X	1.0
867.835	1.0	go	0.837	Go_O	0.0
870.368	1.0	go	0.919	Go_X	0.0
872.902	0.65	stop	0.759	Go_O	0.0
875.451	0.6	stop	0.0	Go_X	1.0
877.985	1.0	go	0.484	Go_X	0.0
880.518	1.0	go	0.601	Go_O	0.0
883.051	1.0	go	0.753	Go_O	0.0
885.585	1.0	go	0.597	Go_X	0.0
888.118	0.65	stop	0.841	Go_O	0.0
890.651	1.0	go	0.0	Go_O	0.0
