onset	duration	trial_type	response_time	stim_file	accuracy
48.555	1.0	go	0.0	Go_X	0.0
51.089	1.0	go	0.42	Go_O	1.0
53.622	1.0	go	0.506	Go_X	1.0
56.155	1.0	go	0.322	Go_O	1.0
58.688	1.0	go	0.412	Go_O	1.0
61.222	1.0	go	0.425	Go_X	1.0
63.755	0.25	stopfail	0.32	Go_O	0.0
66.288	1.0	go	0.343	Go_X	1.0
68.821	0.2	stopsuccess	0.0	Go_X	1.0
71.355	1.0	go	0.337	Go_O	1.0
73.888	1.0	go	0.567	Go_O	1.0
76.421	1.0	go	0.541	Go_X	1.0
78.955	0.25	stopsuccess	0.0	Go_O	1.0
81.488	1.0	go	0.443	Go_O	1.0
84.021	1.0	go	0.817	Go_X	1.0
86.554	0.3	stopfail	0.42	Go_X	0.0
89.088	0.25	stopsuccess	0.0	Go_O	1.0
91.621	1.0	go	0.735	Go_O	1.0
94.154	1.0	go	0.771	Go_X	1.0
96.687	0.3	stopsuccess	0.0	Go_X	1.0
99.221	1.0	go	0.882	Go_X	1.0
101.754	1.0	go	0.689	Go_O	1.0
104.287	0.35	stopsuccess	0.0	Go_O	1.0
106.821	1.0	go	0.667	Go_O	1.0
109.354	1.0	go	0.531	Go_X	1.0
111.887	0.4	stopsuccess	0.0	Go_X	1.0
114.42	1.0	go	0.633	Go_O	1.0
116.954	1.0	go	0.656	Go_X	1.0
119.487	0.45	stopfail	0.552	Go_O	0.0
122.02	1.0	go	0.651	Go_X	1.0
124.553	1.0	go	0.637	Go_O	1.0
127.087	1.0	go	0.745	Go_X	1.0
129.62	1.0	go	0.546	Go_O	1.0
132.153	1.0	go	0.645	Go_O	1.0
134.687	0.4	stopfail	0.536	Go_X	0.0
137.22	1.0	go	0.564	Go_X	1.0
139.753	1.0	go	0.677	Go_X	1.0
142.286	1.0	go	0.741	Go_O	1.0
144.82	1.0	go	0.662	Go_X	1.0
147.353	1.0	go	0.486	Go_O	1.0
149.886	0.35	stopsuccess	0.0	Go_O	1.0
152.42	1.0	go	0.649	Go_O	1.0
154.969	1.0	go	0.383	Go_X	1.0
157.503	1.0	go	0.653	Go_O	1.0
160.036	1.0	go	0.517	Go_X	1.0
162.569	1.0	go	0.478	Go_X	1.0
165.103	1.0	go	0.335	Go_O	1.0
167.636	0.4	stopfail	0.497	Go_X	0.0
170.169	1.0	go	0.661	Go_X	1.0
172.702	1.0	go	0.682	Go_O	1.0
175.236	0.35	stopfail	0.462	Go_O	0.0
177.769	1.0	go	0.0	Go_O	0.0
180.302	0.3	stopsuccess	0.0	Go_X	1.0
182.835	0.35	stopsuccess	0.0	Go_O	1.0
185.369	1.0	go	0.73	Go_X	1.0
187.902	1.0	go	0.588	Go_X	1.0
190.435	1.0	go	0.564	Go_O	1.0
192.969	1.0	go	0.53	Go_O	1.0
195.502	0.4	stopsuccess	0.0	Go_X	1.0
198.035	1.0	go	0.643	Go_X	1.0
200.568	0.45	stopfail	0.482	Go_O	0.0
203.102	1.0	go	0.8	Go_X	1.0
205.635	1.0	go	0.772	Go_O	1.0
208.168	1.0	go	0.811	Go_X	1.0
210.701	1.0	go	0.631	Go_O	1.0
213.235	1.0	go	0.561	Go_O	1.0
215.768	1.0	go	0.759	Go_X	1.0
218.301	1.0	go	0.734	Go_X	1.0
220.835	1.0	go	0.583	Go_O	1.0
223.368	1.0	go	0.728	Go_X	1.0
225.901	0.4	stopfail	0.555	Go_X	0.0
228.434	1.0	go	0.679	Go_O	1.0
230.968	1.0	go	0.542	Go_O	1.0
233.501	1.0	go	0.649	Go_X	1.0
236.034	0.35	stopsuccess	0.0	Go_O	1.0
238.568	1.0	go	0.796	Go_X	1.0
241.117	1.0	go	0.393	Go_O	1.0
243.651	1.0	go	0.551	Go_X	1.0
246.184	1.0	go	0.412	Go_O	1.0
248.717	1.0	go	0.587	Go_O	1.0
251.251	1.0	go	0.489	Go_X	1.0
253.784	0.4	stopfail	0.488	Go_X	0.0
256.317	1.0	go	0.367	Go_O	1.0
258.85	1.0	go	0.434	Go_X	1.0
261.384	0.35	stopsuccess	0.0	Go_O	1.0
263.917	1.0	go	0.663	Go_O	1.0
266.45	1.0	go	0.758	Go_X	1.0
268.983	0.4	stopsuccess	0.0	Go_X	1.0
271.517	1.0	go	0.475	Go_X	1.0
274.05	0.45	stopsuccess	0.0	Go_O	1.0
276.583	1.0	go	0.7	Go_O	1.0
279.117	1.0	go	0.616	Go_X	1.0
281.65	1.0	go	0.396	Go_O	1.0
284.183	1.0	go	0.552	Go_X	1.0
286.716	1.0	go	0.572	Go_O	1.0
289.25	0.5	stopfail	0.56	Go_X	0.0
291.783	0.45	stopfail	0.524	Go_O	0.0
294.316	1.0	go	0.7	Go_O	1.0
296.849	1.0	go	0.728	Go_X	1.0
299.383	0.4	stopsuccess	0.0	Go_X	1.0
301.916	1.0	go	0.814	Go_X	1.0
304.449	1.0	go	0.7	Go_O	1.0
306.983	1.0	go	0.667	Go_X	1.0
309.516	1.0	go	0.722	Go_O	1.0
312.049	1.0	go	0.651	Go_X	1.0
314.582	1.0	go	0.552	Go_O	1.0
317.116	0.45	stopsuccess	0.0	Go_O	1.0
319.649	1.0	go	0.624	Go_X	1.0
322.182	1.0	go	0.578	Go_O	1.0
324.715	1.0	go	0.627	Go_X	1.0
327.249	1.0	go	0.391	Go_O	1.0
329.782	1.0	go	0.578	Go_X	1.0
332.315	0.5	stopsuccess	0.0	Go_X	1.0
334.849	1.0	go	0.514	Go_O	1.0
337.382	1.0	go	0.591	Go_X	1.0
339.915	1.0	go	0.826	Go_O	1.0
342.448	1.0	go	0.545	Go_O	1.0
344.982	0.55	stopfail	0.586	Go_O	0.0
347.515	1.0	go	0.59	Go_X	1.0
350.048	1.0	go	0.738	Go_O	1.0
352.582	0.5	stopfail	0.561	Go_X	0.0
355.131	1.0	go	0.72	Go_X	1.0
357.665	0.45	stopfail	0.533	Go_O	0.0
360.198	1.0	go	0.393	Go_O	1.0
362.731	1.0	go	0.636	Go_X	1.0
365.265	1.0	go	0.906	Go_O	1.0
367.798	1.0	go	0.571	Go_X	1.0
370.331	1.0	go	0.599	Go_X	1.0
372.864	1.0	go	0.512	Go_O	1.0
375.398	1.0	go	0.478	Go_X	1.0
377.931	0.4	stopsuccess	0.0	Go_X	1.0
380.464	1.0	go	0.68	Go_O	1.0
382.997	1.0	go	0.837	Go_O	1.0
385.531	1.0	go	0.576	Go_X	1.0
388.064	0.45	stopfail	0.51	Go_O	0.0
390.597	1.0	go	0.561	Go_X	1.0
393.131	1.0	go	0.378	Go_O	1.0
395.664	1.0	go	0.661	Go_X	1.0
398.197	1.0	go	0.412	Go_O	1.0
400.73	0.4	stopfail	0.354	Go_X	0.0
403.264	1.0	go	0.446	Go_O	1.0
405.797	1.0	go	0.464	Go_X	1.0
408.33	0.35	stopfail	0.517	Go_O	0.0
410.863	1.0	go	0.477	Go_O	1.0
413.397	1.0	go	0.512	Go_X	1.0
415.93	0.3	stopsuccess	0.0	Go_X	1.0
418.463	1.0	go	0.457	Go_O	1.0
420.997	1.0	go	0.514	Go_X	1.0
423.53	0.35	stopsuccess	0.0	Go_O	1.0
426.063	1.0	go	0.572	Go_O	1.0
428.596	1.0	go	0.786	Go_X	1.0
431.13	1.0	go	0.517	Go_X	1.0
433.663	1.0	go	0.482	Go_O	1.0
436.196	1.0	go	0.413	Go_X	1.0
438.73	1.0	go	0.443	Go_O	1.0
441.279	0.4	stopfail	0.57	Go_X	0.0
443.813	1.0	go	0.613	Go_X	1.0
446.346	0.35	stopfail	0.408	Go_O	0.0
448.879	1.0	go	0.745	Go_O	1.0
451.413	1.0	go	0.583	Go_X	1.0
453.946	1.0	go	0.573	Go_O	1.0
456.479	1.0	go	0.492	Go_O	1.0
459.012	1.0	go	0.44	Go_X	1.0
461.546	0.3	stopsuccess	0.0	Go_X	1.0
464.079	1.0	go	0.686	Go_O	1.0
466.612	1.0	go	0.53	Go_X	1.0
469.145	1.0	go	0.892	Go_O	1.0
471.679	0.35	stopsuccess	0.0	Go_O	1.0
474.212	0.4	stopsuccess	0.0	Go_X	1.0
476.745	0.45	stopfail	0.559	Go_O	0.0
479.279	1.0	go	0.801	Go_X	1.0
481.812	0.4	stopsuccess	0.0	Go_X	1.0
484.345	1.0	go	0.689	Go_O	1.0
486.878	1.0	go	0.809	Go_X	1.0
489.412	1.0	go	0.483	Go_O	1.0
491.945	1.0	go	0.755	Go_X	1.0
494.478	1.0	go	0.684	Go_O	1.0
497.011	1.0	go	0.734	Go_X	1.0
499.545	1.0	go	0.666	Go_X	1.0
502.078	1.0	go	0.747	Go_O	1.0
504.611	0.45	stopsuccess	0.0	Go_O	1.0
507.145	1.0	go	0.838	Go_X	1.0
509.678	1.0	go	0.898	Go_O	1.0
512.211	0.5	stopsuccess	0.0	Go_X	1.0
514.744	1.0	go	0.56	Go_O	1.0
517.278	1.0	go	0.567	Go_X	1.0
519.811	1.0	go	0.511	Go_X	1.0
522.344	1.0	go	0.535	Go_O	1.0
524.878	1.0	go	0.546	Go_O	1.0
527.427	0.55	stopfail	0.647	Go_O	0.0
529.961	1.0	go	0.694	Go_X	1.0
532.494	1.0	go	0.482	Go_O	1.0
535.027	1.0	go	0.774	Go_X	1.0
537.561	0.5	stopsuccess	0.0	Go_X	1.0
540.11	1.0	go	0.729	Go_O	1.0
542.644	0.55	stopfail	0.567	Go_O	0.0
545.177	1.0	go	0.669	Go_X	1.0
547.71	1.0	go	0.619	Go_X	1.0
550.244	1.0	go	0.491	Go_O	1.0
552.777	1.0	go	0.59	Go_X	1.0
555.31	1.0	go	0.454	Go_O	1.0
557.843	1.0	go	0.599	Go_O	1.0
560.377	1.0	go	0.469	Go_X	1.0
562.91	0.5	stopsuccess	0.0	Go_X	1.0
565.443	1.0	go	0.534	Go_X	1.0
567.976	1.0	go	0.671	Go_O	1.0
570.51	1.0	go	0.771	Go_X	1.0
573.043	1.0	go	0.619	Go_O	1.0
575.576	0.55	stopfail	0.762	Go_O	0.0
578.11	1.0	go	0.75	Go_X	1.0
580.643	0.5	stopsuccess	0.0	Go_X	1.0
583.176	1.0	go	0.465	Go_O	1.0
585.709	1.0	go	0.525	Go_X	1.0
588.243	0.55	stopfail	0.532	Go_O	0.0
590.776	1.0	go	0.891	Go_O	1.0
593.309	1.0	go	0.952	Go_X	1.0
595.843	1.0	go	0.643	Go_O	1.0
598.392	1.0	go	0.449	Go_X	1.0
600.926	1.0	go	0.656	Go_O	1.0
603.459	1.0	go	0.564	Go_X	1.0
605.992	1.0	go	0.631	Go_O	1.0
608.526	1.0	go	0.823	Go_O	1.0
611.059	1.0	go	0.749	Go_X	1.0
613.592	1.0	go	0.757	Go_X	1.0
616.125	0.5	stopfail	0.55	Go_X	0.0
618.659	1.0	go	0.521	Go_O	1.0
621.192	1.0	go	0.665	Go_O	1.0
623.725	0.45	stopsuccess	0.0	Go_O	1.0
626.258	1.0	go	0.533	Go_X	1.0
628.792	0.5	stopsuccess	0.0	Go_X	1.0
631.325	1.0	go	0.509	Go_O	1.0
633.858	1.0	go	0.0	Go_X	0.0
636.392	0.55	stopfail	0.524	Go_O	0.0
638.925	1.0	go	0.527	Go_X	1.0
641.458	0.5	stopfail	0.662	Go_X	0.0
643.991	1.0	go	0.817	Go_O	1.0
646.525	1.0	go	0.727	Go_X	1.0
649.058	1.0	go	0.634	Go_O	1.0
651.591	0.45	stopsuccess	0.0	Go_O	1.0
654.125	1.0	go	0.593	Go_O	1.0
656.674	1.0	go	0.691	Go_X	1.0
659.208	1.0	go	0.891	Go_X	1.0
661.741	1.0	go	0.546	Go_O	1.0
664.274	0.5	stopsuccess	0.0	Go_X	1.0
666.808	1.0	go	0.49	Go_X	1.0
669.341	1.0	go	0.498	Go_O	1.0
671.874	0.55	stopsuccess	0.0	Go_O	1.0
674.407	1.0	go	0.94	Go_O	1.0
676.941	1.0	go	0.784	Go_X	1.0
679.474	1.0	go	0.796	Go_X	1.0
682.007	1.0	go	0.724	Go_O	1.0
684.54	0.6	stopsuccess	0.0	Go_X	1.0
687.074	1.0	go	0.816	Go_X	1.0
689.607	0.65	stopsuccess	0.0	Go_O	1.0
692.14	1.0	go	0.0	Go_O	0.0
694.674	1.0	go	0.869	Go_X	1.0
697.207	0.7	stopsuccess	0.0	Go_X	1.0
699.74	1.0	go	0.711	Go_O	1.0
702.273	1.0	go	0.763	Go_X	1.0
704.807	1.0	go	0.911	Go_O	1.0
707.34	1.0	go	0.758	Go_O	1.0
709.873	0.75	stopfail	0.694	Go_O	0.0
712.406	1.0	go	0.682	Go_X	1.0
714.94	0.7	stopfail	0.529	Go_X	0.0
717.473	1.0	go	0.767	Go_X	1.0
720.006	1.0	go	0.595	Go_O	1.0
722.54	1.0	go	0.525	Go_O	1.0
725.073	1.0	go	0.681	Go_X	1.0
727.606	1.0	go	0.664	Go_O	1.0
730.139	1.0	go	0.651	Go_X	1.0
732.673	0.65	stopfail	0.702	Go_O	0.0
735.206	1.0	go	0.0	Go_O	0.0
737.739	1.0	go	0.643	Go_X	1.0
740.272	0.6	stopsuccess	0.0	Go_X	1.0
742.806	1.0	go	0.743	Go_O	1.0
745.339	1.0	go	0.963	Go_X	1.0
747.872	0.65	stopfail	0.638	Go_O	0.0
750.406	1.0	go	0.814	Go_X	1.0
752.939	1.0	go	0.0	Go_O	0.0
755.472	1.0	go	0.765	Go_X	1.0
758.005	1.0	go	0.838	Go_O	1.0
760.539	0.6	stopsuccess	0.0	Go_X	1.0
763.072	1.0	go	0.0	Go_X	0.0
765.605	0.65	stopfail	0.749	Go_O	0.0
768.139	1.0	go	0.946	Go_O	1.0
770.688	1.0	go	0.828	Go_X	1.0
773.222	1.0	go	0.865	Go_O	1.0
775.755	1.0	go	0.736	Go_O	1.0
778.288	1.0	go	0.667	Go_X	1.0
780.822	0.6	stopfail	0.528	Go_X	0.0
783.355	1.0	go	0.709	Go_X	1.0
785.888	1.0	go	0.71	Go_O	1.0
788.421	0.55	stopsuccess	0.0	Go_O	1.0
790.955	0.6	stopfail	0.631	Go_X	0.0
793.488	1.0	go	0.642	Go_O	1.0
796.021	1.0	go	0.595	Go_X	1.0
798.554	1.0	go	0.556	Go_X	1.0
801.088	1.0	go	0.736	Go_O	1.0
803.621	0.55	stopsuccess	0.0	Go_O	1.0
806.154	1.0	go	0.963	Go_O	1.0
