frame	onset	duration	trial_type	event_type	response_type	response_time	stim_file	accuracy
0	57.313		loss-noreward	ImageDisplay1		0.0		
0	59.285	0.75	loss-noreward	StartDisplay				
0	60.037		loss-noreward	ImageDisplay2		0.0		
0	63.297	1.6	loss-noreward	ChoiceDisplay	1	0.751	1	1
0	64.066	0.849	loss-noreward	ChosenDisplay		0.0		
0	64.902	0.25	loss-noreward	TurnDisplay				
0	65.153	0.75	loss-noreward	OutcomeDisplay				
1	65.905		win-reward	ImageDisplay1		0.0		
1	68.145	0.75	win-reward	StartDisplay				
1	68.897		win-reward	ImageDisplay2		0.0		
1	71.906	1.6	win-reward	ChoiceDisplay	1	0.9	1	1
1	72.826	0.7	win-reward	ChosenDisplay		0.0		
1	73.511	0.25	win-reward	TurnDisplay				
1	73.762	0.75	win-reward	OutcomeDisplay				
2	74.514		win-noreward	ImageDisplay1		0.0		
2	76.503	0.75	win-noreward	StartDisplay				
2	77.255		win-noreward	ImageDisplay2		0.0		
2	80.515	1.6	win-noreward	ChoiceDisplay	1	0.939	1	1
2	81.468	0.661	win-noreward	ChosenDisplay		0.0		
2	82.12	0.25	win-noreward	TurnDisplay				
2	82.371	0.75	win-noreward	OutcomeDisplay				
3	83.123		win-noreward	ImageDisplay1		0.0		
3	85.363	0.75	win-noreward	StartDisplay				
3	86.115		win-noreward	ImageDisplay2		0.0		
3	89.124	1.6	win-noreward	ChoiceDisplay	1	0.705	1	1
3	89.843	0.895	win-noreward	ChosenDisplay		0.0		
3	90.729	0.25	win-noreward	TurnDisplay				
3	90.98	0.75	win-noreward	OutcomeDisplay				
4	91.732		loss-reward	ImageDisplay1		0.0		
4	93.972	0.75	loss-reward	StartDisplay				
4	94.724		loss-reward	ImageDisplay2		0.0		
4	97.733	1.6	loss-reward	ChoiceDisplay	1	0.593	1	1
4	98.352	1.007	loss-reward	ChosenDisplay		0.0		
4	99.338	0.25	loss-reward	TurnDisplay				
4	99.589	0.75	loss-reward	OutcomeDisplay				
5	100.341		loss-reward	ImageDisplay1		0.0		
5	102.33	0.75	loss-reward	StartDisplay				
5	103.082		loss-reward	ImageDisplay2		0.0		
5	106.342	1.6	loss-reward	ChoiceDisplay	1	0.61	1	1
5	106.977	0.99	loss-reward	ChosenDisplay		0.0		
5	107.947	0.25	loss-reward	TurnDisplay				
5	108.198	0.75	loss-reward	OutcomeDisplay				
6	108.95		win-reward	ImageDisplay1		0.0		
6	110.939	0.75	win-reward	StartDisplay				
6	111.691		win-reward	ImageDisplay2		0.0		
6	114.951	1.6	win-reward	ChoiceDisplay	1	0.764	1	1
6	115.737	0.836	win-reward	ChosenDisplay		0.0		
6	116.556	0.25	win-reward	TurnDisplay				
6	116.807	0.75	win-reward	OutcomeDisplay				
7	117.559		win-reward	ImageDisplay1		0.0		
7	119.548	0.75	win-reward	StartDisplay				
7	120.3		win-reward	ImageDisplay2		0.0		
7	123.56	1.6	win-reward	ChoiceDisplay	1	0.668	1	1
7	124.246	0.932	win-reward	ChosenDisplay		0.0		
7	125.165	0.25	win-reward	TurnDisplay				
7	125.416	0.75	win-reward	OutcomeDisplay				
8	126.168		loss-reward	ImageDisplay1		0.0		
8	128.408	0.75	loss-reward	StartDisplay				
8	129.16		loss-reward	ImageDisplay2		0.0		
8	132.169	1.6	loss-reward	ChoiceDisplay	1	0.797	1	1
8	132.988	0.803	loss-reward	ChosenDisplay		0.0		
8	133.774	0.25	loss-reward	TurnDisplay				
8	134.025	0.75	loss-reward	OutcomeDisplay				
9	134.777		loss-reward	ImageDisplay1		0.0		
9	136.766	0.75	loss-reward	StartDisplay				
9	137.518		loss-reward	ImageDisplay2		0.0		
9	140.778	1.6	loss-reward	ChoiceDisplay	1	0.594	1	1
9	141.397	1.006	loss-reward	ChosenDisplay		0.0		
9	142.383	0.25	loss-reward	TurnDisplay				
9	142.634	0.75	loss-reward	OutcomeDisplay				
10	143.386		loss-noreward	ImageDisplay1		0.0		
10	145.375	0.75	loss-noreward	StartDisplay				
10	146.127		loss-noreward	ImageDisplay2		0.0		
10	149.387	1.6	loss-noreward	ChoiceDisplay	1	0.766	1	1
10	150.173	0.834	loss-noreward	ChosenDisplay		0.0		
10	150.992	0.25	loss-noreward	TurnDisplay				
10	151.243	0.75	loss-noreward	OutcomeDisplay				
11	151.995		control-noreward	ImageDisplay1		0.0		
11	154.235	0.75	control-noreward	StartDisplay				
11	154.987		control-noreward	ImageDisplay2		0.0		
11	157.996	1.6	control-noreward	ChoiceDisplay	1	0.205	1	1
11	158.214	1.395	control-noreward	ChosenDisplay		0.0		
11	159.601	0.25	control-noreward	TurnDisplay				
11	159.852	0.75	control-noreward	OutcomeDisplay				
12	160.604		loss-reward	ImageDisplay1		0.0		
12	162.844	0.75	loss-reward	StartDisplay				
12	163.596		loss-reward	ImageDisplay2		0.0		
12	166.605	1.6	loss-reward	ChoiceDisplay	1	0.713	1	1
12	167.341	0.887	loss-reward	ChosenDisplay		0.0		
12	168.21	0.25	loss-reward	TurnDisplay				
12	168.461	0.75	loss-reward	OutcomeDisplay				
13	169.213		control-noreward	ImageDisplay1		0.0		
13	171.202	0.75	control-noreward	StartDisplay				
13	171.954		control-noreward	ImageDisplay2		0.0		
13	175.214	1.6	control-noreward	ChoiceDisplay	1	1.019	1	1
13	176.251	0.581	control-noreward	ChosenDisplay		0.0		
13	176.819	0.25	control-noreward	TurnDisplay				
13	177.07	0.75	control-noreward	OutcomeDisplay				
14	177.822		loss-noreward	ImageDisplay1		0.0		
14	179.811	0.75	loss-noreward	StartDisplay				
14	180.563		loss-noreward	ImageDisplay2		0.0		
14	183.823	1.6	loss-noreward	ChoiceDisplay	1	0.657	1	1
14	184.492	0.943	loss-noreward	ChosenDisplay		0.0		
14	185.428	0.25	loss-noreward	TurnDisplay				
14	185.679	0.75	loss-noreward	OutcomeDisplay				
15	186.431		loss-reward	ImageDisplay1		0.0		
15	188.42	0.75	loss-reward	StartDisplay				
15	189.172		loss-reward	ImageDisplay2		0.0		
15	192.432	1.6	loss-reward	ChoiceDisplay	1	0.708	1	1
15	193.168	0.892	loss-reward	ChosenDisplay		0.0		
15	194.037	0.25	loss-reward	TurnDisplay				
15	194.288	0.75	loss-reward	OutcomeDisplay				
16	195.04		win-noreward	ImageDisplay1		0.0		
16	197.28	0.75	win-noreward	StartDisplay				
16	198.032		win-noreward	ImageDisplay2		0.0		
16	201.041	1.6	win-noreward	ChoiceDisplay	1	0.79	1	1
16	201.844	0.81	win-noreward	ChosenDisplay		0.0		
16	202.646	0.25	win-noreward	TurnDisplay				
16	202.897	0.75	win-noreward	OutcomeDisplay				
17	203.649		loss-reward	ImageDisplay1		0.0		
17	205.889	0.75	loss-reward	StartDisplay				
17	206.641		loss-reward	ImageDisplay2		0.0		
17	209.65	1.6	loss-reward	ChoiceDisplay	1	0.761	1	1
17	210.436	0.839	loss-reward	ChosenDisplay		0.0		
17	211.255	0.25	loss-reward	TurnDisplay				
17	211.506	0.75	loss-reward	OutcomeDisplay				
18	212.258		control-reward	ImageDisplay1		0.0		
18	214.498	0.75	control-reward	StartDisplay				
18	215.25		control-reward	ImageDisplay2		0.0		
18	218.259	1.6	control-reward	ChoiceDisplay	1	0.47	1	1
18	218.744	1.13	control-reward	ChosenDisplay		0.0		
18	219.864	0.25	control-reward	TurnDisplay				
18	220.115	0.75	control-reward	OutcomeDisplay				
19	220.867		loss-reward	ImageDisplay1		0.0		
19	222.856	0.75	loss-reward	StartDisplay				
19	223.608		loss-reward	ImageDisplay2		0.0		
19	226.868	1.6	loss-reward	ChoiceDisplay	1	0.703	1	1
19	227.587	0.897	loss-reward	ChosenDisplay		0.0		
19	228.473	0.25	loss-reward	TurnDisplay				
19	228.724	0.75	loss-reward	OutcomeDisplay				
20	229.476		win-reward	ImageDisplay1		0.0		
20	231.465	0.75	win-reward	StartDisplay				
20	232.217		win-reward	ImageDisplay2		0.0		
20	235.477	1.6	win-reward	ChoiceDisplay	1	0.759	1	1
20	236.263	0.841	win-reward	ChosenDisplay		0.0		
20	237.082	0.25	win-reward	TurnDisplay				
20	237.333	0.75	win-reward	OutcomeDisplay				
21	238.085		loss-noreward	ImageDisplay1		0.0		
21	240.325	0.75	loss-noreward	StartDisplay				
21	241.077		loss-noreward	ImageDisplay2		0.0		
21	244.086	1.6	loss-noreward	ChoiceDisplay	1	0.394	1	1
21	244.504	1.206	loss-noreward	ChosenDisplay		0.0		
21	245.691	0.25	loss-noreward	TurnDisplay				
21	245.942	0.75	loss-noreward	OutcomeDisplay				
22	246.694		control-noreward	ImageDisplay1		0.0		
22	248.934	0.75	control-noreward	StartDisplay				
22	249.686		control-noreward	ImageDisplay2		0.0		
22	252.695	1.6	control-noreward	ChoiceDisplay		0.0		
22	254.283	0.0	control-noreward	ChosenDisplay		0.0		
22	254.3	0.25	control-noreward	TurnDisplay				
22	254.534	0.75	control-noreward	OutcomeDisplay				
23	255.286		loss-noreward	ImageDisplay1		0.0		
23	257.543	0.75	loss-noreward	StartDisplay				
23	258.295		loss-noreward	ImageDisplay2		0.0		
23	261.287	1.6	loss-noreward	ChoiceDisplay	1	0.591	1	1
23	261.889	1.009	loss-noreward	ChosenDisplay		0.0		
23	262.892	0.25	loss-noreward	TurnDisplay				
23	263.143	0.75	loss-noreward	OutcomeDisplay				
24	263.895		control-noreward	ImageDisplay1		0.0		
24	266.135	0.75	control-noreward	StartDisplay				
24	266.888		control-noreward	ImageDisplay2		0.0		
24	269.897	1.6	control-noreward	ChoiceDisplay	1	0.203	1	1
24	270.114	1.397	control-noreward	ChosenDisplay		0.0		
24	271.501	0.25	control-noreward	TurnDisplay				
24	271.752	0.75	control-noreward	OutcomeDisplay				
25	272.504		win-noreward	ImageDisplay1		0.0		
25	274.744	0.75	win-noreward	StartDisplay				
25	275.497		win-noreward	ImageDisplay2		0.0		
25	278.506	1.6	win-noreward	ChoiceDisplay	1	0.531	1	1
25	279.057	1.069	win-noreward	ChosenDisplay		0.0		
25	280.11	0.25	win-noreward	TurnDisplay				
25	280.361	0.75	win-noreward	OutcomeDisplay				
26	281.113		loss-noreward	ImageDisplay1		0.0		
26	283.103	0.75	loss-noreward	StartDisplay				
26	283.855		loss-noreward	ImageDisplay2		0.0		
26	287.114	1.6	loss-noreward	ChoiceDisplay	1	0.75	1	1
26	287.883	0.85	loss-noreward	ChosenDisplay		0.0		
26	288.719	0.25	loss-noreward	TurnDisplay				
26	288.97	0.75	loss-noreward	OutcomeDisplay				
27	289.722		win-noreward	ImageDisplay1		0.0		
27	291.712	0.75	win-noreward	StartDisplay				
27	292.464		win-noreward	ImageDisplay2		0.0		
27	295.723	1.6	win-noreward	ChoiceDisplay	1	0.494	1	1
27	296.242	1.106	win-noreward	ChosenDisplay		0.0		
27	297.328	0.25	win-noreward	TurnDisplay				
27	297.579	0.75	win-noreward	OutcomeDisplay				
28	298.331		control-reward	ImageDisplay1		0.0		
28	300.321	0.75	control-reward	StartDisplay				
28	301.073		control-reward	ImageDisplay2		0.0		
28	304.332	1.6	control-reward	ChoiceDisplay	1	0.44	1	1
28	304.801	1.16	control-reward	ChosenDisplay		0.0		
28	305.937	0.25	control-reward	TurnDisplay				
28	306.188	0.75	control-reward	OutcomeDisplay				
29	306.94		control-reward	ImageDisplay1		0.0		
29	309.18	0.75	control-reward	StartDisplay				
29	309.933		control-reward	ImageDisplay2		0.0		
29	312.941	1.6	control-reward	ChoiceDisplay	1	0.441	1	1
29	313.41	1.159	control-reward	ChosenDisplay		0.0		
29	314.546	0.25	control-reward	TurnDisplay				
29	314.797	0.75	control-reward	OutcomeDisplay				
30	315.549		loss-reward	ImageDisplay1		0.0		
30	317.789	0.75	loss-reward	StartDisplay				
30	318.542		loss-reward	ImageDisplay2		0.0		
30	321.55	1.6	loss-reward	ChoiceDisplay	1	0.592	1	1
30	322.169	1.008	loss-reward	ChosenDisplay		0.0		
30	323.155	0.25	loss-reward	TurnDisplay				
30	323.406	0.75	loss-reward	OutcomeDisplay				
31	324.158		loss-reward	ImageDisplay1		0.0		
31	326.398	0.75	loss-reward	StartDisplay				
31	327.151		loss-reward	ImageDisplay2		0.0		
31	330.159	1.6	loss-reward	ChoiceDisplay	1	0.627	1	1
31	330.811	0.973	loss-reward	ChosenDisplay		0.0		
31	331.764	0.25	loss-reward	TurnDisplay				
31	332.015	0.75	loss-reward	OutcomeDisplay				
32	332.767		win-reward	ImageDisplay1		0.0		
32	334.757	0.75	win-reward	StartDisplay				
32	335.509		win-reward	ImageDisplay2		0.0		
32	338.768	1.6	win-reward	ChoiceDisplay	1	0.631	1	1
32	339.42	0.969	win-reward	ChosenDisplay		0.0		
32	340.373	0.25	win-reward	TurnDisplay				
32	340.624	0.75	win-reward	OutcomeDisplay				
33	341.376		control-noreward	ImageDisplay1		0.0		
33	343.616	0.75	control-noreward	StartDisplay				
33	344.369		control-noreward	ImageDisplay2		0.0		
33	347.378	1.6	control-noreward	ChoiceDisplay	1	0.359	1	1
33	347.762	1.241	control-noreward	ChosenDisplay		0.0		
33	348.982	0.25	control-noreward	TurnDisplay				
33	349.233	0.75	control-noreward	OutcomeDisplay				
34	349.985		loss-noreward	ImageDisplay1		0.0		
34	352.225	0.75	loss-noreward	StartDisplay				
34	352.978		loss-noreward	ImageDisplay2		0.0		
34	355.987	1.6	loss-noreward	ChoiceDisplay	1	0.584	1	1
34	356.588	1.016	loss-noreward	ChosenDisplay		0.0		
34	357.591	0.25	loss-noreward	TurnDisplay				
34	357.842	0.75	loss-noreward	OutcomeDisplay				
35	358.594		win-reward	ImageDisplay1		0.0		
35	360.584	0.75	win-reward	StartDisplay				
35	361.336		win-reward	ImageDisplay2		0.0		
35	364.595	1.6	win-reward	ChoiceDisplay	1	0.701	1	1
35	365.314	0.899	win-reward	ChosenDisplay		0.0		
35	366.2	0.25	win-reward	TurnDisplay				
35	366.451	0.75	win-reward	OutcomeDisplay				
36	367.203		control-reward	ImageDisplay1		0.0		
36	369.443	0.75	control-reward	StartDisplay				
36	370.196		control-reward	ImageDisplay2		0.0		
36	373.204	1.6	control-reward	ChoiceDisplay	1	0.807	1	1
36	374.024	0.793	control-reward	ChosenDisplay		0.0		
36	374.809	0.25	control-reward	TurnDisplay				
36	375.06	0.75	control-reward	OutcomeDisplay				
37	375.812		win-reward	ImageDisplay1		0.0		
37	377.802	0.75	win-reward	StartDisplay				
37	378.554		win-reward	ImageDisplay2		0.0		
37	381.814	1.6	win-reward	ChoiceDisplay	1	0.759	1	1
37	382.599	0.841	win-reward	ChosenDisplay		0.0		
37	383.418	0.25	win-reward	TurnDisplay				
37	383.669	0.75	win-reward	OutcomeDisplay				
38	384.421		win-reward	ImageDisplay1		0.0		
38	386.661	0.75	win-reward	StartDisplay				
38	387.414		win-reward	ImageDisplay2		0.0		
38	390.422	1.6	win-reward	ChoiceDisplay	1	0.722	1	1
38	391.158	0.878	win-reward	ChosenDisplay		0.0		
38	392.027	0.25	win-reward	TurnDisplay				
38	392.278	0.75	win-reward	OutcomeDisplay				
39	393.03		win-reward	ImageDisplay1		0.0		
39	395.27	0.75	win-reward	StartDisplay				
39	396.023		win-reward	ImageDisplay2		0.0		
39	399.031	1.6	win-reward	ChoiceDisplay	1	0.703	1	1
39	399.75	0.897	win-reward	ChosenDisplay		0.0		
39	400.636	0.25	win-reward	TurnDisplay				
39	400.887	0.75	win-reward	OutcomeDisplay				
40	401.639		win-reward	ImageDisplay1		0.0		
40	403.629	0.75	win-reward	StartDisplay				
40	404.381		win-reward	ImageDisplay2		0.0		
40	407.64	1.6	win-reward	ChoiceDisplay	1	0.802	1	1
40	408.46	0.798	win-reward	ChosenDisplay		0.0		
40	409.245	0.25	win-reward	TurnDisplay				
40	409.496	0.75	win-reward	OutcomeDisplay				
41	410.248		win-reward	ImageDisplay1		0.0		
41	412.488	0.75	win-reward	StartDisplay				
41	413.241		win-reward	ImageDisplay2		0.0		
41	416.25	1.6	win-reward	ChoiceDisplay	1	0.712	1	1
41	416.985	0.888	win-reward	ChosenDisplay		0.0		
41	417.854	0.25	win-reward	TurnDisplay				
41	418.105	0.75	win-reward	OutcomeDisplay				
42	418.857		win-noreward	ImageDisplay1		0.0		
42	420.847	0.75	win-noreward	StartDisplay				
42	421.599		win-noreward	ImageDisplay2		0.0		
42	424.858	1.6	win-noreward	ChoiceDisplay	1	0.828	1	1
42	425.711	0.772	win-noreward	ChosenDisplay		0.0		
42	426.463	0.25	win-noreward	TurnDisplay				
42	426.714	0.75	win-noreward	OutcomeDisplay				
43	427.466		win-reward	ImageDisplay1		0.0		
43	429.706	0.75	win-reward	StartDisplay				
43	430.459		win-reward	ImageDisplay2		0.0		
43	433.467	1.6	win-reward	ChoiceDisplay	1	0.824	1	1
43	434.303	0.776	win-reward	ChosenDisplay		0.0		
43	435.072	0.25	win-reward	TurnDisplay				
43	435.323	0.75	win-reward	OutcomeDisplay				
44	436.075		control-reward	ImageDisplay1		0.0		
44	438.065	0.75	control-reward	StartDisplay				
44	438.817		control-reward	ImageDisplay2		0.0		
44	442.076	1.6	control-reward	ChoiceDisplay	1	0.325	1	1
44	442.428	1.275	control-reward	ChosenDisplay		0.0		
44	443.681	0.25	control-reward	TurnDisplay				
44	443.932	0.75	control-reward	OutcomeDisplay				
45	444.684		loss-noreward	ImageDisplay1		0.0		
45	446.674	0.75	loss-noreward	StartDisplay				
45	447.426		loss-noreward	ImageDisplay2		0.0		
45	450.686	1.6	loss-noreward	ChoiceDisplay	1	0.682	1	1
45	451.388	0.918	loss-noreward	ChosenDisplay		0.0		
45	452.29	0.25	loss-noreward	TurnDisplay				
45	452.541	0.75	loss-noreward	OutcomeDisplay				
46	453.293		win-reward	ImageDisplay1		0.0		
46	455.533	0.75	win-reward	StartDisplay				
46	456.286		win-reward	ImageDisplay2		0.0		
46	459.294	1.6	win-reward	ChoiceDisplay	1	0.679	1	1
46	459.997	0.921	win-reward	ChosenDisplay		0.0		
46	460.899	0.25	win-reward	TurnDisplay				
46	461.15	0.75	win-reward	OutcomeDisplay				
47	461.902		win-noreward	ImageDisplay1		0.0		
47	463.892	0.75	win-noreward	StartDisplay				
47	464.644		win-noreward	ImageDisplay2		0.0		
47	467.904	1.6	win-noreward	ChoiceDisplay	1	0.613	1	1
47	468.539	0.987	win-noreward	ChosenDisplay		0.0		
47	469.508	0.25	win-noreward	TurnDisplay				
47	469.759	0.75	win-noreward	OutcomeDisplay				
48	470.511		win-reward	ImageDisplay1		0.0		
48	472.751	0.75	win-reward	StartDisplay				
48	473.504		win-reward	ImageDisplay2		0.0		
48	476.512	1.6	win-reward	ChoiceDisplay	1	0.839	1	1
48	477.365	0.761	win-reward	ChosenDisplay		0.0		
48	478.117	0.25	win-reward	TurnDisplay				
48	478.368	0.75	win-reward	OutcomeDisplay				
49	479.12		control-noreward	ImageDisplay1		0.0		
49	481.11	0.75	control-noreward	StartDisplay				
49	481.862		control-noreward	ImageDisplay2		0.0		
49	485.122	1.6	control-noreward	ChoiceDisplay	1	0.692	1	1
49	485.84	0.908	control-noreward	ChosenDisplay		0.0		
49	486.726	0.25	control-noreward	TurnDisplay				
49	486.977	0.75	control-noreward	OutcomeDisplay				
50	487.729		control-reward	ImageDisplay1		0.0		
50	489.719	0.75	control-reward	StartDisplay				
50	490.471		control-reward	ImageDisplay2		0.0		
50	493.73	1.6	control-reward	ChoiceDisplay	1	0.633	1	1
50	494.382	0.967	control-reward	ChosenDisplay		0.0		
50	495.335	0.25	control-reward	TurnDisplay				
50	495.586	0.75	control-reward	OutcomeDisplay				
51	496.338		win-noreward	ImageDisplay1		0.0		
51	498.578	0.75	win-noreward	StartDisplay				
51	499.331		win-noreward	ImageDisplay2		0.0		
51	502.339	1.6	win-noreward	ChoiceDisplay	1	0.55	1	1
51	502.908	1.05	win-noreward	ChosenDisplay		0.0		
51	503.944	0.25	win-noreward	TurnDisplay				
51	504.195	0.75	win-noreward	OutcomeDisplay				
52	504.947		control-noreward	ImageDisplay1		0.0		
52	506.937	0.75	control-noreward	StartDisplay				
52	507.689		control-noreward	ImageDisplay2		0.0		
52	510.948	1.6	control-noreward	ChoiceDisplay	1	0.61	1	1
52	511.584	0.99	control-noreward	ChosenDisplay		0.0		
52	512.553	0.25	control-noreward	TurnDisplay				
52	512.804	0.75	control-noreward	OutcomeDisplay				
53	513.556		control-reward	ImageDisplay1		0.0		
53	515.546	0.75	control-reward	StartDisplay				
53	516.298		control-reward	ImageDisplay2		0.0		
53	519.557	1.6	control-reward	ChoiceDisplay	1	0.628	1	1
53	520.209	0.972	control-reward	ChosenDisplay		0.0		
53	521.162	0.25	control-reward	TurnDisplay				
53	521.413	0.75	control-reward	OutcomeDisplay				
54	522.165		loss-reward	ImageDisplay1		0.0		
54	524.405	0.75	loss-reward	StartDisplay				
54	525.158		loss-reward	ImageDisplay2		0.0		
54	528.166	1.6	loss-reward	ChoiceDisplay	1	0.763	1	1
54	528.952	0.837	loss-reward	ChosenDisplay		0.0		
54	529.771	0.25	loss-reward	TurnDisplay				
54	530.022	0.75	loss-reward	OutcomeDisplay				
55	530.774		control-noreward	ImageDisplay1		0.0		
55	533.014	0.75	control-noreward	StartDisplay				
55	533.767		control-noreward	ImageDisplay2		0.0		
55	536.775	1.6	control-noreward	ChoiceDisplay	1	0.318	1	1
55	537.11	1.282	control-noreward	ChosenDisplay		0.0		
55	538.38	0.25	control-noreward	TurnDisplay				
55	538.631	0.75	control-noreward	OutcomeDisplay				
56	539.383		control-reward	ImageDisplay1		0.0		
56	541.623	0.75	control-reward	StartDisplay				
56	542.376		control-reward	ImageDisplay2		0.0		
56	545.384	1.6	control-reward	ChoiceDisplay	1	0.771	1	1
56	546.17	0.829	control-reward	ChosenDisplay		0.0		
56	546.989	0.25	control-reward	TurnDisplay				
56	547.24	0.75	control-reward	OutcomeDisplay				
57	547.992		control-reward	ImageDisplay1		0.0		
57	549.982	0.75	control-reward	StartDisplay				
57	550.734		control-reward	ImageDisplay2		0.0		
57	553.993	1.6	control-reward	ChoiceDisplay		0.0		
57	555.582	0.0	control-reward	ChosenDisplay		0.0		
57	555.598	0.25	control-reward	TurnDisplay				
57	555.832	0.75	control-reward	OutcomeDisplay				
58	556.585		win-reward	ImageDisplay1		0.0		
58	558.841	0.75	win-reward	StartDisplay				
58	559.594		win-reward	ImageDisplay2		0.0		
58	562.586	1.6	win-reward	ChoiceDisplay	1	0.711	1	1
58	563.321	0.889	win-reward	ChosenDisplay		0.0		
58	564.191	0.25	win-reward	TurnDisplay				
58	564.441	0.75	win-reward	OutcomeDisplay				
59	565.194		loss-reward	ImageDisplay1		0.0		
59	567.183	0.75	loss-reward	StartDisplay				
59	567.935		loss-reward	ImageDisplay2		0.0		
59	571.195	1.6	loss-reward	ChoiceDisplay	1	0.76	1	1
59	571.98	0.84	loss-reward	ChosenDisplay		0.0		
59	572.8	0.25	loss-reward	TurnDisplay				
59	573.05	0.75	loss-reward	OutcomeDisplay				
60	573.803		loss-reward	ImageDisplay1		0.0		
60	575.792	0.75	loss-reward	StartDisplay				
60	576.544		loss-reward	ImageDisplay2		0.0		
60	579.804	1.6	loss-reward	ChoiceDisplay	1	0.671	1	1
60	580.489	0.929	loss-reward	ChosenDisplay		0.0		
60	581.409	0.25	loss-reward	TurnDisplay				
60	581.659	0.75	loss-reward	OutcomeDisplay				
61	582.412		win-reward	ImageDisplay1		0.0		
61	584.401	0.75	win-reward	StartDisplay				
61	585.153		win-reward	ImageDisplay2		0.0		
61	588.413	1.6	win-reward	ChoiceDisplay	1	0.694	1	1
61	589.132	0.906	win-reward	ChosenDisplay		0.0		
61	590.018	0.25	win-reward	TurnDisplay				
61	590.268	0.75	win-reward	OutcomeDisplay				
62	591.021		win-noreward	ImageDisplay1		0.0		
62	593.261	0.75	win-noreward	StartDisplay				
62	594.013		win-noreward	ImageDisplay2		0.0		
62	597.022	1.6	win-noreward	ChoiceDisplay	1	0.676	1	1
62	597.724	0.924	win-noreward	ChosenDisplay		0.0		
62	598.627	0.25	win-noreward	TurnDisplay				
62	598.877	0.75	win-noreward	OutcomeDisplay				
63	599.63		control-noreward	ImageDisplay1		0.0		
63	601.87	0.75	control-noreward	StartDisplay				
63	602.639		control-noreward	ImageDisplay2		0.0		
63	605.631	1.6	control-noreward	ChoiceDisplay	1	0.85	1	1
63	606.5	0.75	control-noreward	ChosenDisplay		0.0		
63	607.236	0.25	control-noreward	TurnDisplay				
63	607.486	0.75	control-noreward	OutcomeDisplay				
64	608.239		control-reward	ImageDisplay1		0.0		
64	610.479	0.75	control-reward	StartDisplay				
64	611.231		control-reward	ImageDisplay2		0.0		
64	614.24	1.6	control-reward	ChoiceDisplay	1	0.523	1	1
64	614.775	1.077	control-reward	ChosenDisplay		0.0		
64	615.845	0.25	control-reward	TurnDisplay				
64	616.095	0.75	control-reward	OutcomeDisplay				
65	616.848		control-noreward	ImageDisplay1		0.0		
65	618.837	0.75	control-noreward	StartDisplay				
65	619.589		control-noreward	ImageDisplay2		0.0		
65	622.849	1.6	control-noreward	ChoiceDisplay	1	0.304	1	1
65	623.166	1.296	control-noreward	ChosenDisplay		0.0		
65	624.454	0.25	control-noreward	TurnDisplay				
65	624.704	0.75	control-noreward	OutcomeDisplay				
66	625.457		loss-noreward	ImageDisplay1		0.0		
66	627.697	0.75	loss-noreward	StartDisplay				
66	628.449		loss-noreward	ImageDisplay2		0.0		
66	631.458	1.6	loss-noreward	ChoiceDisplay	1	0.747	1	1
66	632.227	0.853	loss-noreward	ChosenDisplay		0.0		
66	633.063	0.25	loss-noreward	TurnDisplay				
66	633.313	0.75	loss-noreward	OutcomeDisplay				
67	634.066		loss-noreward	ImageDisplay1		0.0		
67	636.055	0.75	loss-noreward	StartDisplay				
67	636.807		loss-noreward	ImageDisplay2		0.0		
67	640.067	1.6	loss-noreward	ChoiceDisplay	1	0.557	1	1
67	640.635	1.043	loss-noreward	ChosenDisplay		0.0		
67	641.672	0.25	loss-noreward	TurnDisplay				
67	641.922	0.75	loss-noreward	OutcomeDisplay				
68	642.675		loss-reward	ImageDisplay1		0.0		
68	644.915	0.75	loss-reward	StartDisplay				
68	645.667		loss-reward	ImageDisplay2		0.0		
68	648.676	1.6	loss-reward	ChoiceDisplay	1	0.726	1	1
68	649.428	0.874	loss-reward	ChosenDisplay		0.0		
68	650.281	0.25	loss-reward	TurnDisplay				
68	650.531	0.75	loss-reward	OutcomeDisplay				
69	651.284		control-reward	ImageDisplay1		0.0		
69	653.273	0.75	control-reward	StartDisplay				
69	654.025		control-reward	ImageDisplay2		0.0		
69	657.285	1.6	control-reward	ChoiceDisplay	1	0.321	1	1
69	657.619	1.279	control-reward	ChosenDisplay		0.0		
69	658.89	0.25	control-reward	TurnDisplay				
69	659.14	0.75	control-reward	OutcomeDisplay				
70	659.893		control-noreward	ImageDisplay1		0.0		
70	661.882	0.75	control-noreward	StartDisplay				
70	662.634		control-noreward	ImageDisplay2		0.0		
70	665.894	1.6	control-noreward	ChoiceDisplay	1	0.869	1	1
70	666.78	0.731	control-noreward	ChosenDisplay		0.0		
70	667.499	0.25	control-noreward	TurnDisplay				
70	667.749	0.75	control-noreward	OutcomeDisplay				
71	668.502		loss-reward	ImageDisplay1		0.0		
71	670.742	0.75	loss-reward	StartDisplay				
71	671.494		loss-reward	ImageDisplay2		0.0		
71	674.503	1.6	loss-reward	ChoiceDisplay	1	0.716	1	1
71	675.238	0.884	loss-reward	ChosenDisplay		0.0		
71	676.108	0.25	loss-reward	TurnDisplay				
71	676.358	0.75	loss-reward	OutcomeDisplay				
72	677.111		control-noreward	ImageDisplay1		0.0		
72	679.351	0.75	control-noreward	StartDisplay				
72	680.103		control-noreward	ImageDisplay2		0.0		
72	683.112	1.6	control-noreward	ChoiceDisplay	1	0.775	1	1
72	683.914	0.825	control-noreward	ChosenDisplay		0.0		
72	684.717	0.25	control-noreward	TurnDisplay				
72	684.967	0.75	control-noreward	OutcomeDisplay				
73	685.72		control-reward	ImageDisplay1		0.0		
73	687.96	0.75	control-reward	StartDisplay				
73	688.712		control-reward	ImageDisplay2		0.0		
73	691.721	1.6	control-reward	ChoiceDisplay	1	0.911	1	1
73	692.657	0.689	control-reward	ChosenDisplay		0.0		
73	693.326	0.25	control-reward	TurnDisplay				
73	693.576	0.75	control-reward	OutcomeDisplay				
74	694.329		control-noreward	ImageDisplay1		0.0		
74	696.318	0.75	control-noreward	StartDisplay				
74	697.07		control-noreward	ImageDisplay2		0.0		
74	700.33	1.6	control-noreward	ChoiceDisplay	1	0.798	1	1
74	701.149	0.802	control-noreward	ChosenDisplay		0.0		
74	701.935	0.25	control-noreward	TurnDisplay				
74	702.185	0.75	control-noreward	OutcomeDisplay				
75	702.938		loss-reward	ImageDisplay1		0.0		
75	704.927	0.75	loss-reward	StartDisplay				
75	705.679		loss-reward	ImageDisplay2		0.0		
75	708.939	1.6	loss-reward	ChoiceDisplay	1	0.346	1	1
75	709.307	1.254	loss-reward	ChosenDisplay		0.0		
75	710.544	0.25	loss-reward	TurnDisplay				
75	710.794	0.75	loss-reward	OutcomeDisplay				
76	711.547		control-reward	ImageDisplay1		0.0		
76	713.787	0.75	control-reward	StartDisplay				
76	714.539		control-reward	ImageDisplay2		0.0		
76	717.548	1.6	control-reward	ChoiceDisplay	1	0.601	1	1
76	718.166	0.999	control-reward	ChosenDisplay		0.0		
76	719.153	0.25	control-reward	TurnDisplay				
76	719.403	0.75	control-reward	OutcomeDisplay				
77	720.156		win-noreward	ImageDisplay1		0.0		
77	722.145	0.75	win-noreward	StartDisplay				
77	722.897		win-noreward	ImageDisplay2		0.0		
77	726.157	1.6	win-noreward	ChoiceDisplay	1	0.596	1	1
77	726.775	1.004	win-noreward	ChosenDisplay		0.0		
77	727.762	0.25	win-noreward	TurnDisplay				
77	728.012	0.75	win-noreward	OutcomeDisplay				
78	728.765		win-noreward	ImageDisplay1		0.0		
78	730.754	0.75	win-noreward	StartDisplay				
78	731.506		win-noreward	ImageDisplay2		0.0		
78	734.766	1.6	win-noreward	ChoiceDisplay	1	0.513	1	1
78	735.301	1.087	win-noreward	ChosenDisplay		0.0		
78	736.371	0.25	win-noreward	TurnDisplay				
78	736.621	0.75	win-noreward	OutcomeDisplay				
79	737.374		loss-noreward	ImageDisplay1		0.0		
79	739.614	0.75	loss-noreward	StartDisplay				
79	740.366		loss-noreward	ImageDisplay2		0.0		
79	743.375	1.6	loss-noreward	ChoiceDisplay	1	0.335	1	1
79	743.726	1.265	loss-noreward	ChosenDisplay		0.0		
79	744.98	0.25	loss-noreward	TurnDisplay				
79	745.23	0.75	loss-noreward	OutcomeDisplay				
80	745.983		control-reward	ImageDisplay1		0.0		
80	747.972	0.75	control-reward	StartDisplay				
80	748.724		control-reward	ImageDisplay2		0.0		
80	751.984	1.6	control-reward	ChoiceDisplay	1	0.271	1	1
80	752.268	1.329	control-reward	ChosenDisplay		0.0		
80	753.589	0.25	control-reward	TurnDisplay				
80	753.839	0.75	control-reward	OutcomeDisplay				
81	754.592		control-noreward	ImageDisplay1		0.0		
81	756.581	0.75	control-noreward	StartDisplay				
81	757.333		control-noreward	ImageDisplay2		0.0		
81	760.593	1.6	control-noreward	ChoiceDisplay	1	0.314	1	1
81	760.927	1.286	control-noreward	ChosenDisplay		0.0		
81	762.198	0.25	control-noreward	TurnDisplay				
81	762.448	0.75	control-noreward	OutcomeDisplay				
82	763.201		loss-noreward	ImageDisplay1		0.0		
82	765.19	0.75	loss-noreward	StartDisplay				
82	765.942		loss-noreward	ImageDisplay2		0.0		
82	769.202	1.6	loss-noreward	ChoiceDisplay	1	0.6	1	1
82	769.82	1.0	loss-noreward	ChosenDisplay		0.0		
82	770.807	0.25	loss-noreward	TurnDisplay				
82	771.057	0.75	loss-noreward	OutcomeDisplay				
83	771.81		loss-noreward	ImageDisplay1		0.0		
83	774.05	0.75	loss-noreward	StartDisplay				
83	774.802		loss-noreward	ImageDisplay2		0.0		
83	777.813	1.6	loss-noreward	ChoiceDisplay	1	0.478	1	1
83	778.312	1.122	loss-noreward	ChosenDisplay		0.0		
83	779.416	0.25	loss-noreward	TurnDisplay				
83	779.666	0.75	loss-noreward	OutcomeDisplay				
84	780.419		loss-noreward	ImageDisplay1		0.0		
84	782.675	0.75	loss-noreward	StartDisplay				
84	783.411		loss-noreward	ImageDisplay2		0.0		
84	786.42	1.6	loss-noreward	ChoiceDisplay	1	0.732	1	1
84	787.172	0.868	loss-noreward	ChosenDisplay		0.0		
84	788.025	0.25	loss-noreward	TurnDisplay				
84	788.275	0.75	loss-noreward	OutcomeDisplay				
85	789.028		loss-reward	ImageDisplay1		0.0		
85	791.017	0.75	loss-reward	StartDisplay				
85	791.769		loss-reward	ImageDisplay2		0.0		
85	795.029	1.6	loss-reward	ChoiceDisplay	1	0.64	1	1
85	795.681	0.96	loss-reward	ChosenDisplay		0.0		
85	796.634	0.25	loss-reward	TurnDisplay				
85	796.884	0.75	loss-reward	OutcomeDisplay				
86	797.637		control-noreward	ImageDisplay1		0.0		
86	799.626	0.75	control-noreward	StartDisplay				
86	800.378		control-noreward	ImageDisplay2		0.0		
86	803.638	1.6	control-noreward	ChoiceDisplay	1	0.52	1	1
86	804.173	1.08	control-noreward	ChosenDisplay		0.0		
86	805.243	0.25	control-noreward	TurnDisplay				
86	805.493	0.75	control-noreward	OutcomeDisplay				
87	806.246		win-noreward	ImageDisplay1		0.0		
87	808.235	0.75	win-noreward	StartDisplay				
87	808.987		win-noreward	ImageDisplay2		0.0		
87	812.247	1.6	win-noreward	ChoiceDisplay	1	0.843	1	1
87	813.116	0.757	win-noreward	ChosenDisplay		0.0		
87	813.852	0.25	win-noreward	TurnDisplay				
87	814.102	0.75	win-noreward	OutcomeDisplay				
88	814.855		win-noreward	ImageDisplay1		0.0		
88	817.095	0.75	win-noreward	StartDisplay				
88	817.847		win-noreward	ImageDisplay2		0.0		
88	820.856	1.6	win-noreward	ChoiceDisplay	1	0.227	1	1
88	821.107	1.373	win-noreward	ChosenDisplay		0.0		
88	822.461	0.25	win-noreward	TurnDisplay				
88	822.711	0.75	win-noreward	OutcomeDisplay				
89	823.464		control-reward	ImageDisplay1		0.0		
89	825.704	0.75	control-reward	StartDisplay				
89	826.456		control-reward	ImageDisplay2		0.0		
89	829.465	1.6	control-reward	ChoiceDisplay	1	1.165	1	1
89	830.652	0.435	control-reward	ChosenDisplay		0.0		
89	831.07	0.25	control-reward	TurnDisplay				
89	831.32	0.75	control-reward	OutcomeDisplay				
90	832.073		win-reward	ImageDisplay1		0.0		
90	834.062	0.75	win-reward	StartDisplay				
90	834.814		win-reward	ImageDisplay2		0.0		
90	838.074	1.6	win-reward	ChoiceDisplay	1	0.887	1	1
90	838.976	0.713	win-reward	ChosenDisplay		0.0		
90	839.679	0.25	win-reward	TurnDisplay				
90	839.929	0.75	win-reward	OutcomeDisplay				
91	840.682		control-reward	ImageDisplay1		0.0		
91	842.671	0.75	control-reward	StartDisplay				
91	843.423		control-reward	ImageDisplay2		0.0		
91	846.683	1.6	control-reward	ChoiceDisplay	1	1.236	1	1
91	847.937	0.364	control-reward	ChosenDisplay		0.0		
91	848.288	0.25	control-reward	TurnDisplay				
91	848.538	0.75	control-reward	OutcomeDisplay				
92	849.291		win-reward	ImageDisplay1		0.0		
92	851.531	0.75	win-reward	StartDisplay				
92	852.283		win-reward	ImageDisplay2		0.0		
92	855.292	1.6	win-reward	ChoiceDisplay	1	1.084	1	1
92	856.395	0.516	win-reward	ChosenDisplay		0.0		
92	856.897	0.25	win-reward	TurnDisplay				
92	857.147	0.75	win-reward	OutcomeDisplay				
93	857.9		loss-reward	ImageDisplay1		0.0		
93	859.889	0.75	loss-reward	StartDisplay				
93	860.641		loss-reward	ImageDisplay2		0.0		
93	863.901	1.6	loss-reward	ChoiceDisplay	1	0.861	1	1
93	864.787	0.739	loss-reward	ChosenDisplay		0.0		
93	865.506	0.25	loss-reward	TurnDisplay				
93	865.756	0.75	loss-reward	OutcomeDisplay				
94	866.509		control-noreward	ImageDisplay1		0.0		
94	868.749	0.75	control-noreward	StartDisplay				
94	869.501		control-noreward	ImageDisplay2		0.0		
94	872.51	1.6	control-noreward	ChoiceDisplay	1	0.722	1	1
94	873.245	0.878	control-noreward	ChosenDisplay		0.0		
94	874.115	0.25	control-noreward	TurnDisplay				
94	874.365	0.75	control-noreward	OutcomeDisplay				
95	875.118		win-noreward	ImageDisplay1		0.0		
95	877.358	0.75	win-noreward	StartDisplay				
95	878.11		win-noreward	ImageDisplay2		0.0		
95	881.119	1.6	win-noreward	ChoiceDisplay	1	1.036	1	1
95	882.172	0.564	win-noreward	ChosenDisplay		0.0		
95	882.724	0.25	win-noreward	TurnDisplay				
95	882.974	0.75	win-noreward	OutcomeDisplay				
