onset	duration	trial_type	response_time	stim_file	accuracy
95.888	1.0	go	0.0	Go_O	0.0
98.479	1.0	go	0.516	Go_X	1.0
101.003	1.0	go	0.384	Go_X	1.0
103.528	1.0	go	0.396	Go_O	1.0
106.052	1.0	go	0.403	Go_X	1.0
108.576	1.0	go	0.259	Go_O	1.0
111.1	0.25	stop	0.667	Go_O	0.0
113.624	1.0	go	0.611	Go_X	1.0
116.148	0.2	stop	0.397	Go_X	0.0
118.673	1.0	go	0.293	Go_O	1.0
121.197	1.0	go	0.302	Go_X	1.0
123.721	1.0	go	0.254	Go_O	1.0
126.245	0.15	stop	0.0	Go_O	1.0
128.769	1.0	go	0.305	Go_X	1.0
131.294	1.0	go	0.432	Go_O	1.0
133.818	0.2	stop	0.198	Go_X	0.0
136.342	0.15	stop	0.678	Go_O	0.0
138.866	1.0	go	0.238	Go_X	1.0
141.39	1.0	go	0.414	Go_O	1.0
143.915	0.1	stop	0.0	Go_X	1.0
146.439	1.0	go	0.321	Go_X	1.0
148.963	1.0	go	0.357	Go_O	1.0
151.487	0.15	stop	0.0	Go_O	1.0
154.011	1.0	go	0.4	Go_X	1.0
156.536	1.0	go	0.544	Go_O	1.0
159.06	0.2	stop	0.289	Go_X	0.0
161.584	1.0	go	0.279	Go_O	1.0
164.108	1.0	go	0.204	Go_X	1.0
166.632	0.15	stop	0.256	Go_O	0.0
169.157	1.0	go	0.268	Go_O	0.0
171.681	1.0	go	0.472	Go_X	1.0
174.205	1.0	go	0.436	Go_X	1.0
176.729	1.0	go	0.287	Go_O	1.0
179.253	1.0	go	0.423	Go_X	1.0
181.777	0.1	stop	0.0	Go_X	1.0
184.302	1.0	go	0.281	Go_O	1.0
186.826	1.0	go	0.195	Go_O	0.0
189.35	1.0	go	0.318	Go_X	1.0
191.874	1.0	go	0.271	Go_O	1.0
194.398	1.0	go	0.559	Go_X	1.0
196.923	0.15	stop	0.281	Go_O	0.0
199.447	1.0	go	0.363	Go_X	1.0
201.971	1.0	go	0.412	Go_O	1.0
204.495	1.0	go	0.393	Go_O	1.0
207.019	1.0	go	0.323	Go_X	1.0
209.544	1.0	go	0.353	Go_X	1.0
212.068	1.0	go	0.27	Go_O	1.0
214.592	0.1	stop	0.0	Go_X	1.0
217.116	1.0	go	0.342	Go_O	1.0
219.64	1.0	go	0.488	Go_X	1.0
222.165	0.15	stop	0.283	Go_O	0.0
224.689	1.0	go	0.413	Go_X	1.0
227.213	0.1	stop	0.0	Go_X	1.0
229.737	0.15	stop	0.327	Go_O	0.0
232.261	1.0	go	0.541	Go_O	1.0
234.785	1.0	go	0.265	Go_X	1.0
237.31	1.0	go	0.258	Go_O	1.0
239.834	1.0	go	0.304	Go_X	1.0
242.358	0.1	stop	0.0	Go_X	1.0
244.882	1.0	go	0.328	Go_O	1.0
247.406	0.15	stop	0.0	Go_O	1.0
249.931	1.0	go	0.344	Go_X	1.0
252.455	1.0	go	0.35	Go_O	1.0
254.979	1.0	go	0.296	Go_O	0.0
257.503	1.0	go	0.507	Go_X	1.0
260.027	1.0	go	0.443	Go_O	1.0
262.552	1.0	go	0.327	Go_X	1.0
265.076	1.0	go	0.345	Go_O	1.0
267.6	1.0	go	0.667	Go_X	1.0
270.124	1.0	go	0.469	Go_X	1.0
272.648	0.2	stop	0.0	Go_X	1.0
275.173	1.0	go	0.347	Go_O	1.0
277.697	1.0	go	0.55	Go_X	1.0
280.221	1.0	go	0.318	Go_O	1.0
282.745	0.25	stop	0.566	Go_O	0.0
285.269	1.0	go	0.418	Go_X	1.0
287.794	1.0	go	0.422	Go_O	1.0
290.318	1.0	go	0.527	Go_O	1.0
292.842	1.0	go	0.289	Go_X	1.0
295.366	1.0	go	0.301	Go_O	1.0
297.89	1.0	go	0.285	Go_X	1.0
300.415	0.2	stop	0.337	Go_X	0.0
302.939	1.0	go	0.475	Go_O	1.0
305.463	1.0	go	0.408	Go_X	1.0
307.987	0.15	stop	0.0	Go_O	1.0
310.511	1.0	go	0.486	Go_O	1.0
313.035	1.0	go	0.452	Go_X	1.0
315.56	0.2	stop	0.0	Go_X	1.0
318.084	1.0	go	0.33	Go_X	1.0
320.608	0.25	stop	0.439	Go_O	0.0
323.132	1.0	go	0.569	Go_O	1.0
325.656	1.0	go	0.397	Go_O	1.0
328.181	1.0	go	0.486	Go_X	1.0
330.705	1.0	go	0.319	Go_X	1.0
333.229	1.0	go	0.411	Go_O	1.0
335.753	0.2	stop	0.0	Go_X	1.0
338.277	0.25	stop	0.0	Go_O	1.0
340.802	1.0	go	0.428	Go_O	1.0
343.326	1.0	go	0.333	Go_X	1.0
345.85	0.3	stop	0.428	Go_X	0.0
348.374	1.0	go	0.614	Go_X	1.0
350.898	1.0	go	0.376	Go_O	1.0
353.423	1.0	go	0.424	Go_X	1.0
355.947	1.0	go	0.387	Go_O	1.0
358.471	1.0	go	0.689	Go_X	1.0
360.995	1.0	go	0.52	Go_O	1.0
363.519	0.25	stop	0.0	Go_O	1.0
366.044	1.0	go	0.492	Go_O	1.0
368.568	1.0	go	0.327	Go_X	1.0
371.092	1.0	go	0.385	Go_X	1.0
373.616	1.0	go	0.27	Go_O	1.0
376.14	1.0	go	0.304	Go_X	1.0
378.664	0.3	stop	0.511	Go_X	0.0
381.189	1.0	go	0.785	Go_O	1.0
383.713	1.0	go	0.468	Go_X	1.0
386.237	1.0	go	0.556	Go_O	1.0
388.761	1.0	go	0.381	Go_X	1.0
391.285	0.25	stop	0.363	Go_O	0.0
393.81	1.0	go	0.634	Go_O	1.0
396.334	1.0	go	0.359	Go_O	1.0
398.858	0.2	stop	0.269	Go_X	0.0
401.382	1.0	go	0.514	Go_X	1.0
403.906	0.15	stop	0.294	Go_O	0.0
406.431	1.0	go	0.569	Go_O	1.0
408.955	1.0	go	0.361	Go_X	1.0
411.479	1.0	go	0.405	Go_X	1.0
414.003	1.0	go	0.295	Go_O	1.0
416.527	1.0	go	0.309	Go_X	1.0
419.052	1.0	go	0.331	Go_O	1.0
421.576	1.0	go	0.473	Go_O	1.0
424.1	0.1	stop	0.0	Go_X	1.0
426.624	1.0	go	0.442	Go_X	1.0
429.148	1.0	go	0.394	Go_O	1.0
431.672	1.0	go	0.44	Go_X	1.0
434.197	0.15	stop	0.324	Go_O	0.0
436.721	1.0	go	0.352	Go_X	1.0
439.245	1.0	go	0.293	Go_O	1.0
441.769	1.0	go	0.326	Go_X	1.0
444.293	1.0	go	0.385	Go_O	1.0
446.818	0.1	stop	0.0	Go_X	1.0
449.342	1.0	go	0.476	Go_X	1.0
451.866	1.0	go	0.341	Go_O	1.0
454.39	0.15	stop	0.0	Go_O	1.0
456.914	1.0	go	0.402	Go_X	1.0
459.439	1.0	go	0.391	Go_O	1.0
461.963	0.2	stop	0.0	Go_X	1.0
464.487	1.0	go	0.388	Go_X	1.0
467.011	1.0	go	0.44	Go_O	1.0
469.535	0.25	stop	0.0	Go_O	1.0
472.06	1.0	go	0.548	Go_X	1.0
474.584	1.0	go	0.709	Go_O	1.0
477.108	1.0	go	0.757	Go_O	1.0
479.632	1.0	go	0.576	Go_X	1.0
482.156	1.0	go	0.548	Go_X	1.0
484.681	1.0	go	0.641	Go_O	1.0
487.205	0.3	stop	0.0	Go_X	1.0
489.729	1.0	go	0.795	Go_O	1.0
492.253	0.35	stop	0.0	Go_O	1.0
494.777	1.0	go	0.452	Go_X	1.0
497.301	1.0	go	0.654	Go_X	1.0
499.826	1.0	go	0.736	Go_O	1.0
502.35	1.0	go	0.524	Go_X	1.0
504.874	1.0	go	0.62	Go_O	1.0
507.398	0.4	stop	0.0	Go_X	1.0
509.922	1.0	go	0.793	Go_X	1.0
512.447	1.0	go	0.527	Go_O	1.0
514.971	1.0	go	0.317	Go_X	1.0
517.495	0.45	stop	0.0	Go_O	1.0
520.019	0.5	stop	0.0	Go_X	1.0
522.543	0.55	stop	0.568	Go_O	0.0
525.068	1.0	go	0.729	Go_O	1.0
527.592	0.5	stop	0.0	Go_X	1.0
530.116	1.0	go	0.682	Go_X	1.0
532.64	1.0	go	0.416	Go_O	1.0
535.164	1.0	go	0.309	Go_X	1.0
537.689	1.0	go	0.324	Go_O	1.0
540.213	1.0	go	0.391	Go_O	1.0
542.737	1.0	go	0.661	Go_X	1.0
545.261	1.0	go	0.439	Go_O	1.0
547.785	1.0	go	0.59	Go_X	1.0
550.31	0.55	stop	0.579	Go_O	0.0
552.834	1.0	go	0.376	Go_X	1.0
555.358	1.0	go	0.456	Go_O	1.0
557.882	0.5	stop	0.601	Go_X	0.0
560.406	1.0	go	0.428	Go_O	1.0
562.93	1.0	go	0.394	Go_X	1.0
565.455	1.0	go	0.295	Go_O	1.0
567.979	1.0	go	0.228	Go_X	1.0
570.503	1.0	go	0.27	Go_O	1.0
573.027	0.45	stop	0.505	Go_O	0.0
575.551	1.0	go	0.641	Go_X	1.0
578.076	1.0	go	0.438	Go_O	1.0
580.6	1.0	go	0.308	Go_X	1.0
583.124	0.4	stop	0.453	Go_X	0.0
585.648	1.0	go	0.616	Go_X	1.0
588.172	0.35	stop	0.0	Go_O	1.0
590.697	1.0	go	0.561	Go_O	1.0
593.221	1.0	go	0.619	Go_X	1.0
595.745	1.0	go	0.606	Go_O	1.0
598.269	1.0	go	0.357	Go_X	1.0
600.793	1.0	go	0.297	Go_O	1.0
603.318	1.0	go	0.411	Go_X	1.0
605.842	1.0	go	0.531	Go_O	1.0
608.366	0.4	stop	0.0	Go_X	1.0
610.89	1.0	go	0.449	Go_X	1.0
613.414	1.0	go	0.347	Go_O	1.0
615.939	1.0	go	0.684	Go_X	1.0
618.463	1.0	go	0.548	Go_O	1.0
620.987	0.45	stop	0.0	Go_O	1.0
623.511	1.0	go	0.81	Go_X	1.0
626.035	0.5	stop	0.716	Go_X	0.0
628.559	1.0	go	0.481	Go_O	1.0
631.084	1.0	go	0.717	Go_X	1.0
633.608	0.45	stop	0.263	Go_O	0.0
636.132	1.0	go	0.47	Go_O	1.0
638.656	1.0	go	0.767	Go_X	1.0
641.18	1.0	go	0.534	Go_O	1.0
643.705	1.0	go	0.756	Go_X	1.0
646.229	1.0	go	0.43	Go_O	1.0
648.753	1.0	go	0.563	Go_O	1.0
651.277	1.0	go	0.512	Go_X	1.0
653.801	1.0	go	0.597	Go_X	1.0
656.326	1.0	go	0.369	Go_O	1.0
658.85	1.0	go	0.328	Go_X	1.0
661.374	0.4	stop	0.403	Go_X	0.0
663.898	1.0	go	0.527	Go_O	1.0
666.422	1.0	go	0.552	Go_O	1.0
668.947	0.35	stop	0.0	Go_O	1.0
671.471	1.0	go	0.42	Go_X	1.0
673.995	0.4	stop	0.586	Go_X	0.0
676.519	1.0	go	0.533	Go_O	1.0
679.043	1.0	go	0.69	Go_X	1.0
681.568	0.35	stop	0.0	Go_O	1.0
684.092	1.0	go	0.741	Go_O	1.0
686.616	0.4	stop	0.0	Go_X	1.0
689.14	1.0	go	0.427	Go_X	1.0
691.664	1.0	go	0.414	Go_X	1.0
694.188	1.0	go	0.814	Go_O	1.0
696.713	0.45	stop	0.0	Go_O	1.0
699.237	1.0	go	0.449	Go_O	1.0
701.761	1.0	go	0.52	Go_X	1.0
704.285	1.0	go	0.661	Go_O	1.0
706.809	1.0	go	0.436	Go_X	1.0
709.334	0.5	stop	0.654	Go_X	0.0
711.858	1.0	go	0.652	Go_X	1.0
714.382	1.0	go	0.516	Go_O	1.0
716.906	0.45	stop	0.0	Go_O	1.0
719.43	1.0	go	0.553	Go_O	1.0
721.955	1.0	go	0.535	Go_X	1.0
724.479	1.0	go	0.586	Go_O	1.0
727.003	1.0	go	0.463	Go_X	1.0
729.527	0.5	stop	0.487	Go_X	0.0
732.051	1.0	go	0.991	Go_X	1.0
734.576	0.45	stop	0.298	Go_O	0.0
737.1	1.0	go	0.357	Go_O	1.0
739.624	1.0	go	0.425	Go_X	1.0
742.148	0.4	stop	0.537	Go_X	0.0
744.672	1.0	go	0.379	Go_O	1.0
747.197	1.0	go	0.59	Go_X	1.0
749.721	1.0	go	0.4	Go_O	1.0
752.245	1.0	go	0.485	Go_O	1.0
754.769	0.35	stop	0.396	Go_O	0.0
757.293	1.0	go	0.408	Go_X	1.0
759.817	0.3	stop	0.0	Go_X	1.0
762.342	1.0	go	0.3	Go_O	1.0
764.866	1.0	go	0.4	Go_X	1.0
767.39	1.0	go	0.581	Go_O	1.0
769.914	1.0	go	0.398	Go_X	1.0
772.438	1.0	go	0.34	Go_O	1.0
774.963	1.0	go	0.613	Go_X	1.0
777.487	0.35	stop	0.287	Go_O	0.0
780.011	1.0	go	0.47	Go_O	1.0
782.535	1.0	go	0.372	Go_X	1.0
785.059	0.3	stop	0.0	Go_X	1.0
787.584	1.0	go	0.597	Go_O	1.0
790.108	1.0	go	0.665	Go_X	1.0
792.632	0.35	stop	0.0	Go_O	1.0
795.156	1.0	go	0.456	Go_O	1.0
797.68	1.0	go	0.337	Go_X	1.0
800.205	1.0	go	0.44	Go_O	1.0
802.729	1.0	go	0.395	Go_X	1.0
805.253	0.4	stop	0.473	Go_X	0.0
807.777	1.0	go	0.368	Go_O	1.0
810.301	0.35	stop	0.471	Go_O	0.0
812.826	1.0	go	0.475	Go_X	1.0
815.35	1.0	go	0.595	Go_X	1.0
817.874	1.0	go	0.395	Go_O	1.0
820.398	1.0	go	0.537	Go_O	1.0
822.922	1.0	go	0.581	Go_X	1.0
825.446	0.3	stop	0.0	Go_X	1.0
827.971	1.0	go	0.403	Go_O	1.0
830.495	1.0	go	0.52	Go_X	1.0
833.019	0.35	stop	0.0	Go_O	1.0
835.543	0.4	stop	0.0	Go_X	1.0
838.067	1.0	go	0.478	Go_X	1.0
840.592	1.0	go	0.544	Go_O	1.0
843.116	1.0	go	0.311	Go_O	1.0
845.64	1.0	go	0.451	Go_X	1.0
848.164	0.45	stop	0.497	Go_O	0.0
850.688	1.0	go	0.59	Go_X	1.0
