onset	duration	trial_type	response_time	stim_file	accuracy
0.5290000000000035	1.0	go	0.0	Go_O	0.0
3.0630000000000024	1.0	go	0.0	Go_X	0.0
5.5959999999999965	1.0	go	0.465	Go_X	1.0
8.128999999999998	1.0	go	0.544	Go_O	1.0
10.661999999999999	1.0	go	0.417	Go_X	1.0
13.196000000000005	1.0	go	0.297	Go_O	1.0
15.729000000000006	0.25	stopsuccess	0.0	Go_O	1.0
18.262000000000008	1.0	go	0.377	Go_X	1.0
20.79500000000001	0.3	stopsuccess	0.0	Go_X	1.0
23.329	1.0	go	0.452	Go_O	1.0
25.862000000000002	1.0	go	0.585	Go_O	1.0
28.395000000000003	1.0	go	0.869	Go_X	1.0
30.92900000000001	0.35	stopfail	0.378	Go_O	0.0
33.461999999999996	1.0	go	0.581	Go_X	1.0
35.995	1.0	go	0.597	Go_O	1.0
38.528	0.3	stopfail	0.449	Go_X	0.0
41.062000000000005	0.25	stopsuccess	0.0	Go_O	1.0
43.595000000000006	1.0	go	0.452	Go_O	1.0
46.12800000000001	1.0	go	0.519	Go_X	1.0
48.662	0.3	stopsuccess	0.0	Go_X	1.0
51.211000000000006	1.0	go	0.397	Go_O	1.0
53.745	1.0	go	0.605	Go_X	1.0
56.278	0.35	stopsuccess	0.0	Go_O	1.0
58.811	1.0	go	0.683	Go_X	1.0
61.345000000000006	1.0	go	0.692	Go_O	1.0
63.894	0.4	stopsuccess	0.0	Go_X	1.0
66.428	1.0	go	0.915	Go_X	1.0
68.96099999999998	1.0	go	0.865	Go_O	1.0
71.494	0.45	stopsuccess	0.0	Go_O	1.0
74.02799999999999	1.0	go	0.765	Go_O	1.0
76.561	1.0	go	0.785	Go_X	1.0
79.094	1.0	go	0.719	Go_X	1.0
81.62700000000001	1.0	go	0.634	Go_O	1.0
84.161	1.0	go	0.363	Go_X	1.0
86.69399999999999	0.5	stopsuccess	0.0	Go_X	1.0
89.227	1.0	go	0.479	Go_O	1.0
91.761	1.0	go	0.953	Go_O	1.0
94.31	1.0	go	0.763	Go_X	1.0
96.844	1.0	go	0.828	Go_X	1.0
99.37700000000001	1.0	go	0.784	Go_O	1.0
101.91	0.55	stopsuccess	0.0	Go_O	1.0
104.44399999999999	1.0	go	0.424	Go_X	1.0
106.993	1.0	go	0.391	Go_O	1.0
109.52699999999999	1.0	go	0.768	Go_O	1.0
112.06	1.0	go	0.597	Go_X	1.0
114.59299999999999	1.0	go	0.586	Go_O	1.0
117.12700000000001	1.0	go	0.895	Go_X	1.0
119.66	0.6	stopfail	0.633	Go_X	0.0
122.19299999999998	1.0	go	0.44	Go_X	1.0
124.726	1.0	go	0.832	Go_O	1.0
127.25999999999999	0.55	stopsuccess	0.0	Go_O	1.0
129.793	1.0	go	0.646	Go_O	1.0
132.326	0.6	stopfail	0.728	Go_X	0.0
134.859	0.55	stopfail	0.695	Go_O	0.0
137.393	1.0	go	0.911	Go_X	1.0
139.926	1.0	go	0.618	Go_X	1.0
142.459	1.0	go	0.751	Go_O	1.0
144.993	1.0	go	0.871	Go_O	1.0
147.52599999999998	0.5	stopsuccess	0.0	Go_X	1.0
150.059	1.0	go	0.692	Go_X	1.0
152.59199999999998	0.55	stopsuccess	0.0	Go_O	1.0
155.126	1.0	go	0.741	Go_O	0.0
157.659	1.0	go	0.417	Go_X	1.0
160.192	1.0	go	0.853	Go_X	1.0
162.726	1.0	go	0.326	Go_O	1.0
165.275	1.0	go	0.432	Go_O	1.0
167.809	1.0	go	0.535	Go_X	1.0
170.34199999999998	1.0	go	0.463	Go_O	1.0
172.875	1.0	go	0.49	Go_X	1.0
175.409	1.0	go	0.596	Go_O	1.0
177.942	0.6	stopfail	0.504	Go_X	0.0
180.475	1.0	go	0.807	Go_X	1.0
183.008	1.0	go	0.925	Go_O	1.0
185.542	1.0	go	0.684	Go_X	1.0
188.075	0.55	stopfail	0.367	Go_O	0.0
190.608	1.0	go	0.301	Go_X	1.0
193.141	1.0	go	0.405	Go_O	1.0
195.67499999999998	1.0	go	0.481	Go_O	0.0
198.208	1.0	go	0.832	Go_X	1.0
200.741	1.0	go	0.0	Go_O	0.0
203.275	1.0	go	0.415	Go_X	1.0
205.80800000000002	0.5	stopfail	0.516	Go_X	0.0
208.34099999999998	1.0	go	0.539	Go_X	0.0
210.874	1.0	go	0.443	Go_O	1.0
213.408	0.45	stopfail	0.578	Go_O	0.0
215.941	1.0	go	0.443	Go_O	1.0
218.47400000000002	1.0	go	0.73	Go_X	1.0
221.00699999999998	0.4	stopsuccess	0.0	Go_X	1.0
223.54099999999997	1.0	go	0.612	Go_X	1.0
226.07399999999998	0.45	stopfail	0.444	Go_O	0.0
228.607	1.0	go	0.98	Go_O	1.0
231.141	1.0	go	0.573	Go_X	1.0
233.674	1.0	go	0.739	Go_O	1.0
236.20700000000002	1.0	go	0.557	Go_O	1.0
238.73999999999998	1.0	go	0.581	Go_X	1.0
241.27399999999997	0.4	stopfail	0.465	Go_X	0.0
243.807	0.35	stopsuccess	0.0	Go_O	1.0
246.34	1.0	go	0.644	Go_X	1.0
248.874	1.0	go	0.634	Go_O	1.0
251.42299999999997	0.4	stopsuccess	0.0	Go_X	1.0
253.95700000000002	1.0	go	0.623	Go_X	1.0
256.49	1.0	go	0.949	Go_O	1.0
259.023	1.0	go	0.538	Go_X	1.0
261.557	1.0	go	0.545	Go_O	1.0
264.09000000000003	1.0	go	0.688	Go_X	1.0
266.62300000000005	1.0	go	0.658	Go_O	1.0
269.156	0.45	stopfail	0.573	Go_O	0.0
271.69	1.0	go	0.752	Go_X	1.0
274.223	1.0	go	0.898	Go_O	1.0
276.75600000000003	1.0	go	0.735	Go_X	1.0
279.28900000000004	1.0	go	0.644	Go_O	1.0
281.82300000000004	1.0	go	0.687	Go_O	1.0
284.35600000000005	0.4	stopfail	0.353	Go_X	0.0
286.889	1.0	go	0.633	Go_X	1.0
289.423	1.0	go	0.674	Go_O	1.0
291.956	1.0	go	0.654	Go_X	1.0
294.48900000000003	1.0	go	0.668	Go_O	0.0
297.02200000000005	0.35	stopsuccess	0.0	Go_O	1.0
299.55600000000004	1.0	go	0.385	Go_X	1.0
302.089	1.0	go	0.524	Go_X	1.0
304.622	0.4	stopfail	0.424	Go_X	0.0
307.15500000000003	1.0	go	0.575	Go_O	1.0
309.689	0.35	stopsuccess	0.0	Go_O	1.0
312.22200000000004	1.0	go	0.652	Go_O	1.0
314.75500000000005	1.0	go	0.51	Go_X	1.0
317.28900000000004	1.0	go	0.523	Go_O	1.0
319.822	1.0	go	0.545	Go_X	1.0
322.355	1.0	go	0.751	Go_O	1.0
324.88800000000003	1.0	go	0.0	Go_X	0.0
327.422	1.0	go	0.475	Go_O	1.0
329.95500000000004	0.4	stopfail	0.548	Go_X	0.0
332.488	1.0	go	0.614	Go_X	1.0
335.02200000000005	1.0	go	0.807	Go_O	1.0
337.571	1.0	go	0.674	Go_X	1.0
340.105	0.35	stopsuccess	0.0	Go_O	1.0
342.63800000000003	1.0	go	0.486	Go_O	1.0
345.17100000000005	1.0	go	0.54	Go_X	1.0
347.70500000000004	1.0	go	0.603	Go_X	1.0
350.254	1.0	go	0.65	Go_O	1.0
352.788	0.4	stopfail	0.425	Go_X	0.0
355.321	1.0	go	0.297	Go_X	0.0
357.85400000000004	1.0	go	0.451	Go_O	1.0
360.38800000000003	0.35	stopfail	0.451	Go_O	0.0
362.92100000000005	1.0	go	0.407	Go_X	1.0
365.454	1.0	go	0.864	Go_O	1.0
367.987	0.3	stopsuccess	0.0	Go_X	1.0
370.521	1.0	go	0.579	Go_O	1.0
373.05400000000003	1.0	go	0.661	Go_X	1.0
375.58700000000005	0.35	stopsuccess	0.0	Go_O	1.0
378.12	1.0	go	0.592	Go_X	1.0
380.654	1.0	go	0.627	Go_O	1.0
383.187	1.0	go	0.674	Go_X	1.0
385.72	1.0	go	0.784	Go_O	0.0
388.254	1.0	go	0.447	Go_X	1.0
390.78700000000003	1.0	go	0.365	Go_O	1.0
393.32000000000005	0.4	stopfail	0.504	Go_X	0.0
395.853	1.0	go	0.641	Go_X	1.0
398.387	0.35	stopsuccess	0.0	Go_O	1.0
400.92	1.0	go	0.488	Go_O	1.0
403.45300000000003	1.0	go	0.0	Go_O	0.0
405.987	1.0	go	0.354	Go_X	1.0
408.536	1.0	go	0.486	Go_X	1.0
411.07000000000005	1.0	go	0.503	Go_O	1.0
413.603	0.4	stopsuccess	0.0	Go_X	1.0
416.136	1.0	go	0.499	Go_O	1.0
418.67	1.0	go	0.638	Go_X	1.0
421.20300000000003	1.0	go	0.0	Go_X	0.0
423.73600000000005	0.45	stopsuccess	0.0	Go_O	1.0
426.269	0.5	stopfail	0.648	Go_X	0.0
428.803	0.45	stopfail	0.721	Go_O	0.0
431.336	1.0	go	0.719	Go_O	1.0
433.869	0.4	stopsuccess	0.0	Go_X	1.0
436.40200000000004	1.0	go	0.733	Go_X	0.0
438.93600000000004	1.0	go	0.474	Go_O	1.0
441.46900000000005	1.0	go	0.378	Go_X	1.0
444.002	1.0	go	0.779	Go_O	1.0
446.536	1.0	go	0.548	Go_X	1.0
449.069	1.0	go	0.775	Go_O	1.0
451.60200000000003	1.0	go	0.0	Go_X	0.0
454.13500000000005	1.0	go	0.485	Go_O	1.0
456.66900000000004	0.45	stopfail	0.673	Go_O	0.0
459.20200000000006	1.0	go	0.437	Go_X	1.0
461.73500000000007	1.0	go	0.64	Go_O	1.0
464.268	0.4	stopfail	0.597	Go_X	0.0
466.8020000000001	1.0	go	0.845	Go_X	1.0
469.335	1.0	go	0.857	Go_O	1.0
471.868	1.0	go	0.7	Go_O	1.0
474.402	1.0	go	0.8	Go_X	1.0
476.935	1.0	go	0.512	Go_X	1.0
479.468	0.35	stopsuccess	0.0	Go_O	1.0
482.00100000000003	1.0	go	0.0	Go_O	0.0
484.535	1.0	go	0.0	Go_X	0.0
487.06800000000004	1.0	go	0.522	Go_O	1.0
489.60100000000006	0.4	stopfail	0.304	Go_X	0.0
492.13500000000005	1.0	go	0.364	Go_O	1.0
494.684	0.35	stopfail	0.462	Go_O	0.0
497.218	1.0	go	0.321	Go_X	1.0
499.75100000000003	1.0	go	0.337	Go_O	1.0
502.28400000000005	1.0	go	0.551	Go_X	1.0
504.81800000000004	1.0	go	0.653	Go_O	1.0
507.35100000000006	1.0	go	0.566	Go_X	1.0
509.88400000000007	1.0	go	0.667	Go_X	1.0
512.4169999999999	1.0	go	0.449	Go_O	1.0
514.951	0.3	stopsuccess	0.0	Go_X	1.0
517.4839999999999	1.0	go	0.664	Go_O	0.0
520.0169999999999	1.0	go	0.808	Go_X	0.0
522.55	1.0	go	0.669	Go_X	1.0
525.084	1.0	go	0.332	Go_O	1.0
527.617	0.35	stopfail	0.349	Go_O	0.0
530.15	1.0	go	0.505	Go_X	1.0
532.684	0.3	stopfail	0.595	Go_X	0.0
535.217	1.0	go	0.546	Go_O	1.0
537.75	1.0	go	0.533	Go_X	1.0
540.283	0.25	stopfail	0.352	Go_O	0.0
542.817	1.0	go	0.507	Go_O	1.0
545.35	1.0	go	0.355	Go_O	0.0
547.8829999999999	1.0	go	0.508	Go_X	1.0
550.4159999999999	1.0	go	0.499	Go_X	1.0
552.9499999999999	1.0	go	0.605	Go_O	1.0
555.483	1.0	go	0.403	Go_O	1.0
558.016	1.0	go	0.546	Go_X	1.0
560.55	1.0	go	0.566	Go_X	1.0
563.083	1.0	go	0.605	Go_O	1.0
565.616	1.0	go	0.483	Go_O	1.0
568.149	0.2	stopsuccess	0.0	Go_X	1.0
570.683	1.0	go	0.506	Go_X	0.0
573.216	1.0	go	0.45	Go_X	1.0
575.749	0.25	stopsuccess	0.0	Go_O	1.0
578.283	1.0	go	0.707	Go_O	1.0
580.832	0.3	stopfail	0.583	Go_X	0.0
583.366	1.0	go	0.396	Go_O	1.0
585.899	1.0	go	0.0	Go_X	0.0
588.432	0.25	stopfail	0.425	Go_O	0.0
590.966	1.0	go	0.447	Go_O	1.0
593.499	0.2	stopfail	0.455	Go_X	0.0
596.0319999999999	1.0	go	0.716	Go_X	1.0
598.5649999999999	1.0	go	0.545	Go_X	1.0
601.0989999999999	1.0	go	0.659	Go_O	1.0
603.632	0.15	stopsuccess	0.0	Go_O	1.0
606.165	1.0	go	0.59	Go_O	1.0
608.698	1.0	go	0.582	Go_X	1.0
611.232	1.0	go	0.491	Go_O	1.0
613.765	1.0	go	0.621	Go_X	1.0
616.298	0.2	stopsuccess	0.0	Go_X	1.0
618.832	1.0	go	0.694	Go_O	1.0
621.365	1.0	go	0.407	Go_X	1.0
623.8979999999999	0.25	stopsuccess	0.0	Go_O	1.0
626.4309999999999	1.0	go	0.696	Go_O	1.0
628.9649999999999	1.0	go	0.0	Go_X	0.0
631.4979999999999	1.0	go	0.588	Go_X	1.0
634.031	1.0	go	0.444	Go_O	1.0
636.564	0.3	stopfail	0.464	Go_X	0.0
639.098	1.0	go	0.503	Go_X	1.0
641.631	0.25	stopsuccess	0.0	Go_O	1.0
644.164	1.0	go	0.566	Go_O	1.0
646.698	1.0	go	0.628	Go_O	0.0
649.231	0.3	stopsuccess	0.0	Go_X	1.0
651.764	1.0	go	0.517	Go_X	1.0
654.2969999999999	1.0	go	0.629	Go_X	1.0
656.831	1.0	go	0.706	Go_O	1.0
659.3639999999999	1.0	go	0.483	Go_O	1.0
661.8969999999999	0.35	stopfail	0.388	Go_O	0.0
664.43	1.0	go	0.0	Go_X	0.0
666.9639999999999	0.3	stopfail	0.351	Go_X	0.0
669.497	1.0	go	0.553	Go_O	1.0
672.03	1.0	go	0.42	Go_X	1.0
674.564	1.0	go	0.509	Go_X	1.0
677.097	1.0	go	0.544	Go_O	1.0
679.63	1.0	go	0.551	Go_O	1.0
682.163	1.0	go	0.576	Go_X	1.0
684.697	0.25	stopfail	0.365	Go_O	0.0
687.23	1.0	go	0.591	Go_O	1.0
689.7629999999999	1.0	go	0.914	Go_X	1.0
692.2969999999999	0.2	stopsuccess	0.0	Go_X	1.0
694.846	1.0	go	0.546	Go_X	1.0
697.38	1.0	go	0.497	Go_O	1.0
699.913	0.25	stopsuccess	0.0	Go_O	1.0
702.4459999999999	1.0	go	0.459	Go_X	1.0
704.98	1.0	go	0.504	Go_O	1.0
707.5129999999999	1.0	go	0.661	Go_X	1.0
710.0459999999999	1.0	go	0.534	Go_O	1.0
712.579	0.3	stopfail	0.557	Go_X	0.0
715.1129999999999	1.0	go	0.897	Go_O	1.0
717.646	0.25	stopsuccess	0.0	Go_O	1.0
720.179	1.0	go	0.517	Go_X	1.0
722.712	1.0	go	0.57	Go_O	1.0
725.246	1.0	go	0.568	Go_X	1.0
727.779	1.0	go	0.0	Go_O	0.0
730.312	1.0	go	0.384	Go_X	1.0
732.846	0.3	stopsuccess	0.0	Go_X	1.0
735.379	1.0	go	0.51	Go_X	1.0
737.9119999999999	1.0	go	0.557	Go_O	1.0
740.4449999999999	0.35	stopsuccess	0.0	Go_O	1.0
742.9789999999999	0.4	stopfail	0.324	Go_X	0.0
745.512	1.0	go	0.661	Go_X	1.0
748.045	1.0	go	0.488	Go_O	1.0
750.578	1.0	go	0.607	Go_X	1.0
753.112	1.0	go	0.462	Go_O	1.0
755.645	0.35	stopfail	0.578	Go_O	0.0
758.178	1.0	go	0.631	Go_X	1.0
