onset	duration	trial_type	response_time	stim_file	accuracy
60.518	1.0	go	0.0	Go_O	0.0
63.052	1.0	go	0.0	Go_X	0.0
65.585	1.0	go	0.465	Go_X	1.0
68.118	1.0	go	0.544	Go_O	1.0
70.651	1.0	go	0.417	Go_X	1.0
73.185	1.0	go	0.297	Go_O	1.0
75.718	0.25	stopsuccess	0.0	Go_O	1.0
78.251	1.0	go	0.377	Go_X	1.0
80.784	0.3	stopsuccess	0.0	Go_X	1.0
83.318	1.0	go	0.452	Go_O	1.0
85.851	1.0	go	0.585	Go_O	1.0
88.384	1.0	go	0.869	Go_X	1.0
90.918	0.35	stopfail	0.378	Go_O	0.0
93.451	1.0	go	0.581	Go_X	1.0
95.984	1.0	go	0.597	Go_O	1.0
98.517	0.3	stopfail	0.449	Go_X	0.0
101.051	0.25	stopsuccess	0.0	Go_O	1.0
103.584	1.0	go	0.452	Go_O	1.0
106.117	1.0	go	0.519	Go_X	1.0
108.651	0.3	stopsuccess	0.0	Go_X	1.0
111.2	1.0	go	0.397	Go_O	1.0
113.734	1.0	go	0.605	Go_X	1.0
116.267	0.35	stopsuccess	0.0	Go_O	1.0
118.8	1.0	go	0.683	Go_X	1.0
121.334	1.0	go	0.692	Go_O	1.0
123.883	0.4	stopsuccess	0.0	Go_X	1.0
126.417	1.0	go	0.915	Go_X	1.0
128.95	1.0	go	0.865	Go_O	1.0
131.483	0.45	stopsuccess	0.0	Go_O	1.0
134.017	1.0	go	0.765	Go_O	1.0
136.55	1.0	go	0.785	Go_X	1.0
139.083	1.0	go	0.719	Go_X	1.0
141.616	1.0	go	0.634	Go_O	1.0
144.15	1.0	go	0.363	Go_X	1.0
146.683	0.5	stopsuccess	0.0	Go_X	1.0
149.216	1.0	go	0.479	Go_O	1.0
151.75	1.0	go	0.953	Go_O	1.0
154.299	1.0	go	0.763	Go_X	1.0
156.833	1.0	go	0.828	Go_X	1.0
159.366	1.0	go	0.784	Go_O	1.0
161.899	0.55	stopsuccess	0.0	Go_O	1.0
164.433	1.0	go	0.424	Go_X	1.0
166.982	1.0	go	0.391	Go_O	1.0
169.516	1.0	go	0.768	Go_O	1.0
172.049	1.0	go	0.597	Go_X	1.0
174.582	1.0	go	0.586	Go_O	1.0
177.116	1.0	go	0.895	Go_X	1.0
179.649	0.6	stopfail	0.633	Go_X	0.0
182.182	1.0	go	0.44	Go_X	1.0
184.715	1.0	go	0.832	Go_O	1.0
187.249	0.55	stopsuccess	0.0	Go_O	1.0
189.782	1.0	go	0.646	Go_O	1.0
192.315	0.6	stopfail	0.728	Go_X	0.0
194.848	0.55	stopfail	0.695	Go_O	0.0
197.382	1.0	go	0.911	Go_X	1.0
199.915	1.0	go	0.618	Go_X	1.0
202.448	1.0	go	0.751	Go_O	1.0
204.982	1.0	go	0.871	Go_O	1.0
207.515	0.5	stopsuccess	0.0	Go_X	1.0
210.048	1.0	go	0.692	Go_X	1.0
212.581	0.55	stopsuccess	0.0	Go_O	1.0
215.115	1.0	go	0.741	Go_O	0.0
217.648	1.0	go	0.417	Go_X	1.0
220.181	1.0	go	0.853	Go_X	1.0
222.715	1.0	go	0.326	Go_O	1.0
225.264	1.0	go	0.432	Go_O	1.0
227.798	1.0	go	0.535	Go_X	1.0
230.331	1.0	go	0.463	Go_O	1.0
232.864	1.0	go	0.49	Go_X	1.0
235.398	1.0	go	0.596	Go_O	1.0
237.931	0.6	stopfail	0.504	Go_X	0.0
240.464	1.0	go	0.807	Go_X	1.0
242.997	1.0	go	0.925	Go_O	1.0
245.531	1.0	go	0.684	Go_X	1.0
248.064	0.55	stopfail	0.367	Go_O	0.0
250.597	1.0	go	0.301	Go_X	1.0
253.13	1.0	go	0.405	Go_O	1.0
255.664	1.0	go	0.481	Go_O	0.0
258.197	1.0	go	0.832	Go_X	1.0
260.73	1.0	go	0.0	Go_O	0.0
263.264	1.0	go	0.415	Go_X	1.0
265.797	0.5	stopfail	0.516	Go_X	0.0
268.33	1.0	go	0.539	Go_X	0.0
270.863	1.0	go	0.443	Go_O	1.0
273.397	0.45	stopfail	0.578	Go_O	0.0
275.93	1.0	go	0.443	Go_O	1.0
278.463	1.0	go	0.73	Go_X	1.0
280.996	0.4	stopsuccess	0.0	Go_X	1.0
283.53	1.0	go	0.612	Go_X	1.0
286.063	0.45	stopfail	0.444	Go_O	0.0
288.596	1.0	go	0.98	Go_O	1.0
291.13	1.0	go	0.573	Go_X	1.0
293.663	1.0	go	0.739	Go_O	1.0
296.196	1.0	go	0.557	Go_O	1.0
298.729	1.0	go	0.581	Go_X	1.0
301.263	0.4	stopfail	0.465	Go_X	0.0
303.796	0.35	stopsuccess	0.0	Go_O	1.0
306.329	1.0	go	0.644	Go_X	1.0
308.863	1.0	go	0.634	Go_O	1.0
311.412	0.4	stopsuccess	0.0	Go_X	1.0
313.946	1.0	go	0.623	Go_X	1.0
316.479	1.0	go	0.949	Go_O	1.0
319.012	1.0	go	0.538	Go_X	1.0
321.546	1.0	go	0.545	Go_O	1.0
324.079	1.0	go	0.688	Go_X	1.0
326.612	1.0	go	0.658	Go_O	1.0
329.145	0.45	stopfail	0.573	Go_O	0.0
331.679	1.0	go	0.752	Go_X	1.0
334.212	1.0	go	0.898	Go_O	1.0
336.745	1.0	go	0.735	Go_X	1.0
339.278	1.0	go	0.644	Go_O	1.0
341.812	1.0	go	0.687	Go_O	1.0
344.345	0.4	stopfail	0.353	Go_X	0.0
346.878	1.0	go	0.633	Go_X	1.0
349.412	1.0	go	0.674	Go_O	1.0
351.945	1.0	go	0.654	Go_X	1.0
354.478	1.0	go	0.668	Go_O	0.0
357.011	0.35	stopsuccess	0.0	Go_O	1.0
359.545	1.0	go	0.385	Go_X	1.0
362.078	1.0	go	0.524	Go_X	1.0
364.611	0.4	stopfail	0.424	Go_X	0.0
367.144	1.0	go	0.575	Go_O	1.0
369.678	0.35	stopsuccess	0.0	Go_O	1.0
372.211	1.0	go	0.652	Go_O	1.0
374.744	1.0	go	0.51	Go_X	1.0
377.278	1.0	go	0.523	Go_O	1.0
379.811	1.0	go	0.545	Go_X	1.0
382.344	1.0	go	0.751	Go_O	1.0
384.877	1.0	go	0.0	Go_X	0.0
387.411	1.0	go	0.475	Go_O	1.0
389.944	0.4	stopfail	0.548	Go_X	0.0
392.477	1.0	go	0.614	Go_X	1.0
395.011	1.0	go	0.807	Go_O	1.0
397.56	1.0	go	0.674	Go_X	1.0
400.094	0.35	stopsuccess	0.0	Go_O	1.0
402.627	1.0	go	0.486	Go_O	1.0
405.16	1.0	go	0.54	Go_X	1.0
407.694	1.0	go	0.603	Go_X	1.0
410.243	1.0	go	0.65	Go_O	1.0
412.777	0.4	stopfail	0.425	Go_X	0.0
415.31	1.0	go	0.297	Go_X	0.0
417.843	1.0	go	0.451	Go_O	1.0
420.377	0.35	stopfail	0.451	Go_O	0.0
422.91	1.0	go	0.407	Go_X	1.0
425.443	1.0	go	0.864	Go_O	1.0
427.976	0.3	stopsuccess	0.0	Go_X	1.0
430.51	1.0	go	0.579	Go_O	1.0
433.043	1.0	go	0.661	Go_X	1.0
435.576	0.35	stopsuccess	0.0	Go_O	1.0
438.109	1.0	go	0.592	Go_X	1.0
440.643	1.0	go	0.627	Go_O	1.0
443.176	1.0	go	0.674	Go_X	1.0
445.709	1.0	go	0.784	Go_O	0.0
448.243	1.0	go	0.447	Go_X	1.0
450.776	1.0	go	0.365	Go_O	1.0
453.309	0.4	stopfail	0.504	Go_X	0.0
455.842	1.0	go	0.641	Go_X	1.0
458.376	0.35	stopsuccess	0.0	Go_O	1.0
460.909	1.0	go	0.488	Go_O	1.0
463.442	1.0	go	0.0	Go_O	0.0
465.976	1.0	go	0.354	Go_X	1.0
468.525	1.0	go	0.486	Go_X	1.0
471.059	1.0	go	0.503	Go_O	1.0
473.592	0.4	stopsuccess	0.0	Go_X	1.0
476.125	1.0	go	0.499	Go_O	1.0
478.659	1.0	go	0.638	Go_X	1.0
481.192	1.0	go	0.0	Go_X	0.0
483.725	0.45	stopsuccess	0.0	Go_O	1.0
486.258	0.5	stopfail	0.648	Go_X	0.0
488.792	0.45	stopfail	0.721	Go_O	0.0
491.325	1.0	go	0.719	Go_O	1.0
493.858	0.4	stopsuccess	0.0	Go_X	1.0
496.391	1.0	go	0.733	Go_X	0.0
498.925	1.0	go	0.474	Go_O	1.0
501.458	1.0	go	0.378	Go_X	1.0
503.991	1.0	go	0.779	Go_O	1.0
506.525	1.0	go	0.548	Go_X	1.0
509.058	1.0	go	0.775	Go_O	1.0
511.591	1.0	go	0.0	Go_X	0.0
514.124	1.0	go	0.485	Go_O	1.0
516.658	0.45	stopfail	0.673	Go_O	0.0
519.191	1.0	go	0.437	Go_X	1.0
521.724	1.0	go	0.64	Go_O	1.0
524.257	0.4	stopfail	0.597	Go_X	0.0
526.791	1.0	go	0.845	Go_X	1.0
529.324	1.0	go	0.857	Go_O	1.0
531.857	1.0	go	0.7	Go_O	1.0
534.391	1.0	go	0.8	Go_X	1.0
536.924	1.0	go	0.512	Go_X	1.0
539.457	0.35	stopsuccess	0.0	Go_O	1.0
541.99	1.0	go	0.0	Go_O	0.0
544.524	1.0	go	0.0	Go_X	0.0
547.057	1.0	go	0.522	Go_O	1.0
549.59	0.4	stopfail	0.304	Go_X	0.0
552.124	1.0	go	0.364	Go_O	1.0
554.673	0.35	stopfail	0.462	Go_O	0.0
557.207	1.0	go	0.321	Go_X	1.0
559.74	1.0	go	0.337	Go_O	1.0
562.273	1.0	go	0.551	Go_X	1.0
564.807	1.0	go	0.653	Go_O	1.0
567.34	1.0	go	0.566	Go_X	1.0
569.873	1.0	go	0.667	Go_X	1.0
572.406	1.0	go	0.449	Go_O	1.0
574.94	0.3	stopsuccess	0.0	Go_X	1.0
577.473	1.0	go	0.664	Go_O	0.0
580.006	1.0	go	0.808	Go_X	0.0
582.539	1.0	go	0.669	Go_X	1.0
585.073	1.0	go	0.332	Go_O	1.0
587.606	0.35	stopfail	0.349	Go_O	0.0
590.139	1.0	go	0.505	Go_X	1.0
592.673	0.3	stopfail	0.595	Go_X	0.0
595.206	1.0	go	0.546	Go_O	1.0
597.739	1.0	go	0.533	Go_X	1.0
600.272	0.25	stopfail	0.352	Go_O	0.0
602.806	1.0	go	0.507	Go_O	1.0
605.339	1.0	go	0.355	Go_O	0.0
607.872	1.0	go	0.508	Go_X	1.0
610.405	1.0	go	0.499	Go_X	1.0
612.939	1.0	go	0.605	Go_O	1.0
615.472	1.0	go	0.403	Go_O	1.0
618.005	1.0	go	0.546	Go_X	1.0
620.539	1.0	go	0.566	Go_X	1.0
623.072	1.0	go	0.605	Go_O	1.0
625.605	1.0	go	0.483	Go_O	1.0
628.138	0.2	stopsuccess	0.0	Go_X	1.0
630.672	1.0	go	0.506	Go_X	0.0
633.205	1.0	go	0.45	Go_X	1.0
635.738	0.25	stopsuccess	0.0	Go_O	1.0
638.272	1.0	go	0.707	Go_O	1.0
640.821	0.3	stopfail	0.583	Go_X	0.0
643.355	1.0	go	0.396	Go_O	1.0
645.888	1.0	go	0.0	Go_X	0.0
648.421	0.25	stopfail	0.425	Go_O	0.0
650.955	1.0	go	0.447	Go_O	1.0
653.488	0.2	stopfail	0.455	Go_X	0.0
656.021	1.0	go	0.716	Go_X	1.0
658.554	1.0	go	0.545	Go_X	1.0
661.088	1.0	go	0.659	Go_O	1.0
663.621	0.15	stopsuccess	0.0	Go_O	1.0
666.154	1.0	go	0.59	Go_O	1.0
668.687	1.0	go	0.582	Go_X	1.0
671.221	1.0	go	0.491	Go_O	1.0
673.754	1.0	go	0.621	Go_X	1.0
676.287	0.2	stopsuccess	0.0	Go_X	1.0
678.821	1.0	go	0.694	Go_O	1.0
681.354	1.0	go	0.407	Go_X	1.0
683.887	0.25	stopsuccess	0.0	Go_O	1.0
686.42	1.0	go	0.696	Go_O	1.0
688.954	1.0	go	0.0	Go_X	0.0
691.487	1.0	go	0.588	Go_X	1.0
694.02	1.0	go	0.444	Go_O	1.0
696.553	0.3	stopfail	0.464	Go_X	0.0
699.087	1.0	go	0.503	Go_X	1.0
701.62	0.25	stopsuccess	0.0	Go_O	1.0
704.153	1.0	go	0.566	Go_O	1.0
706.687	1.0	go	0.628	Go_O	0.0
709.22	0.3	stopsuccess	0.0	Go_X	1.0
711.753	1.0	go	0.517	Go_X	1.0
714.286	1.0	go	0.629	Go_X	1.0
716.82	1.0	go	0.706	Go_O	1.0
719.353	1.0	go	0.483	Go_O	1.0
721.886	0.35	stopfail	0.388	Go_O	0.0
724.419	1.0	go	0.0	Go_X	0.0
726.953	0.3	stopfail	0.351	Go_X	0.0
729.486	1.0	go	0.553	Go_O	1.0
732.019	1.0	go	0.42	Go_X	1.0
734.553	1.0	go	0.509	Go_X	1.0
737.086	1.0	go	0.544	Go_O	1.0
739.619	1.0	go	0.551	Go_O	1.0
742.152	1.0	go	0.576	Go_X	1.0
744.686	0.25	stopfail	0.365	Go_O	0.0
747.219	1.0	go	0.591	Go_O	1.0
749.752	1.0	go	0.914	Go_X	1.0
752.286	0.2	stopsuccess	0.0	Go_X	1.0
754.835	1.0	go	0.546	Go_X	1.0
757.369	1.0	go	0.497	Go_O	1.0
759.902	0.25	stopsuccess	0.0	Go_O	1.0
762.435	1.0	go	0.459	Go_X	1.0
764.969	1.0	go	0.504	Go_O	1.0
767.502	1.0	go	0.661	Go_X	1.0
770.035	1.0	go	0.534	Go_O	1.0
772.568	0.3	stopfail	0.557	Go_X	0.0
775.102	1.0	go	0.897	Go_O	1.0
777.635	0.25	stopsuccess	0.0	Go_O	1.0
780.168	1.0	go	0.517	Go_X	1.0
782.701	1.0	go	0.57	Go_O	1.0
785.235	1.0	go	0.568	Go_X	1.0
787.768	1.0	go	0.0	Go_O	0.0
790.301	1.0	go	0.384	Go_X	1.0
792.835	0.3	stopsuccess	0.0	Go_X	1.0
795.368	1.0	go	0.51	Go_X	1.0
797.901	1.0	go	0.557	Go_O	1.0
800.434	0.35	stopsuccess	0.0	Go_O	1.0
802.968	0.4	stopfail	0.324	Go_X	0.0
805.501	1.0	go	0.661	Go_X	1.0
808.034	1.0	go	0.488	Go_O	1.0
810.567	1.0	go	0.607	Go_X	1.0
813.101	1.0	go	0.462	Go_O	1.0
815.634	0.35	stopfail	0.578	Go_O	0.0
818.167	1.0	go	0.631	Go_X	1.0
