onset	duration	trial_type	response_time	stim_file	accuracy
55.811	1.0	go	0.719	Go_O	1.0
58.344	1.0	go	0.451	Go_X	1.0
60.877	1.0	go	0.0	Go_O	0.0
63.411	1.0	go	0.657	Go_X	1.0
65.944	1.0	go	0.417	Go_O	1.0
68.477	1.0	go	0.529	Go_X	1.0
71.01	0.25	stop	0.0	Go_O	1.0
73.544	1.0	go	0.538	Go_O	1.0
76.077	0.3	stop	0.0	Go_X	1.0
78.61	1.0	go	0.438	Go_X	1.0
81.143	1.0	go	0.552	Go_X	1.0
83.677	1.0	go	0.635	Go_O	1.0
86.21	0.35	stop	0.486	Go_O	0.0
88.743	1.0	go	0.448	Go_X	1.0
91.276	1.0	go	0.618	Go_O	1.0
93.81	0.3	stop	0.0	Go_X	1.0
96.343	0.35	stop	0.0	Go_O	1.0
98.876	1.0	go	0.978	Go_O	1.0
101.409	1.0	go	0.361	Go_X	1.0
103.943	0.4	stop	0.352	Go_X	0.0
106.476	1.0	go	0.506	Go_O	1.0
109.009	1.0	go	0.539	Go_X	1.0
111.542	0.35	stop	0.0	Go_O	1.0
114.076	1.0	go	0.542	Go_X	1.0
116.609	1.0	go	0.513	Go_O	1.0
119.142	0.4	stop	0.523	Go_X	0.0
121.675	1.0	go	0.527	Go_O	1.0
124.209	1.0	go	0.492	Go_X	1.0
126.742	0.35	stop	0.0	Go_O	1.0
129.275	1.0	go	0.409	Go_O	1.0
131.808	1.0	go	0.565	Go_X	1.0
134.342	1.0	go	0.834	Go_O	1.0
136.875	1.0	go	0.53	Go_X	1.0
139.408	1.0	go	0.591	Go_O	1.0
141.942	0.4	stop	0.415	Go_X	0.0
144.491	1.0	go	0.578	Go_X	1.0
147.025	1.0	go	0.453	Go_X	1.0
149.558	1.0	go	0.561	Go_O	1.0
152.091	1.0	go	0.524	Go_X	1.0
154.624	1.0	go	0.525	Go_O	1.0
157.158	0.35	stop	0.0	Go_O	1.0
159.691	1.0	go	0.415	Go_O	1.0
162.224	1.0	go	0.679	Go_X	1.0
164.757	1.0	go	0.609	Go_O	0.0
167.291	1.0	go	0.485	Go_X	1.0
169.824	1.0	go	0.4	Go_O	1.0
172.357	1.0	go	0.698	Go_X	1.0
174.89	0.4	stop	0.452	Go_X	0.0
177.424	1.0	go	0.519	Go_O	1.0
179.957	1.0	go	0.547	Go_X	1.0
182.49	0.35	stop	0.462	Go_O	0.0
185.023	1.0	go	0.574	Go_O	1.0
187.557	0.3	stop	0.0	Go_X	1.0
190.09	0.35	stop	0.547	Go_O	0.0
192.623	1.0	go	0.568	Go_X	1.0
195.156	1.0	go	0.678	Go_O	1.0
197.69	1.0	go	0.418	Go_X	1.0
200.223	1.0	go	0.452	Go_O	1.0
202.756	0.3	stop	0.467	Go_X	0.0
205.289	1.0	go	0.572	Go_X	1.0
207.823	0.25	stop	0.0	Go_O	1.0
210.356	1.0	go	0.539	Go_X	1.0
212.889	1.0	go	0.449	Go_O	1.0
215.422	1.0	go	0.529	Go_O	0.0
217.956	1.0	go	0.419	Go_X	1.0
220.489	1.0	go	0.619	Go_X	1.0
223.022	1.0	go	0.473	Go_O	1.0
225.556	1.0	go	0.901	Go_X	1.0
228.105	1.0	go	0.523	Go_O	1.0
230.639	1.0	go	0.446	Go_X	1.0
233.172	0.3	stop	0.0	Go_X	1.0
235.705	1.0	go	0.432	Go_O	1.0
238.238	1.0	go	0.49	Go_X	1.0
240.772	1.0	go	0.494	Go_O	1.0
243.305	0.35	stop	0.0	Go_O	1.0
245.838	1.0	go	0.471	Go_X	1.0
248.371	1.0	go	0.566	Go_O	1.0
250.905	1.0	go	0.56	Go_X	1.0
253.438	1.0	go	0.0	Go_O	0.0
255.971	1.0	go	0.796	Go_X	1.0
258.504	1.0	go	0.404	Go_O	1.0
261.038	0.4	stop	0.361	Go_X	0.0
263.571	1.0	go	0.434	Go_O	1.0
266.104	1.0	go	0.591	Go_X	1.0
268.637	0.35	stop	0.477	Go_O	0.0
271.171	1.0	go	0.486	Go_X	1.0
273.704	1.0	go	0.451	Go_O	1.0
276.237	0.3	stop	0.0	Go_X	1.0
278.77	1.0	go	0.469	Go_O	1.0
281.304	0.35	stop	0.0	Go_O	1.0
283.837	1.0	go	0.462	Go_X	1.0
286.37	1.0	go	0.594	Go_X	1.0
288.903	1.0	go	0.558	Go_O	1.0
291.437	1.0	go	0.624	Go_O	1.0
293.97	1.0	go	0.693	Go_X	1.0
296.503	0.4	stop	0.428	Go_X	0.0
299.037	0.35	stop	0.52	Go_O	0.0
301.586	1.0	go	0.585	Go_O	1.0
304.12	1.0	go	0.506	Go_X	1.0
306.653	0.3	stop	0.0	Go_X	1.0
309.186	1.0	go	0.418	Go_O	1.0
311.719	1.0	go	0.0	Go_X	0.0
314.253	1.0	go	0.437	Go_X	1.0
316.786	1.0	go	0.443	Go_O	1.0
319.319	1.0	go	0.445	Go_O	1.0
321.852	1.0	go	0.481	Go_X	1.0
324.386	0.35	stop	0.574	Go_O	0.0
326.919	1.0	go	0.443	Go_X	1.0
329.452	1.0	go	0.479	Go_O	1.0
331.985	1.0	go	0.485	Go_O	1.0
334.519	1.0	go	0.362	Go_X	1.0
337.052	1.0	go	0.471	Go_O	1.0
339.585	0.3	stop	0.488	Go_X	0.0
342.118	1.0	go	0.435	Go_X	1.0
344.652	1.0	go	0.464	Go_X	1.0
347.185	1.0	go	0.58	Go_O	1.0
349.718	1.0	go	0.648	Go_O	1.0
352.251	0.25	stop	0.0	Go_O	1.0
354.785	1.0	go	0.467	Go_X	1.0
357.318	1.0	go	0.492	Go_X	1.0
359.851	0.3	stop	0.444	Go_X	0.0
362.384	1.0	go	0.5	Go_O	1.0
364.918	0.25	stop	0.0	Go_O	1.0
367.451	1.0	go	0.775	Go_X	1.0
369.984	1.0	go	0.497	Go_O	1.0
372.517	1.0	go	0.766	Go_X	1.0
375.051	1.0	go	0.425	Go_O	1.0
377.584	1.0	go	0.476	Go_O	1.0
380.117	1.0	go	0.424	Go_X	1.0
382.651	1.0	go	0.549	Go_X	1.0
385.2	0.3	stop	0.441	Go_X	0.0
387.734	1.0	go	0.444	Go_O	1.0
390.267	1.0	go	0.411	Go_X	0.0
392.8	1.0	go	0.589	Go_O	1.0
395.333	0.25	stop	0.422	Go_O	0.0
397.867	1.0	go	0.49	Go_X	1.0
400.4	1.0	go	0.505	Go_O	1.0
402.933	1.0	go	0.452	Go_O	1.0
405.466	1.0	go	0.461	Go_X	1.0
408.0	0.2	stop	0.0	Go_X	1.0
410.533	1.0	go	0.407	Go_O	1.0
413.066	1.0	go	0.442	Go_X	1.0
415.599	0.25	stop	0.0	Go_O	1.0
418.133	1.0	go	0.412	Go_X	1.0
420.666	1.0	go	0.442	Go_O	1.0
423.199	0.3	stop	0.521	Go_X	0.0
425.732	1.0	go	0.797	Go_O	1.0
428.266	1.0	go	0.444	Go_X	1.0
430.799	0.25	stop	0.0	Go_O	1.0
433.332	1.0	go	0.539	Go_O	1.0
435.865	1.0	go	0.543	Go_X	1.0
438.399	1.0	go	0.968	Go_X	1.0
440.932	1.0	go	0.449	Go_O	1.0
443.465	1.0	go	0.6	Go_O	1.0
445.999	1.0	go	0.438	Go_X	1.0
448.548	0.3	stop	0.338	Go_X	0.0
451.082	1.0	go	0.384	Go_X	1.0
453.615	0.25	stop	0.0	Go_O	1.0
456.148	1.0	go	0.571	Go_O	1.0
458.681	1.0	go	0.788	Go_O	1.0
461.215	1.0	go	0.561	Go_X	1.0
463.748	1.0	go	0.376	Go_X	1.0
466.281	1.0	go	0.452	Go_O	1.0
468.814	0.3	stop	0.394	Go_X	0.0
471.348	1.0	go	0.736	Go_X	1.0
473.881	1.0	go	0.462	Go_O	1.0
476.414	1.0	go	0.579	Go_X	1.0
478.947	0.25	stop	0.306	Go_O	0.0
481.481	0.2	stop	0.329	Go_X	0.0
484.014	0.15	stop	0.0	Go_O	1.0
486.547	1.0	go	0.745	Go_O	1.0
489.08	0.2	stop	0.472	Go_X	0.0
491.614	1.0	go	0.39	Go_X	1.0
494.147	1.0	go	0.435	Go_O	1.0
496.68	1.0	go	0.436	Go_O	1.0
499.213	1.0	go	0.473	Go_X	1.0
501.747	1.0	go	0.547	Go_O	1.0
504.28	1.0	go	0.525	Go_X	1.0
506.813	1.0	go	0.387	Go_X	1.0
509.346	1.0	go	0.621	Go_O	1.0
511.88	0.15	stop	0.0	Go_O	1.0
514.413	1.0	go	0.462	Go_O	0.0
516.946	1.0	go	0.452	Go_X	1.0
519.479	0.2	stop	0.0	Go_X	1.0
522.013	1.0	go	0.483	Go_O	1.0
524.546	1.0	go	0.707	Go_X	1.0
527.079	1.0	go	0.542	Go_X	1.0
529.613	1.0	go	0.404	Go_O	1.0
532.162	1.0	go	0.446	Go_X	1.0
534.696	0.25	stop	0.0	Go_O	1.0
537.229	1.0	go	0.483	Go_O	1.0
539.762	1.0	go	0.543	Go_O	1.0
542.295	1.0	go	0.496	Go_X	1.0
544.829	0.3	stop	0.51	Go_X	0.0
547.362	1.0	go	0.438	Go_O	1.0
549.895	0.25	stop	0.0	Go_O	1.0
552.428	1.0	go	0.465	Go_X	1.0
554.962	1.0	go	0.405	Go_X	1.0
557.495	1.0	go	0.53	Go_O	1.0
560.028	1.0	go	0.514	Go_O	1.0
562.561	1.0	go	0.585	Go_X	1.0
565.095	1.0	go	0.72	Go_X	1.0
567.628	1.0	go	0.385	Go_O	1.0
570.161	0.3	stop	0.0	Go_X	1.0
572.694	1.0	go	0.463	Go_O	1.0
575.228	1.0	go	0.596	Go_X	1.0
577.761	1.0	go	0.558	Go_O	1.0
580.294	1.0	go	0.39	Go_X	1.0
582.827	0.35	stop	0.356	Go_O	0.0
585.361	1.0	go	0.456	Go_O	1.0
587.894	0.3	stop	0.388	Go_X	0.0
590.427	1.0	go	0.479	Go_X	1.0
592.96	1.0	go	0.46	Go_X	1.0
595.494	0.25	stop	0.0	Go_O	1.0
598.027	1.0	go	0.373	Go_O	1.0
600.56	1.0	go	0.561	Go_O	1.0
603.093	1.0	go	0.75	Go_X	1.0
605.627	1.0	go	0.754	Go_O	1.0
608.16	1.0	go	0.354	Go_X	1.0
610.693	1.0	go	0.477	Go_X	1.0
613.226	1.0	go	0.601	Go_O	1.0
615.76	1.0	go	0.449	Go_X	1.0
618.293	1.0	go	0.59	Go_O	1.0
620.826	1.0	go	0.454	Go_X	1.0
623.36	0.3	stop	0.472	Go_X	0.0
625.909	1.0	go	0.492	Go_O	1.0
628.443	1.0	go	0.479	Go_X	1.0
630.976	0.25	stop	0.0	Go_O	1.0
633.509	1.0	go	0.492	Go_O	1.0
636.042	0.3	stop	0.323	Go_X	0.0
638.576	1.0	go	0.469	Go_O	1.0
641.109	1.0	go	0.854	Go_X	0.0
643.642	0.25	stop	0.0	Go_O	1.0
646.175	1.0	go	0.458	Go_O	1.0
648.709	0.3	stop	0.364	Go_X	0.0
651.242	1.0	go	0.401	Go_X	1.0
653.775	1.0	go	0.464	Go_O	1.0
656.308	1.0	go	0.677	Go_X	1.0
658.842	0.25	stop	0.502	Go_O	0.0
661.375	1.0	go	0.505	Go_O	1.0
663.908	1.0	go	0.496	Go_X	1.0
666.441	1.0	go	0.36	Go_X	1.0
668.975	1.0	go	0.576	Go_O	1.0
671.508	0.2	stop	0.549	Go_X	0.0
674.041	1.0	go	0.634	Go_X	1.0
676.574	1.0	go	0.558	Go_O	1.0
679.108	0.15	stop	0.0	Go_O	1.0
681.641	1.0	go	0.46	Go_O	1.0
684.174	1.0	go	0.383	Go_X	1.0
686.707	1.0	go	0.764	Go_X	1.0
689.241	1.0	go	0.418	Go_O	1.0
691.774	0.2	stop	0.305	Go_X	0.0
694.307	1.0	go	0.275	Go_O	1.0
696.841	0.15	stop	0.0	Go_O	1.0
699.374	1.0	go	0.487	Go_X	1.0
701.907	1.0	go	0.434	Go_O	1.0
704.44	0.2	stop	0.0	Go_X	1.0
706.974	1.0	go	0.536	Go_X	1.0
709.523	1.0	go	0.515	Go_O	1.0
712.057	1.0	go	0.628	Go_X	1.0
714.59	1.0	go	0.437	Go_O	1.0
717.123	0.25	stop	0.0	Go_O	1.0
719.656	1.0	go	0.437	Go_X	1.0
722.19	0.3	stop	0.363	Go_X	0.0
724.723	1.0	go	0.417	Go_O	1.0
727.256	1.0	go	0.55	Go_X	1.0
729.789	1.0	go	0.454	Go_O	1.0
732.323	1.0	go	0.387	Go_X	1.0
734.856	1.0	go	0.382	Go_X	1.0
737.389	1.0	go	0.67	Go_O	1.0
739.922	0.25	stop	0.0	Go_O	1.0
742.456	1.0	go	0.494	Go_O	1.0
744.989	1.0	go	0.561	Go_X	1.0
747.522	0.3	stop	0.0	Go_X	1.0
750.055	1.0	go	0.651	Go_O	1.0
752.589	1.0	go	0.49	Go_X	1.0
755.122	0.35	stop	0.453	Go_O	0.0
757.655	1.0	go	0.476	Go_X	1.0
760.188	1.0	go	0.443	Go_O	1.0
762.722	1.0	go	0.406	Go_X	1.0
765.255	1.0	go	0.353	Go_O	1.0
767.788	0.3	stop	0.0	Go_X	1.0
770.322	1.0	go	0.398	Go_X	1.0
772.871	0.35	stop	0.0	Go_O	1.0
775.405	1.0	go	0.351	Go_O	1.0
777.938	1.0	go	0.484	Go_O	0.0
780.471	1.0	go	0.503	Go_X	1.0
783.004	1.0	go	0.696	Go_X	0.0
785.538	1.0	go	0.843	Go_O	1.0
788.071	0.4	stop	0.275	Go_X	0.0
790.604	1.0	go	0.456	Go_X	1.0
793.137	1.0	go	0.461	Go_O	1.0
795.671	0.35	stop	0.475	Go_O	0.0
798.204	0.3	stop	0.0	Go_X	1.0
800.737	1.0	go	0.386	Go_X	1.0
803.27	1.0	go	0.406	Go_O	1.0
805.804	1.0	go	0.579	Go_O	1.0
808.337	1.0	go	0.321	Go_X	1.0
810.87	0.35	stop	0.479	Go_O	0.0
813.403	1.0	go	0.491	Go_O	1.0
