onset	duration	trial_type	response_time	stim_file	accuracy
126.462	1.0	go	0.695	Go_X	1.0
128.986	1.0	go	0.542	Go_O	1.0
131.51	1.0	go	0.493	Go_O	1.0
134.035	1.0	go	0.72	Go_X	1.0
136.559	1.0	go	0.611	Go_O	1.0
139.083	1.0	go	0.634	Go_X	1.0
141.607	0.25	stop	0.0	Go_O	1.0
144.131	1.0	go	0.402	Go_O	1.0
146.656	0.3	stop	0.0	Go_X	1.0
149.18	1.0	go	0.371	Go_X	1.0
151.704	1.0	go	0.497	Go_O	1.0
154.228	1.0	go	0.504	Go_X	1.0
156.753	0.35	stop	0.0	Go_O	1.0
159.277	1.0	go	0.414	Go_X	1.0
161.801	1.0	go	0.502	Go_O	1.0
164.325	0.4	stop	0.0	Go_X	1.0
166.849	0.45	stop	0.464	Go_O	0.0
169.374	1.0	go	0.546	Go_X	1.0
171.898	1.0	go	0.514	Go_O	1.0
174.422	0.4	stop	0.45	Go_X	0.0
176.946	1.0	go	0.475	Go_O	1.0
179.47	1.0	go	0.708	Go_X	1.0
181.995	0.35	stop	0.0	Go_O	1.0
184.519	1.0	go	0.555	Go_X	1.0
187.043	1.0	go	0.56	Go_O	1.0
189.567	0.4	stop	0.0	Go_X	1.0
192.092	1.0	go	0.494	Go_O	1.0
194.616	1.0	go	0.752	Go_X	1.0
197.14	0.45	stop	0.604	Go_O	0.0
199.664	1.0	go	0.488	Go_X	1.0
202.188	1.0	go	0.579	Go_O	1.0
204.713	1.0	go	0.62	Go_O	1.0
207.237	1.0	go	0.592	Go_X	1.0
209.761	1.0	go	0.532	Go_O	1.0
212.285	0.4	stop	0.541	Go_X	0.0
214.809	1.0	go	0.646	Go_X	1.0
217.334	1.0	go	0.552	Go_O	1.0
219.858	1.0	go	0.585	Go_X	1.0
222.382	1.0	go	0.719	Go_O	1.0
224.906	1.0	go	0.682	Go_X	1.0
227.431	0.35	stop	0.0	Go_O	1.0
229.955	1.0	go	0.448	Go_X	1.0
232.479	1.0	go	0.694	Go_O	1.0
235.003	1.0	go	0.57	Go_X	1.0
237.527	1.0	go	0.636	Go_O	1.0
240.052	1.0	go	0.564	Go_X	1.0
242.576	1.0	go	0.753	Go_O	1.0
245.1	0.4	stop	0.0	Go_X	1.0
247.624	1.0	go	0.62	Go_X	1.0
250.148	1.0	go	0.547	Go_O	1.0
252.673	0.45	stop	0.0	Go_O	1.0
255.197	1.0	go	0.599	Go_O	1.0
257.721	0.5	stop	0.613	Go_X	0.0
260.245	0.45	stop	0.0	Go_O	1.0
262.77	1.0	go	0.651	Go_X	1.0
265.294	1.0	go	0.674	Go_X	1.0
267.818	1.0	go	0.835	Go_O	1.0
270.342	1.0	go	0.664	Go_X	1.0
272.866	0.5	stop	0.0	Go_X	1.0
275.391	1.0	go	0.583	Go_O	1.0
277.915	0.55	stop	0.679	Go_O	0.0
280.439	1.0	go	0.677	Go_X	1.0
282.963	1.0	go	0.651	Go_O	1.0
285.487	1.0	go	0.704	Go_O	1.0
288.012	1.0	go	0.717	Go_X	1.0
290.536	1.0	go	0.702	Go_X	1.0
293.06	1.0	go	0.689	Go_O	1.0
295.584	1.0	go	0.668	Go_X	1.0
298.109	1.0	go	0.703	Go_O	1.0
300.633	1.0	go	0.783	Go_O	1.0
303.157	0.5	stop	0.0	Go_X	1.0
305.681	1.0	go	0.787	Go_X	1.0
308.205	1.0	go	0.589	Go_O	1.0
310.73	1.0	go	0.826	Go_X	1.0
313.254	0.55	stop	0.519	Go_O	0.0
315.778	1.0	go	0.656	Go_X	1.0
318.302	1.0	go	0.616	Go_O	1.0
320.826	1.0	go	0.844	Go_O	1.0
323.351	1.0	go	0.92	Go_X	1.0
325.875	1.0	go	0.534	Go_X	1.0
328.399	1.0	go	0.571	Go_O	1.0
330.923	0.5	stop	0.0	Go_X	1.0
333.448	1.0	go	0.438	Go_X	1.0
335.972	1.0	go	0.669	Go_O	1.0
338.496	0.55	stop	0.642	Go_O	0.0
341.02	1.0	go	0.528	Go_X	1.0
343.544	1.0	go	0.817	Go_O	1.0
346.069	0.5	stop	0.0	Go_X	1.0
348.593	1.0	go	0.587	Go_X	1.0
351.117	0.55	stop	0.605	Go_O	0.0
353.641	1.0	go	0.716	Go_O	1.0
356.165	1.0	go	0.636	Go_O	1.0
358.69	1.0	go	0.611	Go_X	1.0
361.214	1.0	go	0.612	Go_O	1.0
363.738	1.0	go	0.67	Go_X	1.0
366.262	0.5	stop	0.0	Go_X	1.0
368.787	0.55	stop	0.578	Go_O	0.0
371.311	1.0	go	0.663	Go_X	1.0
373.835	1.0	go	0.749	Go_O	1.0
376.359	0.5	stop	0.0	Go_X	1.0
378.883	1.0	go	0.504	Go_X	1.0
381.408	1.0	go	0.697	Go_O	1.0
383.932	1.0	go	0.823	Go_O	1.0
386.456	1.0	go	0.795	Go_X	1.0
388.98	1.0	go	0.742	Go_O	1.0
391.504	1.0	go	0.59	Go_X	1.0
394.029	0.55	stop	0.0	Go_O	1.0
396.57	1.0	go	0.671	Go_O	1.0
399.094	1.0	go	0.723	Go_X	1.0
401.618	1.0	go	0.894	Go_X	1.0
404.142	1.0	go	0.886	Go_O	1.0
406.666	1.0	go	0.707	Go_O	1.0
409.191	0.6	stop	0.69	Go_X	0.0
411.715	1.0	go	0.51	Go_X	1.0
414.239	1.0	go	0.554	Go_O	1.0
416.763	1.0	go	0.664	Go_X	1.0
419.288	1.0	go	0.0	Go_O	0.0
421.812	0.55	stop	0.439	Go_O	0.0
424.336	1.0	go	0.558	Go_X	1.0
426.86	1.0	go	0.641	Go_O	1.0
429.384	0.5	stop	0.571	Go_X	0.0
431.909	1.0	go	0.56	Go_X	1.0
434.433	0.45	stop	0.521	Go_O	0.0
436.957	1.0	go	0.604	Go_X	1.0
439.481	1.0	go	0.721	Go_O	1.0
442.005	1.0	go	0.749	Go_O	1.0
444.53	1.0	go	0.762	Go_X	1.0
447.054	1.0	go	0.831	Go_X	1.0
449.578	1.0	go	0.607	Go_O	1.0
452.102	1.0	go	0.811	Go_X	1.0
454.627	0.4	stop	0.0	Go_X	1.0
457.151	1.0	go	0.477	Go_O	1.0
459.675	1.0	go	0.509	Go_O	1.0
462.199	1.0	go	0.687	Go_X	1.0
464.723	0.45	stop	0.592	Go_O	0.0
467.248	1.0	go	0.601	Go_O	1.0
469.772	1.0	go	0.752	Go_X	1.0
472.296	1.0	go	0.902	Go_O	1.0
474.82	1.0	go	0.0	Go_X	0.0
477.344	0.4	stop	0.0	Go_X	1.0
479.869	1.0	go	0.496	Go_O	1.0
482.393	1.0	go	0.914	Go_X	1.0
484.917	0.45	stop	0.0	Go_O	1.0
487.441	1.0	go	0.574	Go_X	1.0
489.965	1.0	go	0.546	Go_O	1.0
492.49	0.5	stop	0.601	Go_X	0.0
495.014	1.0	go	0.628	Go_O	1.0
497.538	1.0	go	0.794	Go_X	1.0
500.062	0.45	stop	0.0	Go_O	1.0
502.587	1.0	go	0.549	Go_O	1.0
505.111	1.0	go	0.652	Go_X	1.0
507.635	1.0	go	0.82	Go_O	1.0
510.159	1.0	go	0.651	Go_X	1.0
512.683	1.0	go	0.687	Go_X	1.0
515.208	1.0	go	0.805	Go_O	1.0
517.732	0.5	stop	0.0	Go_X	1.0
520.256	1.0	go	0.601	Go_O	1.0
522.78	0.55	stop	0.691	Go_O	0.0
525.305	1.0	go	0.547	Go_X	1.0
527.829	1.0	go	0.628	Go_O	1.0
530.353	1.0	go	0.738	Go_X	1.0
532.877	1.0	go	0.986	Go_X	1.0
535.401	1.0	go	0.471	Go_O	1.0
537.926	0.5	stop	0.642	Go_X	0.0
540.45	1.0	go	0.564	Go_O	1.0
542.974	1.0	go	0.669	Go_X	1.0
545.498	1.0	go	0.547	Go_O	1.0
548.022	0.45	stop	0.0	Go_O	1.0
550.547	0.5	stop	0.457	Go_X	0.0
553.071	0.45	stop	0.595	Go_O	0.0
555.595	1.0	go	0.612	Go_X	1.0
558.119	0.4	stop	0.0	Go_X	1.0
560.643	1.0	go	0.63	Go_X	1.0
563.168	1.0	go	0.765	Go_O	1.0
565.692	1.0	go	0.772	Go_X	1.0
568.216	1.0	go	0.605	Go_O	1.0
570.74	1.0	go	0.618	Go_X	1.0
573.265	1.0	go	0.0	Go_O	0.0
575.789	1.0	go	0.709	Go_X	1.0
578.313	1.0	go	0.747	Go_O	1.0
580.837	0.45	stop	0.0	Go_O	1.0
583.361	1.0	go	0.709	Go_X	1.0
585.886	1.0	go	0.641	Go_O	1.0
588.41	0.5	stop	0.0	Go_X	1.0
590.934	1.0	go	0.496	Go_O	1.0
593.458	1.0	go	0.688	Go_X	1.0
595.982	1.0	go	0.962	Go_O	1.0
598.507	1.0	go	0.6	Go_X	1.0
601.031	1.0	go	0.701	Go_X	1.0
603.555	0.55	stop	0.635	Go_O	0.0
606.079	1.0	go	0.553	Go_O	1.0
608.604	1.0	go	0.591	Go_O	1.0
611.128	1.0	go	0.651	Go_X	1.0
613.652	0.5	stop	0.0	Go_X	1.0
616.176	1.0	go	0.512	Go_X	1.0
618.7	0.55	stop	0.808	Go_O	0.0
621.225	1.0	go	0.647	Go_O	1.0
623.749	1.0	go	0.731	Go_O	1.0
626.273	1.0	go	0.526	Go_X	1.0
628.797	1.0	go	0.475	Go_X	1.0
631.321	1.0	go	0.761	Go_O	0.0
633.846	1.0	go	0.527	Go_O	1.0
636.37	1.0	go	0.643	Go_X	1.0
638.894	0.5	stop	0.0	Go_X	1.0
641.418	1.0	go	0.448	Go_O	1.0
643.943	1.0	go	0.553	Go_X	1.0
646.467	1.0	go	0.46	Go_O	0.0
648.991	1.0	go	0.71	Go_X	1.0
651.515	0.55	stop	0.409	Go_O	0.0
654.039	1.0	go	0.738	Go_O	1.0
656.564	0.5	stop	0.655	Go_X	0.0
659.088	1.0	go	0.708	Go_X	1.0
661.612	1.0	go	0.705	Go_X	1.0
664.136	0.45	stop	0.0	Go_O	1.0
666.66	1.0	go	0.521	Go_O	1.0
669.185	1.0	go	0.846	Go_X	1.0
671.709	1.0	go	0.7	Go_O	1.0
674.233	1.0	go	0.664	Go_O	1.0
676.757	1.0	go	0.705	Go_X	1.0
679.282	1.0	go	0.904	Go_X	1.0
681.806	1.0	go	0.658	Go_O	1.0
684.33	1.0	go	0.608	Go_X	1.0
686.854	1.0	go	0.723	Go_O	1.0
689.378	1.0	go	0.718	Go_O	1.0
691.903	0.5	stop	0.0	Go_X	1.0
694.427	1.0	go	0.662	Go_X	1.0
696.951	1.0	go	0.641	Go_O	1.0
699.475	0.55	stop	0.0	Go_O	1.0
701.999	1.0	go	0.576	Go_X	1.0
704.524	0.6	stop	0.67	Go_X	0.0
707.048	1.0	go	0.715	Go_X	1.0
709.572	1.0	go	0.689	Go_O	1.0
712.096	0.55	stop	0.618	Go_O	0.0
714.621	1.0	go	0.69	Go_X	1.0
717.145	0.5	stop	0.714	Go_X	0.0
719.669	1.0	go	0.568	Go_O	1.0
722.193	1.0	go	0.995	Go_O	1.0
724.717	1.0	go	0.848	Go_X	1.0
727.242	0.45	stop	0.0	Go_O	1.0
729.766	1.0	go	0.486	Go_O	1.0
732.29	1.0	go	0.704	Go_X	1.0
734.814	1.0	go	0.703	Go_O	1.0
737.338	1.0	go	0.774	Go_X	1.0
739.863	0.5	stop	0.0	Go_X	1.0
742.387	1.0	go	0.687	Go_X	1.0
744.911	1.0	go	0.913	Go_O	1.0
747.435	0.55	stop	0.0	Go_O	1.0
749.96	1.0	go	0.516	Go_O	1.0
752.484	1.0	go	0.713	Go_X	1.0
755.008	1.0	go	0.801	Go_X	1.0
757.532	1.0	go	0.865	Go_O	1.0
760.056	0.6	stop	0.771	Go_X	0.0
762.581	1.0	go	0.547	Go_X	1.0
765.105	0.55	stop	0.591	Go_O	0.0
767.629	1.0	go	0.581	Go_O	1.0
770.153	1.0	go	0.655	Go_O	1.0
772.677	0.5	stop	0.0	Go_X	1.0
775.202	1.0	go	0.746	Go_X	1.0
777.726	1.0	go	0.747	Go_O	1.0
780.25	1.0	go	0.0	Go_X	0.0
782.774	1.0	go	0.46	Go_O	1.0
785.299	0.55	stop	0.53	Go_O	0.0
787.823	1.0	go	0.535	Go_X	1.0
790.347	0.5	stop	0.816	Go_X	0.0
792.871	1.0	go	0.816	Go_O	1.0
795.395	1.0	go	0.721	Go_X	1.0
797.92	1.0	go	0.87	Go_O	1.0
800.444	1.0	go	0.753	Go_X	1.0
802.968	1.0	go	0.789	Go_O	1.0
805.492	1.0	go	0.932	Go_X	1.0
808.016	0.45	stop	0.0	Go_O	1.0
810.541	1.0	go	0.701	Go_O	1.0
813.065	1.0	go	0.84	Go_X	1.0
815.589	0.5	stop	0.0	Go_X	1.0
818.113	1.0	go	0.75	Go_X	1.0
820.638	1.0	go	0.751	Go_O	1.0
823.162	0.55	stop	0.0	Go_O	1.0
825.686	1.0	go	0.725	Go_O	1.0
828.21	1.0	go	0.863	Go_X	1.0
830.734	1.0	go	0.775	Go_X	1.0
833.259	1.0	go	0.99	Go_O	1.0
835.783	0.6	stop	0.798	Go_X	0.0
838.307	1.0	go	0.635	Go_O	1.0
840.831	0.55	stop	0.0	Go_O	1.0
843.355	1.0	go	0.825	Go_X	1.0
845.88	1.0	go	0.929	Go_X	1.0
848.404	1.0	go	0.937	Go_O	1.0
850.928	1.0	go	0.921	Go_X	1.0
853.452	1.0	go	0.946	Go_O	1.0
855.977	0.6	stop	0.0	Go_X	1.0
858.501	1.0	go	0.792	Go_X	1.0
861.025	1.0	go	0.895	Go_O	1.0
863.549	0.65	stop	0.0	Go_O	1.0
866.073	0.7	stop	0.0	Go_X	1.0
868.598	1.0	go	0.0	Go_X	0.0
871.122	1.0	go	0.879	Go_O	1.0
873.646	1.0	go	0.618	Go_X	1.0
876.17	1.0	go	0.948	Go_O	1.0
878.694	0.75	stop	0.0	Go_O	1.0
881.219	1.0	go	0.762	Go_O	1.0
