onset	duration	trial_type	response_time	stim_file	accuracy
27.4	1.0	go	0.807	Go_O	1.0
29.924	1.0	go	0.391	Go_X	1.0
32.448	1.0	go	0.362	Go_X	1.0
34.972	1.0	go	0.253	Go_O	1.0
37.497	1.0	go	0.209	Go_X	1.0
40.021	1.0	go	0.295	Go_O	1.0
42.545	0.25	stopfail	0.356	Go_O	0.0
45.069	1.0	go	0.405	Go_O	1.0
47.593	0.2	stopfail	0.248	Go_X	0.0
50.118	1.0	go	0.385	Go_X	1.0
52.642	1.0	go	0.341	Go_O	1.0
55.166	1.0	go	0.395	Go_X	1.0
57.69	0.15	stopfail	0.278	Go_O	0.0
60.214	1.0	go	0.205	Go_X	1.0
62.739	1.0	go	0.496	Go_O	1.0
65.263	0.1	stopsuccess	0.0	Go_X	1.0
67.787	0.15	stopfail	0.265	Go_O	0.0
70.311	1.0	go	0.289	Go_O	1.0
72.836	1.0	go	0.202	Go_X	1.0
75.36	0.1	stopsuccess	0.0	Go_X	1.0
77.884	1.0	go	0.416	Go_O	1.0
80.408	1.0	go	0.298	Go_X	1.0
82.932	0.15	stopfail	0.25	Go_O	0.0
85.457	1.0	go	0.304	Go_X	1.0
87.981	1.0	go	0.253	Go_O	1.0
90.505	0.1	stopsuccess	0.0	Go_X	1.0
93.029	1.0	go	0.403	Go_O	1.0
95.553	1.0	go	0.331	Go_X	1.0
98.078	0.15	stopfail	0.25	Go_O	0.0
100.602	1.0	go	0.309	Go_X	1.0
103.126	1.0	go	0.23	Go_O	1.0
105.65	1.0	go	0.375	Go_O	1.0
108.175	1.0	go	0.267	Go_X	1.0
110.699	1.0	go	0.404	Go_X	1.0
113.223	0.1	stopsuccess	0.0	Go_X	1.0
115.747	1.0	go	0.276	Go_O	0.0
118.271	1.0	go	0.304	Go_X	1.0
120.796	1.0	go	0.244	Go_O	1.0
123.32	1.0	go	0.28	Go_O	0.0
125.844	1.0	go	0.288	Go_X	1.0
128.368	0.15	stopfail	0.226	Go_O	0.0
130.892	1.0	go	0.315	Go_O	1.0
133.417	1.0	go	0.281	Go_X	1.0
135.941	1.0	go	0.266	Go_O	1.0
138.465	1.0	go	0.31	Go_X	1.0
140.989	1.0	go	0.311	Go_O	1.0
143.514	1.0	go	0.327	Go_X	1.0
146.038	0.1	stopsuccess	0.0	Go_X	1.0
148.562	1.0	go	0.224	Go_O	1.0
151.086	1.0	go	0.269	Go_X	1.0
153.61	0.15	stopfail	0.259	Go_O	0.0
156.135	1.0	go	0.301	Go_X	1.0
158.659	0.1	stopsuccess	0.0	Go_X	1.0
161.183	0.15	stopfail	0.269	Go_O	0.0
163.707	1.0	go	0.348	Go_O	1.0
166.231	1.0	go	0.317	Go_O	1.0
168.756	1.0	go	0.375	Go_X	1.0
171.28	1.0	go	0.3	Go_O	1.0
173.804	0.1	stopsuccess	0.0	Go_X	1.0
176.328	1.0	go	0.376	Go_X	1.0
178.853	0.15	stopfail	0.259	Go_O	0.0
181.377	1.0	go	0.31	Go_O	1.0
183.901	1.0	go	0.349	Go_X	1.0
186.425	1.0	go	0.39	Go_X	1.0
188.949	1.0	go	0.225	Go_O	1.0
191.474	1.0	go	0.357	Go_O	1.0
193.998	1.0	go	0.224	Go_X	1.0
196.522	1.0	go	0.38	Go_X	1.0
199.046	1.0	go	0.26	Go_O	1.0
201.57	1.0	go	0.347	Go_O	1.0
204.095	0.1	stopsuccess	0.0	Go_X	1.0
206.619	1.0	go	0.443	Go_X	1.0
209.143	1.0	go	0.426	Go_X	1.0
211.667	1.0	go	0.339	Go_O	1.0
214.192	0.15	stopsuccess	0.0	Go_O	1.0
216.716	1.0	go	0.326	Go_O	1.0
219.24	1.0	go	0.28	Go_X	1.0
221.764	1.0	go	0.279	Go_O	1.0
224.288	1.0	go	0.277	Go_X	1.0
226.813	1.0	go	0.433	Go_X	1.0
229.337	1.0	go	0.326	Go_O	1.0
231.861	0.2	stopfail	0.246	Go_X	0.0
234.385	1.0	go	0.324	Go_X	1.0
236.909	1.0	go	0.549	Go_O	1.0
239.434	0.15	stopsuccess	0.0	Go_O	1.0
241.958	1.0	go	0.305	Go_X	1.0
244.482	1.0	go	0.368	Go_O	1.0
247.006	0.2	stopfail	0.367	Go_X	0.0
249.531	1.0	go	0.303	Go_O	1.0
252.055	0.15	stopsuccess	0.0	Go_O	1.0
254.579	1.0	go	0.386	Go_X	1.0
257.103	1.0	go	0.467	Go_O	1.0
259.627	1.0	go	0.31	Go_X	1.0
262.152	1.0	go	0.261	Go_O	1.0
264.676	1.0	go	0.34	Go_X	1.0
267.2	0.2	stopsuccess	0.0	Go_X	1.0
269.724	0.25	stopsuccess	0.0	Go_O	1.0
272.248	1.0	go	0.336	Go_O	1.0
274.773	1.0	go	0.459	Go_X	1.0
277.297	0.3	stopsuccess	0.0	Go_X	1.0
279.821	1.0	go	0.275	Go_X	1.0
282.345	1.0	go	0.313	Go_O	1.0
284.87	1.0	go	0.416	Go_X	1.0
287.394	1.0	go	0.368	Go_O	1.0
289.918	1.0	go	0.435	Go_X	1.0
292.442	1.0	go	0.552	Go_O	1.0
294.966	0.35	stopfail	0.361	Go_O	0.0
297.491	1.0	go	0.323	Go_O	1.0
300.015	1.0	go	0.293	Go_X	1.0
302.539	1.0	go	0.396	Go_O	1.0
305.063	1.0	go	0.361	Go_X	1.0
307.587	1.0	go	0.278	Go_X	1.0
310.112	0.3	stopfail	0.334	Go_X	0.0
312.636	1.0	go	0.315	Go_O	1.0
315.16	1.0	go	0.322	Go_X	1.0
317.684	1.0	go	0.362	Go_O	1.0
320.209	1.0	go	0.368	Go_X	0.0
322.733	0.25	stopfail	0.431	Go_O	0.0
325.257	1.0	go	0.394	Go_O	1.0
327.781	1.0	go	0.267	Go_O	1.0
330.305	0.2	stopsuccess	0.0	Go_X	1.0
332.83	1.0	go	0.334	Go_X	1.0
335.354	0.25	stopsuccess	0.0	Go_O	1.0
337.878	1.0	go	0.505	Go_X	1.0
340.402	1.0	go	0.317	Go_O	1.0
342.926	1.0	go	0.0	Go_O	0.0
345.451	1.0	go	0.241	Go_X	1.0
347.975	1.0	go	0.346	Go_X	1.0
350.499	1.0	go	0.206	Go_O	1.0
353.023	1.0	go	0.209	Go_X	1.0
355.547	0.3	stopfail	0.38	Go_X	0.0
358.072	1.0	go	0.444	Go_O	1.0
360.596	1.0	go	0.341	Go_X	1.0
363.12	1.0	go	0.294	Go_O	1.0
365.644	0.25	stopsuccess	0.0	Go_O	1.0
368.169	1.0	go	0.3	Go_X	1.0
370.693	1.0	go	0.294	Go_O	1.0
373.217	1.0	go	0.44	Go_O	1.0
375.741	1.0	go	0.338	Go_X	1.0
378.265	0.3	stopfail	0.407	Go_X	0.0
380.79	1.0	go	0.294	Go_O	1.0
383.314	1.0	go	0.347	Go_X	1.0
385.838	0.25	stopfail	0.377	Go_O	0.0
388.362	1.0	go	0.437	Go_O	1.0
390.886	1.0	go	0.291	Go_X	1.0
393.411	0.2	stopfail	0.413	Go_X	0.0
395.935	1.0	go	0.374	Go_X	1.0
398.459	1.0	go	0.356	Go_O	1.0
400.983	0.15	stopfail	0.254	Go_O	0.0
403.508	1.0	go	0.253	Go_X	1.0
406.032	1.0	go	0.395	Go_O	1.0
408.556	1.0	go	0.349	Go_O	1.0
411.08	1.0	go	0.344	Go_X	1.0
413.604	1.0	go	0.386	Go_X	1.0
416.129	1.0	go	0.267	Go_O	1.0
418.653	0.1	stopsuccess	0.0	Go_X	1.0
421.177	1.0	go	0.369	Go_X	1.0
423.701	0.15	stopsuccess	0.0	Go_O	1.0
426.225	1.0	go	0.307	Go_O	1.0
428.75	1.0	go	0.347	Go_X	1.0
431.274	1.0	go	0.318	Go_O	1.0
433.798	1.0	go	0.361	Go_X	1.0
436.322	1.0	go	0.242	Go_O	1.0
438.847	0.2	stopsuccess	0.0	Go_X	1.0
441.371	1.0	go	0.283	Go_O	1.0
443.895	1.0	go	0.301	Go_X	1.0
446.419	1.0	go	0.584	Go_O	1.0
448.943	0.25	stopfail	0.455	Go_O	0.0
451.484	0.2	stopsuccess	0.0	Go_X	1.0
454.009	0.25	stopfail	0.303	Go_O	0.0
456.533	1.0	go	0.352	Go_X	1.0
459.057	0.2	stopsuccess	0.0	Go_X	1.0
461.581	1.0	go	0.36	Go_O	1.0
464.105	1.0	go	0.407	Go_X	1.0
466.63	1.0	go	0.481	Go_O	1.0
469.154	1.0	go	0.323	Go_X	1.0
471.678	1.0	go	0.428	Go_X	1.0
474.202	1.0	go	0.292	Go_O	1.0
476.726	1.0	go	0.292	Go_O	1.0
479.251	1.0	go	0.295	Go_X	1.0
481.775	0.25	stopsuccess	0.0	Go_O	1.0
484.299	1.0	go	0.461	Go_X	1.0
486.823	1.0	go	0.525	Go_O	1.0
489.348	0.3	stopsuccess	0.0	Go_X	1.0
491.872	1.0	go	0.801	Go_O	0.0
494.396	1.0	go	0.297	Go_X	1.0
496.92	1.0	go	0.454	Go_O	1.0
499.444	1.0	go	0.329	Go_X	1.0
501.969	1.0	go	0.294	Go_X	1.0
504.493	0.35	stopfail	0.541	Go_O	0.0
507.017	1.0	go	0.355	Go_O	1.0
509.541	1.0	go	0.389	Go_O	1.0
512.065	1.0	go	0.389	Go_X	1.0
514.59	0.3	stopfail	0.426	Go_X	0.0
517.114	1.0	go	0.645	Go_X	1.0
519.638	0.25	stopfail	0.253	Go_O	0.0
522.162	1.0	go	0.542	Go_O	1.0
524.687	1.0	go	0.442	Go_O	1.0
527.211	1.0	go	0.312	Go_X	1.0
529.735	1.0	go	0.385	Go_X	1.0
532.259	1.0	go	0.406	Go_O	1.0
534.783	1.0	go	0.395	Go_X	1.0
537.308	1.0	go	0.271	Go_O	1.0
539.832	0.2	stopfail	0.269	Go_X	0.0
542.356	1.0	go	0.293	Go_X	1.0
544.88	1.0	go	0.371	Go_O	1.0
547.404	1.0	go	0.381	Go_X	1.0
549.929	1.0	go	0.329	Go_O	1.0
552.453	0.15	stopsuccess	0.0	Go_O	1.0
554.977	1.0	go	0.372	Go_O	1.0
557.501	0.2	stopfail	0.446	Go_X	0.0
560.026	1.0	go	0.377	Go_X	1.0
562.55	1.0	go	0.262	Go_O	1.0
565.074	0.15	stopsuccess	0.0	Go_O	1.0
567.598	1.0	go	0.525	Go_X	1.0
570.122	1.0	go	0.375	Go_X	1.0
572.647	1.0	go	0.369	Go_O	1.0
575.171	1.0	go	0.259	Go_X	1.0
577.695	1.0	go	0.302	Go_O	1.0
580.219	1.0	go	0.325	Go_O	1.0
582.743	1.0	go	0.42	Go_X	1.0
585.268	1.0	go	0.377	Go_X	1.0
587.792	1.0	go	0.0	Go_O	0.0
590.316	1.0	go	0.225	Go_X	1.0
592.84	0.2	stopfail	0.327	Go_X	0.0
595.365	1.0	go	0.314	Go_O	1.0
597.889	1.0	go	0.353	Go_O	1.0
600.413	0.15	stopsuccess	0.0	Go_O	1.0
602.937	1.0	go	0.537	Go_X	1.0
605.461	0.2	stopsuccess	0.0	Go_X	1.0
607.986	1.0	go	0.342	Go_X	1.0
610.51	1.0	go	0.323	Go_O	1.0
613.034	0.25	stopfail	0.293	Go_O	0.0
615.558	1.0	go	0.438	Go_X	1.0
618.082	0.2	stopfail	0.322	Go_X	0.0
620.607	1.0	go	0.435	Go_O	1.0
623.131	1.0	go	0.426	Go_O	1.0
625.655	1.0	go	0.305	Go_X	1.0
628.179	0.15	stopsuccess	0.0	Go_O	1.0
630.704	1.0	go	0.444	Go_X	1.0
633.228	1.0	go	0.347	Go_O	1.0
635.752	1.0	go	0.38	Go_X	1.0
638.276	1.0	go	0.386	Go_O	1.0
640.8	0.2	stopfail	0.382	Go_X	0.0
643.325	1.0	go	0.437	Go_O	1.0
645.849	1.0	go	0.409	Go_X	1.0
648.373	0.15	stopfail	0.446	Go_O	0.0
650.897	1.0	go	0.318	Go_O	1.0
653.421	1.0	go	0.617	Go_X	1.0
655.946	1.0	go	0.457	Go_O	1.0
658.47	1.0	go	0.485	Go_X	1.0
660.994	0.1	stopsuccess	0.0	Go_X	1.0
663.518	1.0	go	0.365	Go_O	1.0
666.043	0.15	stopsuccess	0.0	Go_O	1.0
668.567	1.0	go	0.393	Go_X	1.0
671.091	1.0	go	0.421	Go_X	1.0
673.615	0.2	stopsuccess	0.0	Go_X	1.0
676.139	1.0	go	0.284	Go_O	1.0
678.664	1.0	go	0.413	Go_X	1.0
681.188	1.0	go	0.402	Go_O	1.0
683.712	1.0	go	0.221	Go_X	1.0
686.236	0.25	stopfail	0.602	Go_O	0.0
688.76	1.0	go	0.263	Go_O	1.0
691.285	0.2	stopfail	0.474	Go_X	0.0
693.809	1.0	go	0.282	Go_O	1.0
696.333	1.0	go	0.402	Go_X	1.0
698.857	1.0	go	0.255	Go_O	1.0
701.382	1.0	go	0.388	Go_X	1.0
703.906	1.0	go	0.276	Go_O	1.0
706.43	1.0	go	0.259	Go_X	1.0
708.954	0.15	stopfail	0.271	Go_O	0.0
711.478	1.0	go	0.489	Go_O	1.0
714.003	1.0	go	0.454	Go_X	1.0
716.527	0.1	stopsuccess	0.0	Go_X	1.0
719.068	1.0	go	0.384	Go_O	1.0
721.592	1.0	go	0.0	Go_X	0.0
724.116	0.15	stopfail	0.269	Go_O	0.0
726.64	1.0	go	0.368	Go_X	1.0
729.165	1.0	go	0.319	Go_O	1.0
731.689	1.0	go	0.394	Go_O	1.0
734.213	1.0	go	0.418	Go_X	1.0
736.737	0.1	stopsuccess	0.0	Go_X	1.0
739.261	1.0	go	0.329	Go_O	1.0
741.786	0.15	stopsuccess	0.0	Go_O	1.0
744.31	1.0	go	0.318	Go_X	1.0
746.834	1.0	go	0.256	Go_O	1.0
749.358	1.0	go	0.363	Go_X	1.0
751.882	1.0	go	0.419	Go_O	1.0
754.407	1.0	go	0.314	Go_X	1.0
756.931	0.2	stopfail	0.383	Go_X	0.0
759.455	1.0	go	0.338	Go_X	1.0
761.979	1.0	go	0.256	Go_O	1.0
764.504	0.15	stopsuccess	0.0	Go_O	1.0
767.028	0.2	stopsuccess	0.0	Go_X	1.0
769.552	1.0	go	0.42	Go_X	1.0
772.076	1.0	go	0.247	Go_O	1.0
774.6	1.0	go	0.353	Go_X	0.0
777.125	1.0	go	0.287	Go_O	1.0
779.649	0.25	stopfail	0.387	Go_O	0.0
782.173	1.0	go	0.274	Go_X	1.0
