onset	duration	trial_type	response_time	stim_file	accuracy
0.5300000000000011	1.0	go	0.839	Go_X	1.0
3.0630000000000024	1.0	go	0.319	Go_O	1.0
5.596000000000004	1.0	go	0.344	Go_X	1.0
8.129999999999995	1.0	go	0.298	Go_O	1.0
10.662999999999997	1.0	go	0.0	Go_O	0.0
13.195999999999998	1.0	go	0.434	Go_X	1.0
15.729	0.25	stopfail	0.427	Go_O	0.0
18.263000000000005	1.0	go	0.583	Go_O	1.0
20.796000000000006	0.2	stopsuccess	0.0	Go_X	1.0
23.329000000000008	1.0	go	0.523	Go_X	1.0
25.86200000000001	1.0	go	0.534	Go_X	1.0
28.396	1.0	go	0.337	Go_O	1.0
30.929000000000002	0.25	stopsuccess	0.0	Go_O	1.0
33.462	1.0	go	0.401	Go_X	1.0
35.995000000000005	1.0	go	0.496	Go_O	1.0
38.528999999999996	0.3	stopfail	0.358	Go_X	0.0
41.062	0.25	stopfail	0.416	Go_O	0.0
43.595	1.0	go	0.429	Go_O	0.0
46.128	1.0	go	0.467	Go_X	1.0
48.662000000000006	0.2	stopsuccess	0.0	Go_X	1.0
51.19500000000001	1.0	go	0.539	Go_O	1.0
53.72800000000001	1.0	go	0.276	Go_X	1.0
56.260999999999996	0.25	stopsuccess	0.0	Go_O	1.0
58.795	1.0	go	0.537	Go_X	1.0
61.328	1.0	go	0.508	Go_O	1.0
63.86099999999999	0.3	stopfail	0.368	Go_X	0.0
66.394	1.0	go	0.424	Go_O	1.0
68.928	1.0	go	0.645	Go_X	1.0
71.46100000000001	0.25	stopfail	0.257	Go_O	0.0
73.994	1.0	go	0.318	Go_X	1.0
76.52700000000002	1.0	go	0.489	Go_O	1.0
79.061	1.0	go	0.309	Go_O	0.0
81.594	1.0	go	0.594	Go_X	0.0
84.12700000000001	1.0	go	0.599	Go_O	1.0
86.66	0.2	stopfail	0.373	Go_X	0.0
89.19399999999999	1.0	go	0.443	Go_X	0.0
91.727	1.0	go	0.478	Go_X	0.0
94.25999999999999	1.0	go	0.741	Go_O	1.0
96.793	1.0	go	0.467	Go_X	1.0
99.327	1.0	go	0.606	Go_O	1.0
101.86000000000001	0.15	stopsuccess	0.0	Go_O	1.0
104.393	1.0	go	0.416	Go_X	1.0
106.92699999999999	1.0	go	0.443	Go_O	1.0
109.476	1.0	go	0.803	Go_O	1.0
112.00999999999999	1.0	go	0.575	Go_X	1.0
114.543	1.0	go	0.0	Go_X	0.0
117.076	1.0	go	0.463	Go_O	1.0
119.60900000000001	0.2	stopfail	0.381	Go_X	0.0
122.143	1.0	go	0.632	Go_O	1.0
124.67600000000002	1.0	go	0.346	Go_X	1.0
127.209	0.15	stopsuccess	0.0	Go_O	1.0
129.742	1.0	go	0.618	Go_O	1.0
132.276	0.2	stopsuccess	0.0	Go_X	1.0
134.809	0.25	stopsuccess	0.0	Go_O	1.0
137.342	1.0	go	0.682	Go_X	1.0
139.875	1.0	go	0.486	Go_O	1.0
142.409	1.0	go	0.415	Go_X	1.0
144.942	1.0	go	0.433	Go_X	0.0
147.475	0.3	stopfail	0.506	Go_X	0.0
150.008	1.0	go	0.533	Go_O	0.0
152.542	0.25	stopsuccess	0.0	Go_O	1.0
155.075	1.0	go	0.662	Go_O	1.0
157.608	1.0	go	0.397	Go_X	1.0
160.141	1.0	go	0.443	Go_O	1.0
162.675	1.0	go	0.892	Go_X	1.0
165.208	1.0	go	0.569	Go_O	1.0
167.741	1.0	go	0.449	Go_X	1.0
170.274	1.0	go	0.5	Go_X	1.0
172.808	1.0	go	0.56	Go_O	1.0
175.341	1.0	go	0.632	Go_O	1.0
177.874	0.3	stopsuccess	0.0	Go_X	1.0
180.407	1.0	go	0.0	Go_X	0.0
182.941	1.0	go	0.455	Go_O	1.0
185.474	1.0	go	0.344	Go_X	1.0
188.007	0.35	stopfail	0.531	Go_O	0.0
190.541	1.0	go	0.648	Go_X	1.0
193.08999999999997	1.0	go	0.795	Go_O	1.0
195.62400000000002	1.0	go	0.549	Go_X	1.0
198.15699999999998	1.0	go	0.524	Go_O	1.0
200.69	1.0	go	0.693	Go_X	1.0
203.223	1.0	go	0.446	Go_O	1.0
205.757	0.3	stopfail	0.381	Go_X	0.0
208.29000000000002	1.0	go	0.561	Go_O	1.0
210.82299999999998	1.0	go	0.553	Go_X	1.0
213.356	0.25	stopsuccess	0.0	Go_O	1.0
215.89	1.0	go	0.353	Go_X	1.0
218.423	1.0	go	0.454	Go_O	0.0
220.95600000000002	0.3	stopfail	0.415	Go_X	0.0
223.48899999999998	1.0	go	0.715	Go_X	1.0
226.02300000000002	0.25	stopfail	0.244	Go_O	0.0
228.55599999999998	1.0	go	0.824	Go_O	1.0
231.089	1.0	go	0.0	Go_O	0.0
233.622	1.0	go	0.287	Go_X	1.0
236.156	1.0	go	0.689	Go_X	1.0
238.68900000000002	1.0	go	0.765	Go_O	1.0
241.22199999999998	0.2	stopfail	0.32	Go_X	0.0
243.755	0.15	stopsuccess	0.0	Go_O	1.0
246.289	1.0	go	0.0	Go_X	0.0
248.822	1.0	go	0.0	Go_O	0.0
251.35500000000002	0.2	stopfail	0.48	Go_X	0.0
253.88799999999998	1.0	go	0.479	Go_X	0.0
256.422	1.0	go	0.495	Go_O	1.0
258.955	1.0	go	0.543	Go_O	1.0
261.488	1.0	go	0.617	Go_X	1.0
264.021	1.0	go	0.663	Go_O	1.0
266.555	1.0	go	0.429	Go_X	1.0
269.088	0.15	stopsuccess	0.0	Go_O	1.0
271.621	1.0	go	0.4	Go_X	1.0
274.15500000000003	1.0	go	0.721	Go_O	1.0
276.704	1.0	go	0.557	Go_O	0.0
279.238	1.0	go	0.329	Go_X	0.0
281.771	1.0	go	0.415	Go_O	0.0
284.30400000000003	0.2	stopfail	0.343	Go_X	0.0
286.837	1.0	go	0.502	Go_X	1.0
289.371	1.0	go	0.528	Go_O	1.0
291.904	1.0	go	0.551	Go_X	1.0
294.437	1.0	go	0.491	Go_O	1.0
296.97	0.15	stopsuccess	0.0	Go_O	1.0
299.504	1.0	go	0.489	Go_X	1.0
302.037	1.0	go	0.501	Go_O	1.0
304.57	0.2	stopfail	0.341	Go_X	0.0
307.103	1.0	go	0.648	Go_X	1.0
309.637	0.15	stopsuccess	0.0	Go_O	1.0
312.17	1.0	go	0.514	Go_X	1.0
314.703	1.0	go	0.0	Go_O	0.0
317.236	1.0	go	0.434	Go_O	0.0
319.77	1.0	go	0.0	Go_X	0.0
322.303	1.0	go	0.227	Go_O	0.0
324.836	1.0	go	0.3	Go_X	0.0
327.369	1.0	go	0.0	Go_X	0.0
329.903	0.2	stopsuccess	0.0	Go_X	1.0
332.436	1.0	go	0.366	Go_O	1.0
334.969	1.0	go	0.652	Go_O	0.0
337.502	1.0	go	0.665	Go_X	1.0
340.036	0.25	stopfail	0.363	Go_O	0.0
342.569	1.0	go	0.573	Go_O	1.0
345.102	1.0	go	0.0	Go_X	0.0
347.635	1.0	go	0.442	Go_O	1.0
350.169	1.0	go	0.492	Go_X	1.0
352.702	0.2	stopsuccess	0.0	Go_X	1.0
355.235	1.0	go	0.718	Go_X	1.0
357.769	1.0	go	0.88	Go_O	1.0
360.318	0.25	stopsuccess	0.0	Go_O	1.0
362.852	1.0	go	0.685	Go_O	1.0
365.385	1.0	go	0.415	Go_X	1.0
367.918	0.3	stopfail	0.535	Go_X	0.0
370.451	1.0	go	0.49	Go_X	1.0
372.985	1.0	go	0.471	Go_O	1.0
375.51800000000003	0.25	stopsuccess	0.0	Go_O	1.0
378.051	1.0	go	0.512	Go_O	1.0
380.584	1.0	go	0.929	Go_X	1.0
383.118	1.0	go	0.875	Go_X	1.0
385.651	1.0	go	0.462	Go_O	1.0
388.184	1.0	go	0.751	Go_O	1.0
390.717	1.0	go	0.496	Go_X	1.0
393.251	0.3	stopsuccess	0.0	Go_X	1.0
395.784	1.0	go	0.593	Go_X	1.0
398.317	0.35	stopfail	0.321	Go_O	0.0
400.85	1.0	go	0.73	Go_O	1.0
403.384	1.0	go	0.67	Go_O	1.0
405.91700000000003	1.0	go	0.566	Go_X	1.0
408.45	1.0	go	0.592	Go_O	1.0
410.983	1.0	go	0.837	Go_X	1.0
413.517	0.3	stopfail	0.471	Go_X	0.0
416.05	1.0	go	0.395	Go_O	1.0
418.583	1.0	go	0.277	Go_X	1.0
421.116	1.0	go	0.524	Go_O	1.0
423.65	0.25	stopsuccess	0.0	Go_O	1.0
426.183	0.3	stopfail	0.425	Go_X	0.0
428.716	0.25	stopsuccess	0.0	Go_O	1.0
431.25	1.0	go	0.513	Go_X	1.0
433.799	0.3	stopsuccess	0.0	Go_X	1.0
436.333	1.0	go	0.4	Go_X	1.0
438.866	1.0	go	0.519	Go_O	1.0
441.399	1.0	go	0.31	Go_O	0.0
443.932	1.0	go	0.63	Go_X	1.0
446.466	1.0	go	0.766	Go_O	1.0
448.99899999999997	1.0	go	0.358	Go_X	1.0
451.532	1.0	go	0.751	Go_X	1.0
454.065	1.0	go	0.335	Go_O	1.0
456.599	0.35	stopsuccess	0.0	Go_O	1.0
459.132	1.0	go	0.0	Go_O	0.0
461.665	1.0	go	0.485	Go_X	1.0
464.19800000000004	0.4	stopsuccess	0.0	Go_X	1.0
466.732	1.0	go	0.65	Go_X	1.0
469.26500000000004	1.0	go	0.544	Go_O	0.0
471.79800000000006	1.0	go	0.538	Go_X	1.0
474.33099999999996	1.0	go	0.0	Go_O	0.0
476.86499999999995	1.0	go	0.548	Go_X	1.0
479.39799999999997	0.45	stopfail	0.358	Go_O	0.0
481.931	1.0	go	0.509	Go_O	1.0
484.464	1.0	go	0.661	Go_O	1.0
486.998	1.0	go	0.623	Go_X	1.0
489.531	0.4	stopfail	0.722	Go_X	0.0
492.064	1.0	go	0.649	Go_X	1.0
494.59700000000004	0.35	stopfail	0.555	Go_O	0.0
497.13100000000003	1.0	go	0.683	Go_O	1.0
499.66400000000004	1.0	go	0.605	Go_X	1.0
502.19699999999995	1.0	go	0.528	Go_O	1.0
504.72999999999996	1.0	go	0.5	Go_X	1.0
507.26399999999995	1.0	go	0.52	Go_O	1.0
509.79699999999997	1.0	go	0.442	Go_O	0.0
512.3299999999999	1.0	go	0.435	Go_X	1.0
514.864	0.3	stopsuccess	0.0	Go_X	1.0
517.413	1.0	go	0.581	Go_O	1.0
519.9469999999999	1.0	go	0.619	Go_X	1.0
522.48	1.0	go	0.554	Go_X	1.0
525.0129999999999	1.0	go	0.575	Go_O	1.0
527.546	0.35	stopfail	0.617	Go_O	0.0
530.0799999999999	1.0	go	0.0	Go_X	0.0
532.613	0.3	stopfail	0.543	Go_X	0.0
535.146	1.0	go	0.369	Go_O	0.0
537.6790000000001	1.0	go	0.511	Go_O	1.0
540.213	0.25	stopsuccess	0.0	Go_O	1.0
542.7460000000001	1.0	go	0.393	Go_X	1.0
545.279	1.0	go	0.365	Go_O	1.0
547.8119999999999	1.0	go	0.503	Go_X	1.0
550.346	1.0	go	0.559	Go_X	1.0
552.8789999999999	1.0	go	0.497	Go_O	1.0
555.412	1.0	go	0.888	Go_X	1.0
557.9449999999999	1.0	go	0.721	Go_O	1.0
560.479	1.0	go	0.693	Go_O	1.0
563.012	1.0	go	0.448	Go_X	1.0
565.5450000000001	1.0	go	0.399	Go_O	1.0
568.079	0.3	stopfail	0.458	Go_X	0.0
570.6279999999999	1.0	go	0.508	Go_X	1.0
573.162	1.0	go	0.455	Go_X	1.0
575.6949999999999	0.25	stopfail	0.265	Go_O	0.0
578.2280000000001	1.0	go	0.0	Go_O	0.0
580.761	0.2	stopfail	0.356	Go_X	0.0
583.2950000000001	1.0	go	0.554	Go_X	1.0
585.828	1.0	go	0.426	Go_O	1.0
588.3610000000001	0.15	stopsuccess	0.0	Go_O	1.0
590.894	1.0	go	0.65	Go_O	1.0
593.4280000000001	0.2	stopfail	0.278	Go_X	0.0
595.961	1.0	go	0.251	Go_X	1.0
598.4939999999999	1.0	go	0.0	Go_O	0.0
601.027	1.0	go	0.38	Go_X	1.0
603.5609999999999	0.15	stopsuccess	0.0	Go_O	1.0
606.094	1.0	go	0.0	Go_O	0.0
608.627	1.0	go	0.392	Go_X	1.0
611.1600000000001	1.0	go	0.45	Go_O	1.0
613.694	1.0	go	0.332	Go_X	1.0
616.2270000000001	0.2	stopsuccess	0.0	Go_X	1.0
618.76	1.0	go	0.604	Go_O	1.0
621.2929999999999	1.0	go	0.398	Go_X	1.0
623.827	0.25	stopsuccess	0.0	Go_O	1.0
626.3599999999999	1.0	go	0.65	Go_O	0.0
628.893	1.0	go	0.512	Go_X	1.0
631.4259999999999	1.0	go	0.27	Go_O	1.0
633.96	1.0	go	0.641	Go_X	1.0
636.4929999999999	0.3	stopfail	0.52	Go_X	0.0
639.0260000000001	1.0	go	0.557	Go_X	1.0
641.559	0.25	stopfail	0.549	Go_O	0.0
644.0930000000001	1.0	go	0.308	Go_O	0.0
646.626	1.0	go	0.608	Go_O	1.0
649.1590000000001	0.2	stopfail	0.373	Go_X	0.0
651.693	1.0	go	0.597	Go_X	1.0
654.242	1.0	go	0.314	Go_X	0.0
656.7760000000001	1.0	go	0.713	Go_O	1.0
659.309	1.0	go	0.265	Go_X	1.0
661.8420000000001	0.15	stopsuccess	0.0	Go_O	1.0
664.375	1.0	go	0.485	Go_O	1.0
666.9090000000001	0.2	stopfail	0.287	Go_X	0.0
669.442	1.0	go	0.576	Go_X	1.0
671.9749999999999	1.0	go	0.731	Go_O	1.0
674.508	1.0	go	0.777	Go_O	1.0
677.0419999999999	1.0	go	0.329	Go_X	1.0
679.575	1.0	go	0.267	Go_X	1.0
682.108	1.0	go	0.0	Go_O	0.0
684.6410000000001	0.15	stopsuccess	0.0	Go_O	1.0
687.175	1.0	go	0.23	Go_X	1.0
689.7080000000001	1.0	go	0.46	Go_O	1.0
692.241	0.2	stopsuccess	0.0	Go_X	1.0
694.7740000000001	1.0	go	0.567	Go_O	1.0
697.308	1.0	go	0.426	Go_X	1.0
699.8409999999999	0.25	stopsuccess	0.0	Go_O	1.0
702.374	1.0	go	0.763	Go_O	1.0
704.9069999999999	1.0	go	0.385	Go_X	1.0
707.441	1.0	go	0.854	Go_X	1.0
709.9739999999999	1.0	go	0.461	Go_O	1.0
712.5070000000001	0.3	stopfail	0.411	Go_X	0.0
715.04	1.0	go	0.55	Go_O	1.0
717.5740000000001	0.25	stopfail	0.286	Go_O	0.0
720.107	1.0	go	0.297	Go_X	0.0
722.6400000000001	1.0	go	0.509	Go_O	1.0
725.173	1.0	go	0.272	Go_X	1.0
727.7070000000001	1.0	go	0.587	Go_X	1.0
730.24	1.0	go	0.527	Go_O	1.0
732.7729999999999	0.2	stopsuccess	0.0	Go_X	1.0
735.307	1.0	go	0.0	Go_X	0.0
737.856	1.0	go	0.654	Go_O	1.0
740.3900000000001	0.25	stopfail	0.303	Go_O	0.0
742.923	0.2	stopsuccess	0.0	Go_X	1.0
745.4559999999999	1.0	go	0.0	Go_X	0.0
747.989	1.0	go	0.251	Go_O	1.0
750.5229999999999	1.0	go	0.535	Go_O	1.0
753.056	1.0	go	0.636	Go_X	0.0
755.5889999999999	0.25	stopfail	0.615	Go_O	0.0
758.1220000000001	1.0	go	0.582	Go_O	1.0
