onset	duration	trial_type	response_time	stim_file	accuracy
65.47	1.0	go	0.839	Go_X	1.0
68.003	1.0	go	0.319	Go_O	1.0
70.536	1.0	go	0.344	Go_X	1.0
73.07	1.0	go	0.298	Go_O	1.0
75.603	1.0	go	0.0	Go_O	0.0
78.136	1.0	go	0.434	Go_X	1.0
80.669	0.25	stopfail	0.427	Go_O	0.0
83.203	1.0	go	0.583	Go_O	1.0
85.736	0.2	stopsuccess	0.0	Go_X	1.0
88.269	1.0	go	0.523	Go_X	1.0
90.802	1.0	go	0.534	Go_X	1.0
93.336	1.0	go	0.337	Go_O	1.0
95.869	0.25	stopsuccess	0.0	Go_O	1.0
98.402	1.0	go	0.401	Go_X	1.0
100.935	1.0	go	0.496	Go_O	1.0
103.469	0.3	stopfail	0.358	Go_X	0.0
106.002	0.25	stopfail	0.416	Go_O	0.0
108.535	1.0	go	0.429	Go_O	0.0
111.068	1.0	go	0.467	Go_X	1.0
113.602	0.2	stopsuccess	0.0	Go_X	1.0
116.135	1.0	go	0.539	Go_O	1.0
118.668	1.0	go	0.276	Go_X	1.0
121.201	0.25	stopsuccess	0.0	Go_O	1.0
123.735	1.0	go	0.537	Go_X	1.0
126.268	1.0	go	0.508	Go_O	1.0
128.801	0.3	stopfail	0.368	Go_X	0.0
131.334	1.0	go	0.424	Go_O	1.0
133.868	1.0	go	0.645	Go_X	1.0
136.401	0.25	stopfail	0.257	Go_O	0.0
138.934	1.0	go	0.318	Go_X	1.0
141.467	1.0	go	0.489	Go_O	1.0
144.001	1.0	go	0.309	Go_O	0.0
146.534	1.0	go	0.594	Go_X	0.0
149.067	1.0	go	0.599	Go_O	1.0
151.6	0.2	stopfail	0.373	Go_X	0.0
154.134	1.0	go	0.443	Go_X	0.0
156.667	1.0	go	0.478	Go_X	0.0
159.2	1.0	go	0.741	Go_O	1.0
161.733	1.0	go	0.467	Go_X	1.0
164.267	1.0	go	0.606	Go_O	1.0
166.8	0.15	stopsuccess	0.0	Go_O	1.0
169.333	1.0	go	0.416	Go_X	1.0
171.867	1.0	go	0.443	Go_O	1.0
174.416	1.0	go	0.803	Go_O	1.0
176.95	1.0	go	0.575	Go_X	1.0
179.483	1.0	go	0.0	Go_X	0.0
182.016	1.0	go	0.463	Go_O	1.0
184.549	0.2	stopfail	0.381	Go_X	0.0
187.083	1.0	go	0.632	Go_O	1.0
189.616	1.0	go	0.346	Go_X	1.0
192.149	0.15	stopsuccess	0.0	Go_O	1.0
194.682	1.0	go	0.618	Go_O	1.0
197.216	0.2	stopsuccess	0.0	Go_X	1.0
199.749	0.25	stopsuccess	0.0	Go_O	1.0
202.282	1.0	go	0.682	Go_X	1.0
204.815	1.0	go	0.486	Go_O	1.0
207.349	1.0	go	0.415	Go_X	1.0
209.882	1.0	go	0.433	Go_X	0.0
212.415	0.3	stopfail	0.506	Go_X	0.0
214.948	1.0	go	0.533	Go_O	0.0
217.482	0.25	stopsuccess	0.0	Go_O	1.0
220.015	1.0	go	0.662	Go_O	1.0
222.548	1.0	go	0.397	Go_X	1.0
225.081	1.0	go	0.443	Go_O	1.0
227.615	1.0	go	0.892	Go_X	1.0
230.148	1.0	go	0.569	Go_O	1.0
232.681	1.0	go	0.449	Go_X	1.0
235.214	1.0	go	0.5	Go_X	1.0
237.748	1.0	go	0.56	Go_O	1.0
240.281	1.0	go	0.632	Go_O	1.0
242.814	0.3	stopsuccess	0.0	Go_X	1.0
245.347	1.0	go	0.0	Go_X	0.0
247.881	1.0	go	0.455	Go_O	1.0
250.414	1.0	go	0.344	Go_X	1.0
252.947	0.35	stopfail	0.531	Go_O	0.0
255.481	1.0	go	0.648	Go_X	1.0
258.03	1.0	go	0.795	Go_O	1.0
260.564	1.0	go	0.549	Go_X	1.0
263.097	1.0	go	0.524	Go_O	1.0
265.63	1.0	go	0.693	Go_X	1.0
268.163	1.0	go	0.446	Go_O	1.0
270.697	0.3	stopfail	0.381	Go_X	0.0
273.23	1.0	go	0.561	Go_O	1.0
275.763	1.0	go	0.553	Go_X	1.0
278.296	0.25	stopsuccess	0.0	Go_O	1.0
280.83	1.0	go	0.353	Go_X	1.0
283.363	1.0	go	0.454	Go_O	0.0
285.896	0.3	stopfail	0.415	Go_X	0.0
288.429	1.0	go	0.715	Go_X	1.0
290.963	0.25	stopfail	0.244	Go_O	0.0
293.496	1.0	go	0.824	Go_O	1.0
296.029	1.0	go	0.0	Go_O	0.0
298.562	1.0	go	0.287	Go_X	1.0
301.096	1.0	go	0.689	Go_X	1.0
303.629	1.0	go	0.765	Go_O	1.0
306.162	0.2	stopfail	0.32	Go_X	0.0
308.695	0.15	stopsuccess	0.0	Go_O	1.0
311.229	1.0	go	0.0	Go_X	0.0
313.762	1.0	go	0.0	Go_O	0.0
316.295	0.2	stopfail	0.48	Go_X	0.0
318.828	1.0	go	0.479	Go_X	0.0
321.362	1.0	go	0.495	Go_O	1.0
323.895	1.0	go	0.543	Go_O	1.0
326.428	1.0	go	0.617	Go_X	1.0
328.961	1.0	go	0.663	Go_O	1.0
331.495	1.0	go	0.429	Go_X	1.0
334.028	0.15	stopsuccess	0.0	Go_O	1.0
336.561	1.0	go	0.4	Go_X	1.0
339.095	1.0	go	0.721	Go_O	1.0
341.644	1.0	go	0.557	Go_O	0.0
344.178	1.0	go	0.329	Go_X	0.0
346.711	1.0	go	0.415	Go_O	0.0
349.244	0.2	stopfail	0.343	Go_X	0.0
351.777	1.0	go	0.502	Go_X	1.0
354.311	1.0	go	0.528	Go_O	1.0
356.844	1.0	go	0.551	Go_X	1.0
359.377	1.0	go	0.491	Go_O	1.0
361.91	0.15	stopsuccess	0.0	Go_O	1.0
364.444	1.0	go	0.489	Go_X	1.0
366.977	1.0	go	0.501	Go_O	1.0
369.51	0.2	stopfail	0.341	Go_X	0.0
372.043	1.0	go	0.648	Go_X	1.0
374.577	0.15	stopsuccess	0.0	Go_O	1.0
377.11	1.0	go	0.514	Go_X	1.0
379.643	1.0	go	0.0	Go_O	0.0
382.176	1.0	go	0.434	Go_O	0.0
384.71	1.0	go	0.0	Go_X	0.0
387.243	1.0	go	0.227	Go_O	0.0
389.776	1.0	go	0.3	Go_X	0.0
392.309	1.0	go	0.0	Go_X	0.0
394.843	0.2	stopsuccess	0.0	Go_X	1.0
397.376	1.0	go	0.366	Go_O	1.0
399.909	1.0	go	0.652	Go_O	0.0
402.442	1.0	go	0.665	Go_X	1.0
404.976	0.25	stopfail	0.363	Go_O	0.0
407.509	1.0	go	0.573	Go_O	1.0
410.042	1.0	go	0.0	Go_X	0.0
412.575	1.0	go	0.442	Go_O	1.0
415.109	1.0	go	0.492	Go_X	1.0
417.642	0.2	stopsuccess	0.0	Go_X	1.0
420.175	1.0	go	0.718	Go_X	1.0
422.709	1.0	go	0.88	Go_O	1.0
425.258	0.25	stopsuccess	0.0	Go_O	1.0
427.792	1.0	go	0.685	Go_O	1.0
430.325	1.0	go	0.415	Go_X	1.0
432.858	0.3	stopfail	0.535	Go_X	0.0
435.391	1.0	go	0.49	Go_X	1.0
437.925	1.0	go	0.471	Go_O	1.0
440.458	0.25	stopsuccess	0.0	Go_O	1.0
442.991	1.0	go	0.512	Go_O	1.0
445.524	1.0	go	0.929	Go_X	1.0
448.058	1.0	go	0.875	Go_X	1.0
450.591	1.0	go	0.462	Go_O	1.0
453.124	1.0	go	0.751	Go_O	1.0
455.657	1.0	go	0.496	Go_X	1.0
458.191	0.3	stopsuccess	0.0	Go_X	1.0
460.724	1.0	go	0.593	Go_X	1.0
463.257	0.35	stopfail	0.321	Go_O	0.0
465.79	1.0	go	0.73	Go_O	1.0
468.324	1.0	go	0.67	Go_O	1.0
470.857	1.0	go	0.566	Go_X	1.0
473.39	1.0	go	0.592	Go_O	1.0
475.923	1.0	go	0.837	Go_X	1.0
478.457	0.3	stopfail	0.471	Go_X	0.0
480.99	1.0	go	0.395	Go_O	1.0
483.523	1.0	go	0.277	Go_X	1.0
486.056	1.0	go	0.524	Go_O	1.0
488.59	0.25	stopsuccess	0.0	Go_O	1.0
491.123	0.3	stopfail	0.425	Go_X	0.0
493.656	0.25	stopsuccess	0.0	Go_O	1.0
496.19	1.0	go	0.513	Go_X	1.0
498.739	0.3	stopsuccess	0.0	Go_X	1.0
501.273	1.0	go	0.4	Go_X	1.0
503.806	1.0	go	0.519	Go_O	1.0
506.339	1.0	go	0.31	Go_O	0.0
508.872	1.0	go	0.63	Go_X	1.0
511.406	1.0	go	0.766	Go_O	1.0
513.939	1.0	go	0.358	Go_X	1.0
516.472	1.0	go	0.751	Go_X	1.0
519.005	1.0	go	0.335	Go_O	1.0
521.539	0.35	stopsuccess	0.0	Go_O	1.0
524.072	1.0	go	0.0	Go_O	0.0
526.605	1.0	go	0.485	Go_X	1.0
529.138	0.4	stopsuccess	0.0	Go_X	1.0
531.672	1.0	go	0.65	Go_X	1.0
534.205	1.0	go	0.544	Go_O	0.0
536.738	1.0	go	0.538	Go_X	1.0
539.271	1.0	go	0.0	Go_O	0.0
541.805	1.0	go	0.548	Go_X	1.0
544.338	0.45	stopfail	0.358	Go_O	0.0
546.871	1.0	go	0.509	Go_O	1.0
549.404	1.0	go	0.661	Go_O	1.0
551.938	1.0	go	0.623	Go_X	1.0
554.471	0.4	stopfail	0.722	Go_X	0.0
557.004	1.0	go	0.649	Go_X	1.0
559.537	0.35	stopfail	0.555	Go_O	0.0
562.071	1.0	go	0.683	Go_O	1.0
564.604	1.0	go	0.605	Go_X	1.0
567.137	1.0	go	0.528	Go_O	1.0
569.67	1.0	go	0.5	Go_X	1.0
572.204	1.0	go	0.52	Go_O	1.0
574.737	1.0	go	0.442	Go_O	0.0
577.27	1.0	go	0.435	Go_X	1.0
579.804	0.3	stopsuccess	0.0	Go_X	1.0
582.353	1.0	go	0.581	Go_O	1.0
584.887	1.0	go	0.619	Go_X	1.0
587.42	1.0	go	0.554	Go_X	1.0
589.953	1.0	go	0.575	Go_O	1.0
592.486	0.35	stopfail	0.617	Go_O	0.0
595.02	1.0	go	0.0	Go_X	0.0
597.553	0.3	stopfail	0.543	Go_X	0.0
600.086	1.0	go	0.369	Go_O	0.0
602.619	1.0	go	0.511	Go_O	1.0
605.153	0.25	stopsuccess	0.0	Go_O	1.0
607.686	1.0	go	0.393	Go_X	1.0
610.219	1.0	go	0.365	Go_O	1.0
612.752	1.0	go	0.503	Go_X	1.0
615.286	1.0	go	0.559	Go_X	1.0
617.819	1.0	go	0.497	Go_O	1.0
620.352	1.0	go	0.888	Go_X	1.0
622.885	1.0	go	0.721	Go_O	1.0
625.419	1.0	go	0.693	Go_O	1.0
627.952	1.0	go	0.448	Go_X	1.0
630.485	1.0	go	0.399	Go_O	1.0
633.019	0.3	stopfail	0.458	Go_X	0.0
635.568	1.0	go	0.508	Go_X	1.0
638.102	1.0	go	0.455	Go_X	1.0
640.635	0.25	stopfail	0.265	Go_O	0.0
643.168	1.0	go	0.0	Go_O	0.0
645.701	0.2	stopfail	0.356	Go_X	0.0
648.235	1.0	go	0.554	Go_X	1.0
650.768	1.0	go	0.426	Go_O	1.0
653.301	0.15	stopsuccess	0.0	Go_O	1.0
655.834	1.0	go	0.65	Go_O	1.0
658.368	0.2	stopfail	0.278	Go_X	0.0
660.901	1.0	go	0.251	Go_X	1.0
663.434	1.0	go	0.0	Go_O	0.0
665.967	1.0	go	0.38	Go_X	1.0
668.501	0.15	stopsuccess	0.0	Go_O	1.0
671.034	1.0	go	0.0	Go_O	0.0
673.567	1.0	go	0.392	Go_X	1.0
676.1	1.0	go	0.45	Go_O	1.0
678.634	1.0	go	0.332	Go_X	1.0
681.167	0.2	stopsuccess	0.0	Go_X	1.0
683.7	1.0	go	0.604	Go_O	1.0
686.233	1.0	go	0.398	Go_X	1.0
688.767	0.25	stopsuccess	0.0	Go_O	1.0
691.3	1.0	go	0.65	Go_O	0.0
693.833	1.0	go	0.512	Go_X	1.0
696.366	1.0	go	0.27	Go_O	1.0
698.9	1.0	go	0.641	Go_X	1.0
701.433	0.3	stopfail	0.52	Go_X	0.0
703.966	1.0	go	0.557	Go_X	1.0
706.499	0.25	stopfail	0.549	Go_O	0.0
709.033	1.0	go	0.308	Go_O	0.0
711.566	1.0	go	0.608	Go_O	1.0
714.099	0.2	stopfail	0.373	Go_X	0.0
716.633	1.0	go	0.597	Go_X	1.0
719.182	1.0	go	0.314	Go_X	0.0
721.716	1.0	go	0.713	Go_O	1.0
724.249	1.0	go	0.265	Go_X	1.0
726.782	0.15	stopsuccess	0.0	Go_O	1.0
729.315	1.0	go	0.485	Go_O	1.0
731.849	0.2	stopfail	0.287	Go_X	0.0
734.382	1.0	go	0.576	Go_X	1.0
736.915	1.0	go	0.731	Go_O	1.0
739.448	1.0	go	0.777	Go_O	1.0
741.982	1.0	go	0.329	Go_X	1.0
744.515	1.0	go	0.267	Go_X	1.0
747.048	1.0	go	0.0	Go_O	0.0
749.581	0.15	stopsuccess	0.0	Go_O	1.0
752.115	1.0	go	0.23	Go_X	1.0
754.648	1.0	go	0.46	Go_O	1.0
757.181	0.2	stopsuccess	0.0	Go_X	1.0
759.714	1.0	go	0.567	Go_O	1.0
762.248	1.0	go	0.426	Go_X	1.0
764.781	0.25	stopsuccess	0.0	Go_O	1.0
767.314	1.0	go	0.763	Go_O	1.0
769.847	1.0	go	0.385	Go_X	1.0
772.381	1.0	go	0.854	Go_X	1.0
774.914	1.0	go	0.461	Go_O	1.0
777.447	0.3	stopfail	0.411	Go_X	0.0
779.98	1.0	go	0.55	Go_O	1.0
782.514	0.25	stopfail	0.286	Go_O	0.0
785.047	1.0	go	0.297	Go_X	0.0
787.58	1.0	go	0.509	Go_O	1.0
790.113	1.0	go	0.272	Go_X	1.0
792.647	1.0	go	0.587	Go_X	1.0
795.18	1.0	go	0.527	Go_O	1.0
797.713	0.2	stopsuccess	0.0	Go_X	1.0
800.247	1.0	go	0.0	Go_X	0.0
802.796	1.0	go	0.654	Go_O	1.0
805.33	0.25	stopfail	0.303	Go_O	0.0
807.863	0.2	stopsuccess	0.0	Go_X	1.0
810.396	1.0	go	0.0	Go_X	0.0
812.929	1.0	go	0.251	Go_O	1.0
815.463	1.0	go	0.535	Go_O	1.0
817.996	1.0	go	0.636	Go_X	0.0
820.529	0.25	stopfail	0.615	Go_O	0.0
823.062	1.0	go	0.582	Go_O	1.0
