frame	onset	duration	trial_type	event_type	response_type	response_time	stim_file	accuracy
0	74.506		loss-noreward	ImageDisplay1		0.0		
0	76.496	0.75	loss-noreward	StartDisplay				
0	77.248		loss-noreward	ImageDisplay2		0.0		
0	80.491	1.6	loss-noreward	ChoiceDisplay	1	0.629	1	1
0	81.143	0.971	loss-noreward	ChosenDisplay		0.0		
0	82.096	0.25	loss-noreward	TurnDisplay				
0	82.347	0.75	loss-noreward	OutcomeDisplay				
1	83.099		win-noreward	ImageDisplay1		0.0		
1	85.339	0.75	win-noreward	StartDisplay				
1	86.091		win-noreward	ImageDisplay2		0.0		
1	89.1	1.6	win-noreward	ChoiceDisplay	1	0.916	1	1
1	90.036	0.684	win-noreward	ChosenDisplay		0.0		
1	90.705	0.25	win-noreward	TurnDisplay				
1	90.956	0.75	win-noreward	OutcomeDisplay				
2	91.708		control-reward	ImageDisplay1		0.0		
2	93.697	0.75	control-reward	StartDisplay				
2	94.449		control-reward	ImageDisplay2		0.0		
2	97.709	1.6	control-reward	ChoiceDisplay	1	0.891	1	1
2	98.612	0.709	control-reward	ChosenDisplay		0.0		
2	99.314	0.25	control-reward	TurnDisplay				
2	99.565	0.75	control-reward	OutcomeDisplay				
3	100.317		win-noreward	ImageDisplay1		0.0		
3	102.306	0.75	win-noreward	StartDisplay				
3	103.058		win-noreward	ImageDisplay2		0.0		
3	106.318	1.6	win-noreward	ChoiceDisplay	1	1.334	1	1
3	107.672	0.266	win-noreward	ChosenDisplay		0.0		
3	107.923	0.25	win-noreward	TurnDisplay				
3	108.174	0.75	win-noreward	OutcomeDisplay				
4	108.926		loss-noreward	ImageDisplay1		0.0		
4	110.915	0.75	loss-noreward	StartDisplay				
4	111.668		loss-noreward	ImageDisplay2		0.0		
4	114.927	1.6	loss-noreward	ChoiceDisplay	1	0.953	1	1
4	115.897	0.647	loss-noreward	ChosenDisplay		0.0		
4	116.532	0.25	loss-noreward	TurnDisplay				
4	116.783	0.75	loss-noreward	OutcomeDisplay				
5	117.535		win-noreward	ImageDisplay1		0.0		
5	119.775	0.75	win-noreward	StartDisplay				
5	120.527		win-noreward	ImageDisplay2		0.0		
5	123.536	1.6	win-noreward	ChoiceDisplay	1	1.537	1	1
5	125.091	0.0	win-noreward	ChosenDisplay		0.0		
5	125.141	0.25	win-noreward	TurnDisplay				
5	125.325	0.75	win-noreward	OutcomeDisplay				
6	126.077		loss-reward	ImageDisplay1		0.0		
6	128.334	0.75	loss-reward	StartDisplay				
6	129.07		loss-reward	ImageDisplay2		0.0		
6	132.079	1.6	loss-reward	ChoiceDisplay	1	1.067	1	1
6	133.165	0.533	loss-reward	ChosenDisplay		0.0		
6	133.683	0.25	loss-reward	TurnDisplay				
6	133.934	0.75	loss-reward	OutcomeDisplay				
7	134.686		win-reward	ImageDisplay1		0.0		
7	136.676	0.75	win-reward	StartDisplay				
7	137.428		win-reward	ImageDisplay2		0.0		
7	140.688	1.6	win-reward	ChoiceDisplay	1	0.864	1	1
7	141.574	0.736	win-reward	ChosenDisplay		0.0		
7	142.292	0.25	win-reward	TurnDisplay				
7	142.543	0.75	win-reward	OutcomeDisplay				
8	143.295		control-reward	ImageDisplay1		0.0		
8	145.285	0.75	control-reward	StartDisplay				
8	146.037		control-reward	ImageDisplay2		0.0		
8	149.297	1.6	control-reward	ChoiceDisplay	1	0.774	1	1
8	150.082	0.826	control-reward	ChosenDisplay		0.0		
8	150.902	0.25	control-reward	TurnDisplay				
8	151.152	0.75	control-reward	OutcomeDisplay				
9	151.905		control-noreward	ImageDisplay1		0.0		
9	154.145	0.75	control-noreward	StartDisplay				
9	154.897		control-noreward	ImageDisplay2		0.0		
9	157.906	1.6	control-noreward	ChoiceDisplay	1	0.69	1	1
9	158.608	0.91	control-noreward	ChosenDisplay		0.0		
9	159.511	0.25	control-noreward	TurnDisplay				
9	159.761	0.75	control-noreward	OutcomeDisplay				
10	160.514		control-noreward	ImageDisplay1		0.0		
10	162.754	0.75	control-noreward	StartDisplay				
10	163.506		control-noreward	ImageDisplay2		0.0		
10	166.515	1.6	control-noreward	ChoiceDisplay	1	0.638	1	1
10	167.167	0.962	control-noreward	ChosenDisplay		0.0		
10	168.12	0.25	control-noreward	TurnDisplay				
10	168.37	0.75	control-noreward	OutcomeDisplay				
11	169.123		loss-noreward	ImageDisplay1		0.0		
11	171.112	0.75	loss-noreward	StartDisplay				
11	171.864		loss-noreward	ImageDisplay2		0.0		
11	175.124	1.6	loss-noreward	ChoiceDisplay	1	0.695	1	1
11	175.843	0.905	loss-noreward	ChosenDisplay		0.0		
11	176.729	0.25	loss-noreward	TurnDisplay				
11	176.98	0.75	loss-noreward	OutcomeDisplay				
12	177.732		win-noreward	ImageDisplay1		0.0		
12	179.972	0.75	win-noreward	StartDisplay				
12	180.724		win-noreward	ImageDisplay2		0.0		
12	183.733	1.6	win-noreward	ChoiceDisplay	1	0.873	1	1
12	184.619	0.727	win-noreward	ChosenDisplay		0.0		
12	185.338	0.25	win-noreward	TurnDisplay				
12	185.589	0.75	win-noreward	OutcomeDisplay				
13	186.341		win-reward	ImageDisplay1		0.0		
13	188.581	0.75	win-reward	StartDisplay				
13	189.333		win-reward	ImageDisplay2		0.0		
13	192.342	1.6	win-reward	ChoiceDisplay	1	0.554	1	1
13	192.91	1.046	win-reward	ChosenDisplay		0.0		
13	193.947	0.25	win-reward	TurnDisplay				
13	194.198	0.75	win-reward	OutcomeDisplay				
14	194.95		win-reward	ImageDisplay1		0.0		
14	197.19	0.75	win-reward	StartDisplay				
14	197.942		win-reward	ImageDisplay2		0.0		
14	200.951	1.6	win-reward	ChoiceDisplay	1	1.026	1	1
14	202.004	0.574	win-reward	ChosenDisplay		0.0		
14	202.556	0.25	win-reward	TurnDisplay				
14	202.807	0.75	win-reward	OutcomeDisplay				
15	203.559		control-noreward	ImageDisplay1		0.0		
15	205.799	0.75	control-noreward	StartDisplay				
15	206.551		control-noreward	ImageDisplay2		0.0		
15	209.56	1.6	control-noreward	ChoiceDisplay	1	0.692	1	1
15	210.279	0.908	control-noreward	ChosenDisplay		0.0		
15	211.165	0.25	control-noreward	TurnDisplay				
15	211.416	0.75	control-noreward	OutcomeDisplay				
16	212.168		win-reward	ImageDisplay1		0.0		
16	214.408	0.75	win-reward	StartDisplay				
16	215.16		win-reward	ImageDisplay2		0.0		
16	218.169	1.6	win-reward	ChoiceDisplay	1	0.686	1	1
16	218.871	0.914	win-reward	ChosenDisplay		0.0		
16	219.774	0.25	win-reward	TurnDisplay				
16	220.025	0.75	win-reward	OutcomeDisplay				
17	220.777		control-reward	ImageDisplay1		0.0		
17	223.017	0.75	control-reward	StartDisplay				
17	223.769		control-reward	ImageDisplay2		0.0		
17	226.778	1.6	control-reward	ChoiceDisplay	1	0.679	1	1
17	227.481	0.921	control-reward	ChosenDisplay		0.0		
17	228.383	0.25	control-reward	TurnDisplay				
17	228.634	0.75	control-reward	OutcomeDisplay				
18	229.386		control-reward	ImageDisplay1		0.0		
18	231.626	0.75	control-reward	StartDisplay				
18	232.378		control-reward	ImageDisplay2		0.0		
18	235.387	1.6	control-reward	ChoiceDisplay	1	0.886	1	1
18	236.29	0.714	control-reward	ChosenDisplay		0.0		
18	236.992	0.25	control-reward	TurnDisplay				
18	237.243	0.75	control-reward	OutcomeDisplay				
19	237.995		win-reward	ImageDisplay1		0.0		
19	240.235	0.75	win-reward	StartDisplay				
19	240.988		win-reward	ImageDisplay2		0.0		
19	243.997	1.6	win-reward	ChoiceDisplay	1	0.295	1	1
19	244.314	1.305	win-reward	ChosenDisplay		0.0		
19	245.601	0.25	win-reward	TurnDisplay				
19	245.852	0.75	win-reward	OutcomeDisplay				
20	246.604		control-noreward	ImageDisplay1		0.0		
20	248.594	0.75	control-noreward	StartDisplay				
20	249.346		control-noreward	ImageDisplay2		0.0		
20	252.606	1.6	control-noreward	ChoiceDisplay	1	0.584	1	1
20	253.207	1.016	control-noreward	ChosenDisplay		0.0		
20	254.21	0.25	control-noreward	TurnDisplay				
20	254.461	0.75	control-noreward	OutcomeDisplay				
21	255.213		win-noreward	ImageDisplay1		0.0		
21	257.203	0.75	win-noreward	StartDisplay				
21	257.955		win-noreward	ImageDisplay2		0.0		
21	261.215	1.6	win-noreward	ChoiceDisplay	1	0.614	1	1
21	261.85	0.986	win-noreward	ChosenDisplay		0.0		
21	262.819	0.25	win-noreward	TurnDisplay				
21	263.07	0.75	win-noreward	OutcomeDisplay				
22	263.822		loss-noreward	ImageDisplay1		0.0		
22	265.812	0.75	loss-noreward	StartDisplay				
22	266.564		loss-noreward	ImageDisplay2		0.0		
22	269.824	1.6	loss-noreward	ChoiceDisplay	1	0.757	1	1
22	270.593	0.843	loss-noreward	ChosenDisplay		0.0		
22	271.429	0.25	loss-noreward	TurnDisplay				
22	271.679	0.75	loss-noreward	OutcomeDisplay				
23	272.432		loss-noreward	ImageDisplay1		0.0		
23	274.672	0.75	loss-noreward	StartDisplay				
23	275.424		loss-noreward	ImageDisplay2		0.0		
23	278.433	1.6	loss-noreward	ChoiceDisplay	1	0.499	1	1
23	278.951	1.101	loss-noreward	ChosenDisplay		0.0		
23	280.038	0.25	loss-noreward	TurnDisplay				
23	280.288	0.75	loss-noreward	OutcomeDisplay				
24	281.041		control-reward	ImageDisplay1		0.0		
24	283.281	0.75	control-reward	StartDisplay				
24	284.033		control-reward	ImageDisplay2		0.0		
24	287.042	1.6	control-reward	ChoiceDisplay	1	0.603	1	1
24	287.66	0.997	control-reward	ChosenDisplay		0.0		
24	288.647	0.25	control-reward	TurnDisplay				
24	288.897	0.75	control-reward	OutcomeDisplay				
25	289.65		control-reward	ImageDisplay1		0.0		
25	291.639	0.75	control-reward	StartDisplay				
25	292.391		control-reward	ImageDisplay2		0.0		
25	295.651	1.6	control-reward	ChoiceDisplay	1	0.407	1	1
25	296.086	1.193	control-reward	ChosenDisplay		0.0		
25	297.256	0.25	control-reward	TurnDisplay				
25	297.507	0.75	control-reward	OutcomeDisplay				
26	298.259		win-reward	ImageDisplay1		0.0		
26	300.499	0.75	win-reward	StartDisplay				
26	301.251		win-reward	ImageDisplay2		0.0		
26	304.26	1.6	win-reward	ChoiceDisplay	1	0.79	1	1
26	305.062	0.81	win-reward	ChosenDisplay		0.0		
26	305.865	0.25	win-reward	TurnDisplay				
26	306.116	0.75	win-reward	OutcomeDisplay				
27	306.868		control-reward	ImageDisplay1		0.0		
27	308.857	0.75	control-reward	StartDisplay				
27	309.609		control-reward	ImageDisplay2		0.0		
27	312.869	1.6	control-reward	ChoiceDisplay	1	0.665	1	1
27	313.555	0.935	control-reward	ChosenDisplay		0.0		
27	314.474	0.25	control-reward	TurnDisplay				
27	314.725	0.75	control-reward	OutcomeDisplay				
28	315.477		control-reward	ImageDisplay1		0.0		
28	317.717	0.75	control-reward	StartDisplay				
28	318.469		control-reward	ImageDisplay2		0.0		
28	321.478	1.6	control-reward	ChoiceDisplay	1	0.703	1	1
28	322.197	0.897	control-reward	ChosenDisplay		0.0		
28	323.083	0.25	control-reward	TurnDisplay				
28	323.334	0.75	control-reward	OutcomeDisplay				
29	324.086		win-noreward	ImageDisplay1		0.0		
29	326.326	0.75	win-noreward	StartDisplay				
29	327.078		win-noreward	ImageDisplay2		0.0		
29	330.087	1.6	win-noreward	ChoiceDisplay	1	0.8	1	1
29	330.906	0.8	win-noreward	ChosenDisplay		0.0		
29	331.692	0.25	win-noreward	TurnDisplay				
29	331.943	0.75	win-noreward	OutcomeDisplay				
30	332.695		loss-reward	ImageDisplay1		0.0		
30	334.935	0.75	loss-reward	StartDisplay				
30	335.687		loss-reward	ImageDisplay2		0.0		
30	338.696	1.6	loss-reward	ChoiceDisplay	1	0.543	1	1
30	339.265	1.057	loss-reward	ChosenDisplay		0.0		
30	340.301	0.25	loss-reward	TurnDisplay				
30	340.552	0.75	loss-reward	OutcomeDisplay				
31	341.304		win-reward	ImageDisplay1		0.0		
31	343.293	0.75	win-reward	StartDisplay				
31	344.046		win-reward	ImageDisplay2		0.0		
31	347.305	1.6	win-reward	ChoiceDisplay	1	0.575	1	1
31	347.907	1.025	win-reward	ChosenDisplay		0.0		
31	348.91	0.25	win-reward	TurnDisplay				
31	349.161	0.75	win-reward	OutcomeDisplay				
32	349.913		loss-reward	ImageDisplay1		0.0		
32	352.153	0.75	loss-reward	StartDisplay				
32	352.906		loss-reward	ImageDisplay2		0.0		
32	355.915	1.6	loss-reward	ChoiceDisplay	1	0.748	1	1
32	356.683	0.852	loss-reward	ChosenDisplay		0.0		
32	357.519	0.25	loss-reward	TurnDisplay				
32	357.77	0.75	loss-reward	OutcomeDisplay				
33	358.522		loss-reward	ImageDisplay1		0.0		
33	360.762	0.75	loss-reward	StartDisplay				
33	361.515		loss-reward	ImageDisplay2		0.0		
33	364.524	1.6	loss-reward	ChoiceDisplay	1	0.709	1	1
33	365.259	0.891	loss-reward	ChosenDisplay		0.0		
33	366.128	0.25	loss-reward	TurnDisplay				
33	366.379	0.75	loss-reward	OutcomeDisplay				
34	367.131		control-noreward	ImageDisplay1		0.0		
34	369.371	0.75	control-noreward	StartDisplay				
34	370.124		control-noreward	ImageDisplay2		0.0		
34	373.133	1.6	control-noreward	ChoiceDisplay		0.0		
34	374.721	0.0	control-noreward	ChosenDisplay		0.0		
34	374.737	0.25	control-noreward	TurnDisplay				
34	374.971	0.75	control-noreward	OutcomeDisplay				
35	375.724		control-reward	ImageDisplay1		0.0		
35	377.98	0.75	control-reward	StartDisplay				
35	378.733		control-reward	ImageDisplay2		0.0		
35	381.725	1.6	control-reward	ChoiceDisplay	1	0.633	1	1
35	382.377	0.967	control-reward	ChosenDisplay		0.0		
35	383.33	0.25	control-reward	TurnDisplay				
35	383.581	0.75	control-reward	OutcomeDisplay				
36	384.333		control-reward	ImageDisplay1		0.0		
36	386.322	0.75	control-reward	StartDisplay				
36	387.074		control-reward	ImageDisplay2		0.0		
36	390.334	1.6	control-reward	ChoiceDisplay	1	0.79	1	1
36	391.136	0.81	control-reward	ChosenDisplay		0.0		
36	391.939	0.25	control-reward	TurnDisplay				
36	392.192	0.75	control-reward	OutcomeDisplay				
37	392.942		win-noreward	ImageDisplay1		0.0		
37	394.931	0.75	win-noreward	StartDisplay				
37	395.683		win-noreward	ImageDisplay2		0.0		
37	398.943	1.6	win-noreward	ChoiceDisplay	1	0.904	1	1
37	399.863	0.696	win-noreward	ChosenDisplay		0.0		
37	400.548	0.25	win-noreward	TurnDisplay				
37	400.799	0.75	win-noreward	OutcomeDisplay				
38	401.551		loss-noreward	ImageDisplay1		0.0		
38	403.791	0.75	loss-noreward	StartDisplay				
38	404.543		loss-noreward	ImageDisplay2		0.0		
38	407.552	1.6	loss-noreward	ChoiceDisplay	1	0.66	1	1
38	408.238	0.94	loss-noreward	ChosenDisplay		0.0		
38	409.157	0.25	loss-noreward	TurnDisplay				
38	409.408	0.75	loss-noreward	OutcomeDisplay				
39	410.16		control-noreward	ImageDisplay1		0.0		
39	412.149	0.75	control-noreward	StartDisplay				
39	412.902		control-noreward	ImageDisplay2		0.0		
39	416.161	1.6	control-noreward	ChoiceDisplay	1	0.661	1	1
39	416.847	0.939	control-noreward	ChosenDisplay		0.0		
39	417.766	0.25	control-noreward	TurnDisplay				
39	418.017	0.75	control-noreward	OutcomeDisplay				
40	418.769		win-reward	ImageDisplay1		0.0		
40	420.758	0.75	win-reward	StartDisplay				
40	421.511		win-reward	ImageDisplay2		0.0		
40	424.77	1.6	win-reward	ChoiceDisplay	1	0.595	1	1
40	425.389	1.005	win-reward	ChosenDisplay		0.0		
40	426.375	0.25	win-reward	TurnDisplay				
40	426.626	0.75	win-reward	OutcomeDisplay				
41	427.378		loss-noreward	ImageDisplay1		0.0		
41	429.618	0.75	loss-noreward	StartDisplay				
41	430.37		loss-noreward	ImageDisplay2		0.0		
41	433.379	1.6	loss-noreward	ChoiceDisplay	1	0.744	1	1
41	434.148	0.856	loss-noreward	ChosenDisplay		0.0		
41	434.984	0.25	loss-noreward	TurnDisplay				
41	435.235	0.75	loss-noreward	OutcomeDisplay				
42	435.987		win-noreward	ImageDisplay1		0.0		
42	437.977	0.75	win-noreward	StartDisplay				
42	438.729		win-noreward	ImageDisplay2		0.0		
42	441.989	1.6	win-noreward	ChoiceDisplay	1	0.573	1	1
42	442.574	1.027	win-noreward	ChosenDisplay		0.0		
42	443.593	0.25	win-noreward	TurnDisplay				
42	443.844	0.75	win-noreward	OutcomeDisplay				
43	444.596		loss-reward	ImageDisplay1		0.0		
43	446.586	0.75	loss-reward	StartDisplay				
43	447.338		loss-reward	ImageDisplay2		0.0		
43	450.598	1.6	loss-reward	ChoiceDisplay	1	0.671	1	1
43	451.283	0.929	loss-reward	ChosenDisplay		0.0		
43	452.202	0.25	loss-reward	TurnDisplay				
43	452.453	0.75	loss-reward	OutcomeDisplay				
44	453.205		control-noreward	ImageDisplay1		0.0		
44	455.195	0.75	control-noreward	StartDisplay				
44	455.947		control-noreward	ImageDisplay2		0.0		
44	459.207	1.6	control-noreward	ChoiceDisplay	1	0.692	1	1
44	459.926	0.908	control-noreward	ChosenDisplay		0.0		
44	460.811	0.25	control-noreward	TurnDisplay				
44	461.062	0.75	control-noreward	OutcomeDisplay				
45	461.814		control-reward	ImageDisplay1		0.0		
45	463.804	0.75	control-reward	StartDisplay				
45	464.556		control-reward	ImageDisplay2		0.0		
45	467.816	1.6	control-reward	ChoiceDisplay	1	0.488	1	1
45	468.317	1.112	control-reward	ChosenDisplay		0.0		
45	469.421	0.25	control-reward	TurnDisplay				
45	469.671	0.75	control-reward	OutcomeDisplay				
46	470.424		control-noreward	ImageDisplay1		0.0		
46	472.413	0.75	control-noreward	StartDisplay				
46	473.165		control-noreward	ImageDisplay2		0.0		
46	476.425	1.6	control-noreward	ChoiceDisplay	1	0.705	1	1
46	477.144	0.895	control-noreward	ChosenDisplay		0.0		
46	478.03	0.25	control-noreward	TurnDisplay				
46	478.28	0.75	control-noreward	OutcomeDisplay				
47	479.033		loss-noreward	ImageDisplay1		0.0		
47	481.273	0.75	loss-noreward	StartDisplay				
47	482.025		loss-noreward	ImageDisplay2		0.0		
47	485.034	1.6	loss-noreward	ChoiceDisplay	1	0.538	1	1
47	485.586	1.062	loss-noreward	ChosenDisplay		0.0		
47	486.639	0.25	loss-noreward	TurnDisplay				
47	486.889	0.75	loss-noreward	OutcomeDisplay				
48	487.642		control-noreward	ImageDisplay1		0.0		
48	489.631	0.75	control-noreward	StartDisplay				
48	490.383		control-noreward	ImageDisplay2		0.0		
48	493.643	1.6	control-noreward	ChoiceDisplay	1	0.817	1	1
48	494.479	0.783	control-noreward	ChosenDisplay		0.0		
48	495.248	0.25	control-noreward	TurnDisplay				
48	495.499	0.75	control-noreward	OutcomeDisplay				
49	496.251		loss-reward	ImageDisplay1		0.0		
49	498.24	0.75	loss-reward	StartDisplay				
49	498.992		loss-reward	ImageDisplay2		0.0		
49	502.252	1.6	loss-reward	ChoiceDisplay	1	0.868	1	1
49	503.138	0.732	loss-reward	ChosenDisplay		0.0		
49	503.857	0.25	loss-reward	TurnDisplay				
49	504.108	0.75	loss-reward	OutcomeDisplay				
50	504.86		control-reward	ImageDisplay1		0.0		
50	507.1	0.75	control-reward	StartDisplay				
50	507.852		control-reward	ImageDisplay2		0.0		
50	510.861	1.6	control-reward	ChoiceDisplay	1	0.864	1	1
50	511.747	0.736	control-reward	ChosenDisplay		0.0		
50	512.466	0.25	control-reward	TurnDisplay				
50	512.717	0.75	control-reward	OutcomeDisplay				
51	513.469		control-reward	ImageDisplay1		0.0		
51	515.709	0.75	control-reward	StartDisplay				
51	516.461		control-reward	ImageDisplay2		0.0		
51	519.47	1.6	control-reward	ChoiceDisplay	1	1.009	1	1
51	520.49	0.591	control-reward	ChosenDisplay		0.0		
51	521.075	0.25	control-reward	TurnDisplay				
51	521.326	0.75	control-reward	OutcomeDisplay				
52	522.078		loss-reward	ImageDisplay1		0.0		
52	524.318	0.75	loss-reward	StartDisplay				
52	525.07		loss-reward	ImageDisplay2		0.0		
52	528.079	1.6	loss-reward	ChoiceDisplay	1	0.649	1	1
52	528.748	0.951	loss-reward	ChosenDisplay		0.0		
52	529.684	0.25	loss-reward	TurnDisplay				
52	529.935	0.75	loss-reward	OutcomeDisplay				
53	530.687		win-noreward	ImageDisplay1		0.0		
53	532.927	0.75	win-noreward	StartDisplay				
53	533.679		win-noreward	ImageDisplay2		0.0		
53	536.688	1.6	win-noreward	ChoiceDisplay	1	0.75	1	1
53	537.457	0.85	win-noreward	ChosenDisplay		0.0		
53	538.293	0.25	win-noreward	TurnDisplay				
53	538.544	0.75	win-noreward	OutcomeDisplay				
54	539.296		loss-reward	ImageDisplay1		0.0		
54	541.536	0.75	loss-reward	StartDisplay				
54	542.288		loss-reward	ImageDisplay2		0.0		
54	545.297	1.6	loss-reward	ChoiceDisplay	1	0.871	1	1
54	546.183	0.729	loss-reward	ChosenDisplay		0.0		
54	546.902	0.25	loss-reward	TurnDisplay				
54	547.153	0.75	loss-reward	OutcomeDisplay				
55	547.905		loss-reward	ImageDisplay1		0.0		
55	550.145	0.75	loss-reward	StartDisplay				
55	550.897		loss-reward	ImageDisplay2		0.0		
55	553.906	1.6	loss-reward	ChoiceDisplay	1	0.559	1	1
55	554.492	1.041	loss-reward	ChosenDisplay		0.0		
55	555.511	0.25	loss-reward	TurnDisplay				
55	555.762	0.75	loss-reward	OutcomeDisplay				
56	556.514		loss-reward	ImageDisplay1		0.0		
56	558.504	0.75	loss-reward	StartDisplay				
56	559.256		loss-reward	ImageDisplay2		0.0		
56	562.516	1.6	loss-reward	ChoiceDisplay	1	0.551	1	1
56	563.084	1.049	loss-reward	ChosenDisplay		0.0		
56	564.12	0.25	loss-reward	TurnDisplay				
56	564.371	0.75	loss-reward	OutcomeDisplay				
57	565.123		win-reward	ImageDisplay1		0.0		
57	567.113	0.75	win-reward	StartDisplay				
57	567.865		win-reward	ImageDisplay2		0.0		
57	571.125	1.6	win-reward	ChoiceDisplay	1	0.8	1	1
57	571.944	0.8	win-reward	ChosenDisplay		0.0		
57	572.729	0.25	win-reward	TurnDisplay				
57	572.98	0.75	win-reward	OutcomeDisplay				
58	573.732		win-reward	ImageDisplay1		0.0		
58	575.722	0.75	win-reward	StartDisplay				
58	576.474		win-reward	ImageDisplay2		0.0		
58	579.734	1.6	win-reward	ChoiceDisplay	1	0.902	1	1
58	580.653	0.698	win-reward	ChosenDisplay		0.0		
58	581.338	0.25	win-reward	TurnDisplay				
58	581.589	0.75	win-reward	OutcomeDisplay				
59	582.341		win-reward	ImageDisplay1		0.0		
59	584.582	0.75	win-reward	StartDisplay				
59	585.334		win-reward	ImageDisplay2		0.0		
59	588.343	1.6	win-reward	ChoiceDisplay	1	0.674	1	1
59	589.028	0.926	win-reward	ChosenDisplay		0.0		
59	589.948	0.25	win-reward	TurnDisplay				
59	590.198	0.75	win-reward	OutcomeDisplay				
60	590.951		win-reward	ImageDisplay1		0.0		
60	592.94	0.75	win-reward	StartDisplay				
60	593.692		win-reward	ImageDisplay2		0.0		
60	596.952	1.6	win-reward	ChoiceDisplay	1	0.447	1	1
60	597.42	1.153	win-reward	ChosenDisplay		0.0		
60	598.557	0.25	win-reward	TurnDisplay				
60	598.807	0.75	win-reward	OutcomeDisplay				
61	599.56		loss-reward	ImageDisplay1		0.0		
61	601.8	0.75	loss-reward	StartDisplay				
61	602.552		loss-reward	ImageDisplay2		0.0		
61	605.561	1.6	loss-reward	ChoiceDisplay	1	0.691	1	1
61	606.263	0.909	loss-reward	ChosenDisplay		0.0		
61	607.166	0.25	loss-reward	TurnDisplay				
61	607.416	0.75	loss-reward	OutcomeDisplay				
62	608.169		win-reward	ImageDisplay1		0.0		
62	610.158	0.75	win-reward	StartDisplay				
62	610.91		win-reward	ImageDisplay2		0.0		
62	614.17	1.6	win-reward	ChoiceDisplay		0.0		
62	615.758	0.0	win-reward	ChosenDisplay		0.0		
62	615.775	0.25	win-reward	TurnDisplay				
62	616.009	0.75	win-reward	OutcomeDisplay				
63	616.761		loss-noreward	ImageDisplay1		0.0		
63	618.767	0.75	loss-noreward	StartDisplay				
63	619.519		loss-noreward	ImageDisplay2		0.0		
63	622.762	1.6	loss-noreward	ChoiceDisplay	1	0.902	1	1
63	623.682	0.698	loss-noreward	ChosenDisplay		0.0		
63	624.367	0.25	loss-noreward	TurnDisplay				
63	624.618	0.75	loss-noreward	OutcomeDisplay				
64	625.37		loss-reward	ImageDisplay1		0.0		
64	627.359	0.75	loss-reward	StartDisplay				
64	628.112		loss-reward	ImageDisplay2		0.0		
64	631.371	1.6	loss-reward	ChoiceDisplay	1	0.676	1	1
64	632.074	0.924	loss-reward	ChosenDisplay		0.0		
64	632.976	0.25	loss-reward	TurnDisplay				
64	633.227	0.75	loss-reward	OutcomeDisplay				
65	633.979		loss-noreward	ImageDisplay1		0.0		
65	635.969	0.75	loss-noreward	StartDisplay				
65	636.721		loss-noreward	ImageDisplay2		0.0		
65	639.98	1.6	loss-noreward	ChoiceDisplay	1	0.732	1	1
65	640.733	0.868	loss-noreward	ChosenDisplay		0.0		
65	641.585	0.25	loss-noreward	TurnDisplay				
65	641.836	0.75	loss-noreward	OutcomeDisplay				
66	642.588		control-reward	ImageDisplay1		0.0		
66	644.578	0.75	control-reward	StartDisplay				
66	645.33		control-reward	ImageDisplay2		0.0		
66	648.59	1.6	control-reward	ChoiceDisplay	1	0.67	1	1
66	649.275	0.93	control-reward	ChosenDisplay		0.0		
66	650.194	0.25	control-reward	TurnDisplay				
66	650.445	0.75	control-reward	OutcomeDisplay				
67	651.197		control-noreward	ImageDisplay1		0.0		
67	653.437	0.75	control-noreward	StartDisplay				
67	654.19		control-noreward	ImageDisplay2		0.0		
67	657.199	1.6	control-noreward	ChoiceDisplay	1	0.803	1	1
67	658.018	0.797	control-noreward	ChosenDisplay		0.0		
67	658.803	0.25	control-noreward	TurnDisplay				
67	659.054	0.75	control-noreward	OutcomeDisplay				
68	659.806		win-reward	ImageDisplay1		0.0		
68	662.046	0.75	win-reward	StartDisplay				
68	662.799		win-reward	ImageDisplay2		0.0		
68	665.808	1.6	win-reward	ChoiceDisplay	1	0.804	1	1
68	666.627	0.796	win-reward	ChosenDisplay		0.0		
68	667.413	0.25	win-reward	TurnDisplay				
68	667.663	0.75	win-reward	OutcomeDisplay				
69	668.416		win-reward	ImageDisplay1		0.0		
69	670.656	0.75	win-reward	StartDisplay				
69	671.408		win-reward	ImageDisplay2		0.0		
69	674.417	1.6	win-reward	ChoiceDisplay	1	0.847	1	1
69	675.286	0.753	win-reward	ChosenDisplay		0.0		
69	676.022	0.25	win-reward	TurnDisplay				
69	676.272	0.75	win-reward	OutcomeDisplay				
70	677.025		control-noreward	ImageDisplay1		0.0		
70	679.265	0.75	control-noreward	StartDisplay				
70	680.017		control-noreward	ImageDisplay2		0.0		
70	683.026	1.6	control-noreward	ChoiceDisplay	1	1.256	1	1
70	684.296	0.344	control-noreward	ChosenDisplay		0.0		
70	684.631	0.25	control-noreward	TurnDisplay				
70	684.881	0.75	control-noreward	OutcomeDisplay				
71	685.634		win-reward	ImageDisplay1		0.0		
71	687.874	0.75	win-reward	StartDisplay				
71	688.626		win-reward	ImageDisplay2		0.0		
71	691.635	1.6	win-reward	ChoiceDisplay	1	1.003	1	1
71	692.655	0.597	win-reward	ChosenDisplay		0.0		
71	693.24	0.25	win-reward	TurnDisplay				
71	693.49	0.75	win-reward	OutcomeDisplay				
72	694.243		loss-reward	ImageDisplay1		0.0		
72	696.232	0.75	loss-reward	StartDisplay				
72	696.984		loss-reward	ImageDisplay2		0.0		
72	700.244	1.6	loss-reward	ChoiceDisplay	1	1.242	1	1
72	701.498	0.358	loss-reward	ChosenDisplay		0.0		
72	701.849	0.25	loss-reward	TurnDisplay				
72	702.1	0.75	loss-reward	OutcomeDisplay				
73	702.852		win-noreward	ImageDisplay1		0.0		
73	705.092	0.75	win-noreward	StartDisplay				
73	705.844		win-noreward	ImageDisplay2		0.0		
73	708.853	1.6	win-noreward	ChoiceDisplay	1	0.89	1	1
73	709.756	0.71	win-noreward	ChosenDisplay		0.0		
73	710.458	0.25	win-noreward	TurnDisplay				
73	710.709	0.75	win-noreward	OutcomeDisplay				
74	711.461		win-reward	ImageDisplay1		0.0		
74	713.45	0.75	win-reward	StartDisplay				
74	714.202		win-reward	ImageDisplay2		0.0		
74	717.462	1.6	win-reward	ChoiceDisplay	1	0.645	1	1
74	718.131	0.955	win-reward	ChosenDisplay		0.0		
74	719.067	0.25	win-reward	TurnDisplay				
74	719.318	0.75	win-reward	OutcomeDisplay				
75	720.07		win-reward	ImageDisplay1		0.0		
75	722.059	0.75	win-reward	StartDisplay				
75	722.811		win-reward	ImageDisplay2		0.0		
75	726.071	1.6	win-reward	ChoiceDisplay	1	0.851	1	1
75	726.941	0.749	win-reward	ChosenDisplay		0.0		
75	727.676	0.25	win-reward	TurnDisplay				
75	727.927	0.75	win-reward	OutcomeDisplay				
76	728.679		loss-noreward	ImageDisplay1		0.0		
76	730.919	0.75	loss-noreward	StartDisplay				
76	731.671		loss-noreward	ImageDisplay2		0.0		
76	734.68	1.6	loss-noreward	ChoiceDisplay	1	0.956	1	1
76	735.65	0.644	loss-noreward	ChosenDisplay		0.0		
76	736.285	0.25	loss-noreward	TurnDisplay				
76	736.536	0.75	loss-noreward	OutcomeDisplay				
77	737.288		control-reward	ImageDisplay1		0.0		
77	739.277	0.75	control-reward	StartDisplay				
77	740.03		control-reward	ImageDisplay2		0.0		
77	743.289	1.6	control-reward	ChoiceDisplay	1	0.673	1	1
77	743.975	0.927	control-reward	ChosenDisplay		0.0		
77	744.894	0.25	control-reward	TurnDisplay				
77	745.145	0.75	control-reward	OutcomeDisplay				
78	745.897		win-noreward	ImageDisplay1		0.0		
78	747.886	0.75	win-noreward	StartDisplay				
78	748.639		win-noreward	ImageDisplay2		0.0		
78	751.898	1.6	win-noreward	ChoiceDisplay	1	1.101	1	1
78	753.018	0.499	win-noreward	ChosenDisplay		0.0		
78	753.503	0.25	win-noreward	TurnDisplay				
78	753.754	0.75	win-noreward	OutcomeDisplay				
79	754.506		loss-reward	ImageDisplay1		0.0		
79	756.496	0.75	loss-reward	StartDisplay				
79	757.248		loss-reward	ImageDisplay2		0.0		
79	760.508	1.6	loss-reward	ChoiceDisplay	1	0.843	1	1
79	761.377	0.757	loss-reward	ChosenDisplay		0.0		
79	762.112	0.25	loss-reward	TurnDisplay				
79	762.363	0.75	loss-reward	OutcomeDisplay				
80	763.115		loss-reward	ImageDisplay1		0.0		
80	765.105	0.75	loss-reward	StartDisplay				
80	765.857		loss-reward	ImageDisplay2		0.0		
80	769.117	1.6	loss-reward	ChoiceDisplay	1	0.791	1	1
80	769.919	0.809	loss-reward	ChosenDisplay		0.0		
80	770.721	0.25	loss-reward	TurnDisplay				
80	770.972	0.75	loss-reward	OutcomeDisplay				
81	771.724		win-noreward	ImageDisplay1		0.0		
81	773.714	0.75	win-noreward	StartDisplay				
81	774.466		win-noreward	ImageDisplay2		0.0		
81	777.726	1.6	win-noreward	ChoiceDisplay	1	0.816	1	1
81	778.562	0.784	win-noreward	ChosenDisplay		0.0		
81	779.33	0.25	win-noreward	TurnDisplay				
81	779.581	0.75	win-noreward	OutcomeDisplay				
82	780.333		loss-reward	ImageDisplay1		0.0		
82	782.323	0.75	loss-reward	StartDisplay				
82	783.075		loss-reward	ImageDisplay2		0.0		
82	786.335	1.6	loss-reward	ChoiceDisplay	1	0.852	1	1
82	787.204	0.748	loss-reward	ChosenDisplay		0.0		
82	787.94	0.25	loss-reward	TurnDisplay				
82	788.19	0.75	loss-reward	OutcomeDisplay				
83	788.943		control-noreward	ImageDisplay1		0.0		
83	791.183	0.75	control-noreward	StartDisplay				
83	791.935		control-noreward	ImageDisplay2		0.0		
83	794.944	1.6	control-noreward	ChoiceDisplay	1	0.389	1	1
83	795.345	1.211	control-noreward	ChosenDisplay		0.0		
83	796.549	0.25	control-noreward	TurnDisplay				
83	796.799	0.75	control-noreward	OutcomeDisplay				
84	797.552		control-noreward	ImageDisplay1		0.0		
84	799.541	0.75	control-noreward	StartDisplay				
84	800.293		control-noreward	ImageDisplay2		0.0		
84	803.553	1.6	control-noreward	ChoiceDisplay	1	0.859	1	1
84	804.439	0.741	control-noreward	ChosenDisplay		0.0		
84	805.158	0.25	control-noreward	TurnDisplay				
84	805.408	0.75	control-noreward	OutcomeDisplay				
85	806.161		loss-noreward	ImageDisplay1		0.0		
85	808.401	0.75	loss-noreward	StartDisplay				
85	809.153		loss-noreward	ImageDisplay2		0.0		
85	812.162	1.6	loss-noreward	ChoiceDisplay	1	0.616	1	1
85	812.797	0.984	loss-noreward	ChosenDisplay		0.0		
85	813.767	0.25	loss-noreward	TurnDisplay				
85	814.018	0.75	loss-noreward	OutcomeDisplay				
86	814.77		win-noreward	ImageDisplay1		0.0		
86	817.01	0.75	win-noreward	StartDisplay				
86	817.762		win-noreward	ImageDisplay2		0.0		
86	820.771	1.6	win-noreward	ChoiceDisplay	1	0.738	1	1
86	821.523	0.862	win-noreward	ChosenDisplay		0.0		
86	822.376	0.25	win-noreward	TurnDisplay				
86	822.627	0.75	win-noreward	OutcomeDisplay				
87	823.379		control-reward	ImageDisplay1		0.0		
87	825.619	0.75	control-reward	StartDisplay				
87	826.371		control-reward	ImageDisplay2		0.0		
87	829.38	1.6	control-reward	ChoiceDisplay	1	0.808	1	1
87	830.199	0.792	control-reward	ChosenDisplay		0.0		
87	830.985	0.25	control-reward	TurnDisplay				
87	831.236	0.75	control-reward	OutcomeDisplay				
88	831.988		loss-reward	ImageDisplay1		0.0		
88	833.977	0.75	loss-reward	StartDisplay				
88	834.729		loss-reward	ImageDisplay2		0.0		
88	837.989	1.6	loss-reward	ChoiceDisplay	1	0.92	1	1
88	838.925	0.68	loss-reward	ChosenDisplay		0.0		
88	839.594	0.25	loss-reward	TurnDisplay				
88	839.845	0.75	loss-reward	OutcomeDisplay				
89	840.597		control-noreward	ImageDisplay1		0.0		
89	842.586	0.75	control-noreward	StartDisplay				
89	843.339		control-noreward	ImageDisplay2		0.0		
89	846.598	1.6	control-noreward	ChoiceDisplay	1	0.55	1	1
89	847.167	1.05	control-noreward	ChosenDisplay		0.0		
89	848.203	0.25	control-noreward	TurnDisplay				
89	848.454	0.75	control-noreward	OutcomeDisplay				
90	849.206		loss-noreward	ImageDisplay1		0.0		
90	851.195	0.75	loss-noreward	StartDisplay				
90	851.948		loss-noreward	ImageDisplay2		0.0		
90	855.207	1.6	loss-noreward	ChoiceDisplay	1	1.084	1	1
90	856.311	0.516	loss-noreward	ChosenDisplay		0.0		
90	856.812	0.25	loss-noreward	TurnDisplay				
90	857.063	0.75	loss-noreward	OutcomeDisplay				
91	857.815		loss-noreward	ImageDisplay1		0.0		
91	860.055	0.75	loss-noreward	StartDisplay				
91	860.807		loss-noreward	ImageDisplay2		0.0		
91	863.816	1.6	loss-noreward	ChoiceDisplay	1	0.547	1	1
91	864.385	1.053	loss-noreward	ChosenDisplay		0.0		
91	865.421	0.25	loss-noreward	TurnDisplay				
91	865.672	0.75	loss-noreward	OutcomeDisplay				
92	866.424		control-noreward	ImageDisplay1		0.0		
92	868.664	0.75	control-noreward	StartDisplay				
92	869.416		control-noreward	ImageDisplay2		0.0		
92	872.426	1.6	control-noreward	ChoiceDisplay	1	0.58	1	1
92	873.027	1.02	control-noreward	ChosenDisplay		0.0		
92	874.03	0.25	control-noreward	TurnDisplay				
92	874.281	0.75	control-noreward	OutcomeDisplay				
93	875.033		loss-reward	ImageDisplay1		0.0		
93	877.273	0.75	loss-reward	StartDisplay				
93	878.026		loss-reward	ImageDisplay2		0.0		
93	881.035	1.6	loss-reward	ChoiceDisplay	1	0.646	1	1
93	881.703	0.954	loss-reward	ChosenDisplay		0.0		
93	882.639	0.25	loss-reward	TurnDisplay				
93	882.89	0.75	loss-reward	OutcomeDisplay				
94	883.642		control-noreward	ImageDisplay1		0.0		
94	885.632	0.75	control-noreward	StartDisplay				
94	886.384		control-noreward	ImageDisplay2		0.0		
94	889.644	1.6	control-noreward	ChoiceDisplay	1	0.783	1	1
94	890.446	0.817	control-noreward	ChosenDisplay		0.0		
94	891.248	0.25	control-noreward	TurnDisplay				
94	891.499	0.75	control-noreward	OutcomeDisplay				
95	892.251		win-noreward	ImageDisplay1		0.0		
95	894.241	0.75	win-noreward	StartDisplay				
95	894.993		win-noreward	ImageDisplay2		0.0		
95	898.253	1.6	win-noreward	ChoiceDisplay	1	0.901	1	1
95	899.172	0.699	win-noreward	ChosenDisplay		0.0		
95	899.858	0.25	win-noreward	TurnDisplay				
95	900.108	0.75	win-noreward	OutcomeDisplay				
