onset	duration	trial_type	response_time	stim_file	accuracy
94.692	1.0	go	0.0	Go_O	0.0
97.216	1.0	go	0.672	Go_X	1.0
99.741	1.0	go	0.532	Go_X	1.0
102.265	1.0	go	0.523	Go_O	1.0
104.789	1.0	go	0.669	Go_X	1.0
107.313	1.0	go	0.489	Go_O	1.0
109.837	0.25	stopsuccess	0.0	Go_O	1.0
112.362	1.0	go	0.54	Go_X	1.0
114.886	0.3	stopsuccess	0.0	Go_X	1.0
117.41	1.0	go	0.524	Go_O	1.0
119.934	1.0	go	0.634	Go_X	1.0
122.458	1.0	go	0.65	Go_O	1.0
124.983	0.35	stopsuccess	0.0	Go_O	1.0
127.507	1.0	go	0.476	Go_X	1.0
130.031	1.0	go	0.501	Go_O	1.0
132.555	0.4	stopfail	0.405	Go_X	0.0
135.08	0.35	stopsuccess	0.0	Go_O	1.0
137.604	1.0	go	0.68	Go_O	1.0
140.128	1.0	go	0.64	Go_X	1.0
142.652	0.4	stopfail	0.472	Go_X	0.0
145.176	1.0	go	0.689	Go_O	1.0
147.701	1.0	go	0.571	Go_X	1.0
150.225	0.35	stopsuccess	0.0	Go_O	1.0
152.749	1.0	go	0.746	Go_X	1.0
155.273	1.0	go	0.922	Go_O	1.0
157.797	0.4	stopfail	0.547	Go_X	0.0
160.322	1.0	go	0.519	Go_X	1.0
162.846	1.0	go	0.495	Go_O	1.0
165.37	0.35	stopsuccess	0.0	Go_O	1.0
167.894	1.0	go	0.807	Go_X	1.0
170.419	1.0	go	0.814	Go_O	1.0
172.943	1.0	go	0.506	Go_X	1.0
175.467	1.0	go	0.692	Go_O	1.0
177.991	1.0	go	0.765	Go_X	1.0
180.515	0.4	stopsuccess	0.0	Go_X	1.0
183.04	1.0	go	0.0	Go_O	0.0
185.564	1.0	go	0.539	Go_O	1.0
188.088	1.0	go	0.685	Go_X	1.0
190.612	1.0	go	0.0	Go_X	0.0
193.136	1.0	go	0.464	Go_O	1.0
195.661	0.45	stopsuccess	0.0	Go_O	1.0
198.185	1.0	go	0.624	Go_O	0.0
200.709	1.0	go	0.68	Go_X	1.0
203.233	1.0	go	0.574	Go_X	1.0
205.758	1.0	go	0.485	Go_O	1.0
208.282	1.0	go	0.546	Go_X	1.0
210.806	1.0	go	0.998	Go_O	1.0
213.33	0.5	stopfail	0.516	Go_X	0.0
215.854	1.0	go	0.598	Go_X	1.0
218.379	1.0	go	0.452	Go_O	1.0
220.903	0.45	stopfail	0.654	Go_O	0.0
223.427	1.0	go	0.633	Go_X	1.0
225.951	0.4	stopsuccess	0.0	Go_X	1.0
228.475	0.45	stopfail	0.624	Go_O	0.0
231.0	1.0	go	0.523	Go_O	1.0
233.524	1.0	go	0.581	Go_O	1.0
236.048	1.0	go	0.582	Go_X	1.0
238.572	1.0	go	0.787	Go_X	0.0
241.097	0.4	stopfail	0.517	Go_X	0.0
243.621	1.0	go	0.653	Go_O	1.0
246.145	0.35	stopsuccess	0.0	Go_O	1.0
248.669	1.0	go	0.808	Go_X	1.0
251.193	1.0	go	0.357	Go_O	1.0
253.718	1.0	go	0.486	Go_O	1.0
256.242	1.0	go	0.472	Go_X	1.0
258.766	1.0	go	0.594	Go_O	1.0
261.29	1.0	go	0.801	Go_X	1.0
263.814	1.0	go	0.349	Go_O	1.0
266.339	1.0	go	0.601	Go_X	1.0
268.863	1.0	go	0.58	Go_O	1.0
271.387	0.4	stopsuccess	0.0	Go_X	1.0
273.911	1.0	go	0.624	Go_X	1.0
276.435	1.0	go	0.567	Go_O	1.0
278.96	1.0	go	0.673	Go_X	1.0
281.484	0.45	stopfail	0.457	Go_O	0.0
284.008	1.0	go	0.879	Go_X	1.0
286.532	1.0	go	0.993	Go_O	1.0
289.057	1.0	go	0.515	Go_O	1.0
291.581	1.0	go	0.48	Go_X	1.0
294.105	1.0	go	0.59	Go_X	0.0
296.629	1.0	go	0.483	Go_O	1.0
299.153	0.4	stopfail	0.596	Go_X	0.0
301.678	1.0	go	0.671	Go_X	1.0
304.202	1.0	go	0.652	Go_O	1.0
306.726	0.35	stopfail	0.475	Go_O	0.0
309.25	1.0	go	0.549	Go_X	1.0
311.775	1.0	go	0.566	Go_O	1.0
314.299	0.3	stopsuccess	0.0	Go_X	1.0
316.823	1.0	go	0.612	Go_X	1.0
319.347	0.35	stopsuccess	0.0	Go_O	1.0
321.871	1.0	go	0.696	Go_O	1.0
324.396	1.0	go	0.759	Go_O	1.0
326.92	1.0	go	0.639	Go_X	1.0
329.444	1.0	go	0.398	Go_X	1.0
331.968	1.0	go	0.47	Go_O	1.0
334.492	0.4	stopsuccess	0.0	Go_X	1.0
337.017	0.45	stopfail	0.662	Go_O	0.0
339.541	1.0	go	0.733	Go_X	1.0
342.065	1.0	go	0.736	Go_O	1.0
344.589	0.4	stopsuccess	0.0	Go_X	1.0
347.114	1.0	go	0.0	Go_O	0.0
349.638	1.0	go	0.571	Go_X	1.0
352.162	1.0	go	0.631	Go_O	1.0
354.686	1.0	go	0.593	Go_X	1.0
357.21	1.0	go	0.518	Go_X	1.0
359.735	1.0	go	0.543	Go_O	1.0
362.259	0.45	stopfail	0.446	Go_O	0.0
364.783	1.0	go	0.711	Go_O	1.0
367.307	1.0	go	0.68	Go_X	1.0
369.831	1.0	go	0.602	Go_O	1.0
372.356	1.0	go	0.647	Go_X	1.0
374.88	1.0	go	0.756	Go_O	1.0
377.404	0.4	stopsuccess	0.0	Go_X	1.0
379.928	1.0	go	0.624	Go_X	0.0
382.452	1.0	go	0.43	Go_X	1.0
384.977	1.0	go	0.445	Go_O	1.0
387.501	1.0	go	0.657	Go_X	1.0
390.025	0.45	stopsuccess	0.0	Go_O	1.0
392.549	1.0	go	0.483	Go_O	1.0
395.074	1.0	go	0.787	Go_O	1.0
397.598	0.5	stopsuccess	0.0	Go_X	1.0
400.122	1.0	go	0.623	Go_X	1.0
402.646	0.55	stopsuccess	0.0	Go_O	1.0
405.17	1.0	go	0.977	Go_O	1.0
407.695	1.0	go	0.467	Go_X	1.0
410.219	1.0	go	0.545	Go_X	1.0
412.743	1.0	go	0.634	Go_O	1.0
415.267	1.0	go	0.0	Go_X	0.0
417.791	1.0	go	0.504	Go_O	1.0
420.316	1.0	go	0.681	Go_O	1.0
422.84	0.6	stopsuccess	0.0	Go_X	1.0
425.364	1.0	go	0.614	Go_X	1.0
427.888	1.0	go	0.64	Go_O	1.0
430.413	1.0	go	0.568	Go_X	1.0
432.937	0.65	stopfail	0.621	Go_O	0.0
435.461	1.0	go	0.552	Go_X	1.0
437.985	1.0	go	0.69	Go_O	1.0
440.509	1.0	go	0.577	Go_X	1.0
443.034	1.0	go	0.646	Go_O	1.0
445.558	0.6	stopfail	0.485	Go_X	0.0
448.082	1.0	go	0.554	Go_X	1.0
450.606	1.0	go	0.507	Go_O	1.0
453.13	0.55	stopfail	0.503	Go_O	0.0
455.655	1.0	go	0.488	Go_O	1.0
458.179	1.0	go	0.562	Go_X	1.0
460.703	0.5	stopsuccess	0.0	Go_X	1.0
463.227	1.0	go	0.49	Go_O	1.0
465.752	1.0	go	0.702	Go_X	1.0
468.276	0.55	stopsuccess	0.0	Go_O	1.0
470.8	1.0	go	0.839	Go_X	0.0
473.324	1.0	go	0.473	Go_O	1.0
475.848	1.0	go	0.671	Go_X	1.0
478.373	1.0	go	0.739	Go_O	1.0
480.897	1.0	go	0.659	Go_O	1.0
483.421	1.0	go	0.597	Go_X	1.0
485.945	0.6	stopfail	0.687	Go_X	0.0
488.469	1.0	go	0.624	Go_X	1.0
490.994	0.55	stopfail	0.477	Go_O	0.0
493.518	1.0	go	0.781	Go_O	1.0
496.042	1.0	go	0.659	Go_O	1.0
498.566	1.0	go	0.789	Go_X	1.0
501.091	1.0	go	0.439	Go_X	1.0
503.615	1.0	go	0.533	Go_O	1.0
506.139	0.5	stopsuccess	0.0	Go_X	1.0
508.663	1.0	go	0.51	Go_X	1.0
511.187	1.0	go	0.622	Go_O	1.0
513.712	1.0	go	0.607	Go_O	1.0
516.236	0.55	stopfail	0.655	Go_O	0.0
518.76	0.5	stopfail	0.609	Go_X	0.0
521.284	0.45	stopfail	0.612	Go_O	0.0
523.808	1.0	go	0.0	Go_X	0.0
526.333	0.4	stopsuccess	0.0	Go_X	1.0
528.857	1.0	go	0.781	Go_X	1.0
531.381	1.0	go	0.487	Go_O	1.0
533.905	1.0	go	0.667	Go_O	1.0
536.43	1.0	go	0.508	Go_X	1.0
538.954	1.0	go	0.573	Go_O	1.0
541.478	1.0	go	0.565	Go_X	1.0
544.002	1.0	go	0.798	Go_O	1.0
546.526	1.0	go	0.466	Go_X	1.0
549.051	0.45	stopfail	0.64	Go_O	0.0
551.575	1.0	go	0.483	Go_O	1.0
554.099	1.0	go	0.542	Go_X	1.0
556.623	0.4	stopfail	0.654	Go_X	0.0
559.147	1.0	go	0.432	Go_X	1.0
561.672	1.0	go	0.542	Go_O	1.0
564.196	1.0	go	0.584	Go_X	1.0
566.72	1.0	go	0.556	Go_O	1.0
569.244	1.0	go	0.474	Go_X	1.0
571.769	0.35	stopsuccess	0.0	Go_O	1.0
574.309	1.0	go	0.706	Go_O	0.0
576.834	1.0	go	0.6	Go_O	1.0
579.358	1.0	go	0.802	Go_X	1.0
581.882	0.4	stopsuccess	0.0	Go_X	1.0
584.406	1.0	go	0.325	Go_O	1.0
586.931	0.45	stopfail	0.618	Go_O	0.0
589.455	1.0	go	0.555	Go_X	1.0
591.979	1.0	go	0.473	Go_O	1.0
594.503	1.0	go	0.489	Go_X	1.0
597.027	1.0	go	0.46	Go_X	1.0
599.552	1.0	go	0.517	Go_O	1.0
602.076	1.0	go	0.45	Go_O	1.0
604.6	1.0	go	0.445	Go_X	1.0
607.124	0.4	stopsuccess	0.0	Go_X	1.0
609.648	1.0	go	0.505	Go_X	1.0
612.173	1.0	go	0.446	Go_O	1.0
614.697	1.0	go	0.903	Go_O	1.0
617.221	1.0	go	0.606	Go_X	1.0
619.745	0.45	stopfail	0.628	Go_O	0.0
622.27	1.0	go	0.797	Go_X	1.0
624.794	0.4	stopsuccess	0.0	Go_X	1.0
627.318	1.0	go	0.663	Go_O	1.0
629.842	1.0	go	0.66	Go_O	1.0
632.366	0.45	stopfail	0.676	Go_O	0.0
634.891	1.0	go	0.651	Go_X	1.0
637.415	1.0	go	0.758	Go_O	1.0
639.939	1.0	go	0.632	Go_X	0.0
642.463	1.0	go	0.426	Go_O	1.0
644.987	1.0	go	0.645	Go_X	1.0
647.512	1.0	go	0.491	Go_O	1.0
650.036	1.0	go	0.496	Go_X	1.0
652.56	1.0	go	0.726	Go_O	1.0
655.084	1.0	go	0.649	Go_X	1.0
657.609	1.0	go	0.596	Go_X	1.0
660.133	0.4	stopfail	0.512	Go_X	0.0
662.657	1.0	go	0.572	Go_O	1.0
665.181	1.0	go	0.513	Go_O	1.0
667.705	0.35	stopfail	0.509	Go_O	0.0
670.23	1.0	go	0.533	Go_X	1.0
672.771	0.3	stopsuccess	0.0	Go_X	1.0
675.295	1.0	go	0.77	Go_O	1.0
677.819	1.0	go	0.739	Go_X	1.0
680.343	0.35	stopfail	0.577	Go_O	0.0
682.867	1.0	go	0.392	Go_O	1.0
685.392	0.3	stopsuccess	0.0	Go_X	1.0
687.916	1.0	go	0.794	Go_X	1.0
690.44	1.0	go	0.512	Go_X	1.0
692.964	1.0	go	0.69	Go_O	1.0
695.488	0.35	stopsuccess	0.0	Go_O	1.0
698.013	1.0	go	0.749	Go_O	1.0
700.537	1.0	go	0.741	Go_X	1.0
703.061	1.0	go	0.607	Go_X	1.0
705.585	1.0	go	0.634	Go_O	1.0
708.11	0.4	stopsuccess	0.0	Go_X	1.0
710.634	1.0	go	0.884	Go_O	1.0
713.158	1.0	go	0.463	Go_X	1.0
715.682	0.45	stopfail	0.431	Go_O	0.0
718.206	1.0	go	0.567	Go_X	1.0
720.731	1.0	go	0.531	Go_O	1.0
723.255	1.0	go	0.532	Go_O	1.0
725.779	1.0	go	0.513	Go_X	1.0
728.303	0.4	stopfail	0.537	Go_X	0.0
730.827	1.0	go	0.572	Go_O	1.0
733.352	0.35	stopsuccess	0.0	Go_O	1.0
735.876	1.0	go	0.646	Go_X	1.0
738.4	1.0	go	0.639	Go_X	1.0
740.924	0.4	stopsuccess	0.0	Go_X	1.0
743.448	1.0	go	0.633	Go_O	1.0
745.973	1.0	go	0.765	Go_O	1.0
748.497	1.0	go	0.627	Go_X	1.0
751.021	1.0	go	0.562	Go_O	1.0
753.545	0.45	stopfail	0.545	Go_O	0.0
756.07	1.0	go	0.743	Go_X	1.0
758.594	0.4	stopsuccess	0.0	Go_X	1.0
761.135	1.0	go	0.466	Go_O	1.0
763.659	1.0	go	0.73	Go_X	0.0
766.183	1.0	go	0.621	Go_O	1.0
768.707	1.0	go	0.69	Go_X	1.0
771.234	1.0	go	0.572	Go_O	1.0
773.756	1.0	go	0.489	Go_X	1.0
776.28	0.45	stopfail	0.464	Go_O	0.0
778.804	1.0	go	0.521	Go_O	1.0
781.328	1.0	go	0.55	Go_X	1.0
783.853	0.4	stopfail	0.464	Go_X	0.0
786.377	1.0	go	0.0	Go_O	0.0
788.901	1.0	go	0.619	Go_X	1.0
791.425	0.35	stopsuccess	0.0	Go_O	1.0
793.966	1.0	go	0.875	Go_O	1.0
796.49	1.0	go	0.423	Go_X	1.0
799.015	1.0	go	0.475	Go_X	1.0
801.539	1.0	go	0.475	Go_O	1.0
804.063	0.4	stopsuccess	0.0	Go_X	1.0
806.587	1.0	go	0.493	Go_X	1.0
809.111	0.45	stopfail	0.509	Go_O	0.0
811.636	1.0	go	0.515	Go_O	1.0
814.16	1.0	go	0.354	Go_O	1.0
816.684	1.0	go	0.523	Go_X	1.0
819.208	1.0	go	0.698	Go_X	1.0
821.733	1.0	go	0.573	Go_O	1.0
824.257	0.4	stopsuccess	0.0	Go_X	1.0
826.781	1.0	go	0.522	Go_O	1.0
829.305	1.0	go	0.489	Go_X	1.0
831.829	0.45	stopfail	0.558	Go_O	0.0
834.354	0.4	stopfail	0.446	Go_X	0.0
836.878	1.0	go	0.512	Go_X	1.0
839.402	1.0	go	0.361	Go_O	1.0
841.926	1.0	go	0.58	Go_O	1.0
844.45	1.0	go	0.515	Go_X	1.0
846.975	0.35	stopsuccess	0.0	Go_O	1.0
849.499	1.0	go	0.764	Go_O	1.0
