onset	duration	trial_type	response_time	stim_file	accuracy
276.167	1.0	go	0.0	Go_O	0.0
278.758	1.0	go	0.461	Go_X	1.0
281.282	1.0	go	0.693	Go_X	1.0
283.806	1.0	go	0.45	Go_O	1.0
286.331	1.0	go	0.401	Go_X	1.0
288.855	1.0	go	0.363	Go_O	1.0
291.379	0.25	stop	0.405	Go_O	0.0
293.903	1.0	go	0.405	Go_O	1.0
296.427	0.2	stop	0.0	Go_X	1.0
298.952	1.0	go	0.477	Go_X	1.0
301.476	1.0	go	0.452	Go_X	1.0
304.0	1.0	go	0.387	Go_O	1.0
306.524	0.25	stop	0.0	Go_O	1.0
309.049	1.0	go	0.436	Go_X	1.0
311.573	1.0	go	0.438	Go_O	1.0
314.097	0.3	stop	0.444	Go_X	0.0
316.621	0.25	stop	0.38	Go_O	0.0
319.145	1.0	go	0.648	Go_O	1.0
321.67	1.0	go	0.37	Go_X	1.0
324.194	0.2	stop	0.0	Go_X	1.0
326.718	1.0	go	0.35	Go_O	1.0
329.242	1.0	go	0.532	Go_X	1.0
331.766	0.25	stop	0.406	Go_O	0.0
334.291	1.0	go	0.498	Go_O	1.0
336.815	1.0	go	0.362	Go_X	1.0
339.339	0.2	stop	0.0	Go_X	1.0
341.863	1.0	go	0.383	Go_O	1.0
344.387	1.0	go	0.409	Go_X	1.0
346.912	0.25	stop	0.0	Go_O	1.0
349.436	1.0	go	0.393	Go_O	1.0
351.96	1.0	go	0.368	Go_X	1.0
354.484	1.0	go	0.353	Go_O	1.0
357.008	1.0	go	0.411	Go_X	1.0
359.533	1.0	go	0.379	Go_O	1.0
362.057	0.3	stop	0.394	Go_X	0.0
364.581	1.0	go	0.402	Go_X	1.0
367.105	1.0	go	0.416	Go_X	1.0
369.629	1.0	go	0.405	Go_O	1.0
372.154	1.0	go	0.344	Go_X	1.0
374.678	1.0	go	0.482	Go_O	1.0
377.202	0.25	stop	0.0	Go_O	1.0
379.726	1.0	go	0.466	Go_X	1.0
382.25	1.0	go	0.357	Go_O	1.0
384.775	1.0	go	0.525	Go_X	1.0
387.299	1.0	go	0.355	Go_O	1.0
389.823	1.0	go	0.453	Go_O	1.0
392.347	1.0	go	0.519	Go_X	1.0
394.871	0.3	stop	0.416	Go_X	0.0
397.396	1.0	go	0.384	Go_O	1.0
399.92	1.0	go	0.479	Go_X	1.0
402.444	0.25	stop	0.26	Go_O	0.0
404.968	1.0	go	0.489	Go_O	1.0
407.492	0.2	stop	0.296	Go_X	0.0
410.017	0.15	stop	0.242	Go_O	0.0
412.541	1.0	go	0.344	Go_X	1.0
415.065	1.0	go	0.311	Go_O	1.0
417.589	1.0	go	0.46	Go_X	1.0
420.113	1.0	go	0.403	Go_X	1.0
422.638	0.1	stop	0.0	Go_X	1.0
425.162	1.0	go	0.456	Go_O	1.0
427.686	0.15	stop	0.0	Go_O	1.0
430.21	1.0	go	0.332	Go_X	1.0
432.734	1.0	go	0.265	Go_O	1.0
435.259	1.0	go	0.468	Go_O	1.0
437.783	1.0	go	0.362	Go_X	1.0
440.307	1.0	go	0.328	Go_O	1.0
442.831	1.0	go	0.32	Go_X	1.0
445.355	1.0	go	0.425	Go_X	1.0
447.88	1.0	go	0.272	Go_O	1.0
450.404	1.0	go	0.386	Go_X	1.0
452.928	0.2	stop	0.0	Go_X	1.0
455.452	1.0	go	0.33	Go_O	1.0
457.976	1.0	go	0.373	Go_O	0.0
460.501	1.0	go	0.371	Go_X	1.0
463.025	0.25	stop	0.335	Go_O	0.0
465.549	1.0	go	0.33	Go_X	1.0
468.073	1.0	go	0.342	Go_O	1.0
470.597	1.0	go	0.374	Go_O	1.0
473.122	1.0	go	0.367	Go_X	1.0
475.646	1.0	go	0.415	Go_O	1.0
478.17	1.0	go	0.451	Go_X	1.0
480.694	0.2	stop	0.0	Go_X	1.0
483.219	1.0	go	0.455	Go_X	1.0
485.743	1.0	go	0.364	Go_O	1.0
488.267	0.25	stop	0.421	Go_O	0.0
490.791	1.0	go	0.316	Go_X	1.0
493.315	1.0	go	0.321	Go_O	1.0
495.84	0.2	stop	0.0	Go_X	1.0
498.364	1.0	go	0.417	Go_O	1.0
500.888	0.25	stop	0.0	Go_O	1.0
503.412	1.0	go	0.384	Go_X	1.0
505.936	1.0	go	0.488	Go_O	1.0
508.461	1.0	go	0.384	Go_X	1.0
510.985	1.0	go	0.377	Go_O	1.0
513.509	1.0	go	0.439	Go_X	1.0
516.033	0.3	stop	0.412	Go_X	0.0
518.557	0.25	stop	0.361	Go_O	0.0
521.098	1.0	go	0.387	Go_X	1.0
523.622	1.0	go	0.308	Go_O	1.0
526.147	0.2	stop	0.0	Go_X	1.0
528.671	1.0	go	0.399	Go_O	1.0
531.212	1.0	go	0.41	Go_X	1.0
533.736	1.0	go	0.391	Go_O	1.0
536.26	1.0	go	0.434	Go_X	1.0
538.784	1.0	go	0.357	Go_O	1.0
541.309	1.0	go	0.444	Go_X	1.0
543.833	0.25	stop	0.314	Go_O	0.0
546.357	1.0	go	0.424	Go_O	1.0
548.881	1.0	go	0.43	Go_X	1.0
551.405	1.0	go	0.33	Go_O	1.0
553.93	1.0	go	0.431	Go_X	1.0
556.454	1.0	go	0.347	Go_O	1.0
558.978	0.2	stop	0.0	Go_X	1.0
561.502	1.0	go	0.447	Go_X	1.0
564.026	1.0	go	0.399	Go_X	1.0
566.551	1.0	go	0.463	Go_O	1.0
569.075	1.0	go	0.504	Go_O	1.0
571.599	0.25	stop	0.0	Go_O	1.0
574.123	1.0	go	0.442	Go_X	1.0
576.647	1.0	go	0.492	Go_X	1.0
579.172	0.3	stop	0.362	Go_X	0.0
581.696	1.0	go	0.583	Go_O	1.0
584.22	0.25	stop	0.0	Go_O	1.0
586.744	1.0	go	0.441	Go_O	1.0
589.268	1.0	go	0.385	Go_X	1.0
591.793	1.0	go	0.563	Go_X	1.0
594.317	1.0	go	0.371	Go_O	1.0
596.841	1.0	go	0.456	Go_X	1.0
599.365	1.0	go	0.436	Go_O	1.0
601.889	1.0	go	0.562	Go_X	1.0
604.414	0.3	stop	0.583	Go_X	0.0
606.938	1.0	go	0.332	Go_O	1.0
609.462	1.0	go	0.383	Go_O	1.0
611.986	1.0	go	0.491	Go_X	1.0
614.511	0.25	stop	0.394	Go_O	0.0
617.035	1.0	go	0.48	Go_O	1.0
619.559	1.0	go	0.408	Go_X	1.0
622.083	1.0	go	0.431	Go_X	1.0
624.607	1.0	go	0.729	Go_O	1.0
627.132	0.2	stop	0.0	Go_X	1.0
629.656	1.0	go	0.389	Go_O	1.0
632.18	1.0	go	0.496	Go_X	1.0
634.704	0.25	stop	0.0	Go_O	1.0
637.228	1.0	go	0.438	Go_X	1.0
639.753	1.0	go	0.433	Go_O	1.0
642.277	0.3	stop	0.507	Go_X	0.0
644.801	1.0	go	0.0	Go_X	0.0
647.325	1.0	go	0.336	Go_O	1.0
649.849	0.25	stop	0.0	Go_O	1.0
652.374	1.0	go	0.444	Go_X	1.0
654.898	1.0	go	0.313	Go_O	1.0
657.422	1.0	go	0.422	Go_O	1.0
659.946	1.0	go	0.405	Go_X	1.0
662.47	1.0	go	0.489	Go_X	1.0
664.995	1.0	go	0.42	Go_O	1.0
667.519	0.3	stop	0.0	Go_X	1.0
670.043	1.0	go	0.447	Go_X	1.0
672.567	0.35	stop	0.383	Go_O	0.0
675.091	1.0	go	0.557	Go_O	1.0
677.616	1.0	go	0.0	Go_O	0.0
680.14	1.0	go	0.533	Go_X	1.0
682.664	1.0	go	0.444	Go_O	1.0
685.188	1.0	go	0.375	Go_X	1.0
687.712	0.3	stop	0.507	Go_X	0.0
690.237	1.0	go	0.298	Go_O	1.0
692.761	1.0	go	0.426	Go_X	1.0
695.285	1.0	go	0.492	Go_X	1.0
697.809	0.25	stop	0.353	Go_O	0.0
700.333	0.2	stop	0.0	Go_X	1.0
702.858	0.25	stop	0.492	Go_O	0.0
705.382	1.0	go	0.527	Go_O	1.0
707.906	0.2	stop	0.0	Go_X	1.0
710.43	1.0	go	0.442	Go_O	1.0
712.954	1.0	go	0.488	Go_X	0.0
715.479	1.0	go	0.394	Go_O	1.0
718.003	1.0	go	0.451	Go_X	1.0
720.527	1.0	go	0.465	Go_X	1.0
723.051	1.0	go	0.361	Go_O	1.0
725.575	1.0	go	0.379	Go_X	1.0
728.1	1.0	go	0.348	Go_O	1.0
730.624	0.25	stop	0.0	Go_O	1.0
733.148	1.0	go	0.562	Go_X	1.0
735.672	1.0	go	0.286	Go_O	1.0
738.196	0.3	stop	0.501	Go_X	0.0
740.721	1.0	go	0.318	Go_O	1.0
743.245	1.0	go	0.58	Go_X	1.0
745.769	1.0	go	0.282	Go_O	1.0
748.293	1.0	go	0.442	Go_X	1.0
750.817	1.0	go	0.269	Go_O	1.0
753.342	0.25	stop	0.443	Go_O	0.0
755.866	1.0	go	0.62	Go_X	1.0
758.39	1.0	go	0.32	Go_O	1.0
760.914	1.0	go	0.457	Go_X	1.0
763.438	0.2	stop	0.0	Go_X	1.0
765.963	1.0	go	0.0	Go_O	0.0
768.487	0.25	stop	0.0	Go_O	1.0
771.011	1.0	go	0.418	Go_X	1.0
773.535	1.0	go	0.411	Go_O	1.0
776.059	1.0	go	0.331	Go_X	1.0
778.584	1.0	go	0.36	Go_O	1.0
781.108	1.0	go	0.299	Go_X	1.0
783.632	1.0	go	0.574	Go_X	1.0
786.156	1.0	go	0.36	Go_O	1.0
788.681	0.3	stop	0.0	Go_X	1.0
791.205	1.0	go	0.346	Go_X	1.0
793.729	1.0	go	0.32	Go_O	1.0
796.253	1.0	go	0.413	Go_X	1.0
798.777	1.0	go	0.38	Go_O	1.0
801.302	0.35	stop	0.35	Go_O	0.0
803.826	1.0	go	0.417	Go_X	1.0
806.35	0.3	stop	0.558	Go_X	0.0
808.874	1.0	go	0.363	Go_O	1.0
811.398	1.0	go	0.445	Go_X	1.0
813.923	0.25	stop	0.303	Go_O	0.0
816.447	1.0	go	0.361	Go_O	0.0
818.971	1.0	go	0.47	Go_X	1.0
821.495	1.0	go	0.312	Go_O	1.0
824.019	1.0	go	0.556	Go_O	0.0
826.544	1.0	go	0.386	Go_X	1.0
829.068	1.0	go	0.441	Go_X	1.0
831.592	1.0	go	0.351	Go_O	1.0
834.116	1.0	go	0.325	Go_O	1.0
836.64	1.0	go	0.393	Go_X	1.0
839.165	1.0	go	0.469	Go_X	1.0
841.689	0.2	stop	0.0	Go_X	1.0
844.213	1.0	go	0.469	Go_O	1.0
846.737	1.0	go	0.422	Go_O	1.0
849.261	0.25	stop	0.412	Go_O	0.0
851.786	1.0	go	0.538	Go_X	1.0
854.31	0.2	stop	0.0	Go_X	1.0
856.834	1.0	go	0.47	Go_O	1.0
859.358	1.0	go	0.45	Go_X	1.0
861.882	0.25	stop	0.377	Go_O	0.0
864.407	1.0	go	0.53	Go_X	1.0
866.931	0.2	stop	0.0	Go_X	1.0
869.455	1.0	go	0.471	Go_O	1.0
871.979	1.0	go	0.464	Go_O	1.0
874.503	1.0	go	0.356	Go_X	1.0
877.028	0.25	stop	0.551	Go_O	0.0
879.552	1.0	go	0.576	Go_O	1.0
882.076	1.0	go	0.38	Go_X	1.0
884.6	1.0	go	0.47	Go_X	1.0
887.124	1.0	go	0.346	Go_O	1.0
889.649	0.2	stop	0.0	Go_X	1.0
892.173	1.0	go	0.321	Go_O	1.0
894.697	1.0	go	0.5	Go_X	1.0
897.221	0.25	stop	0.356	Go_O	0.0
899.745	1.0	go	0.408	Go_X	1.0
902.27	1.0	go	0.379	Go_O	1.0
904.794	1.0	go	0.447	Go_X	1.0
907.318	1.0	go	0.427	Go_O	1.0
909.842	0.2	stop	0.422	Go_X	0.0
912.366	1.0	go	0.363	Go_X	0.0
914.891	0.15	stop	0.0	Go_O	1.0
917.415	1.0	go	0.372	Go_O	1.0
919.939	1.0	go	0.554	Go_O	1.0
922.463	0.2	stop	0.0	Go_X	1.0
924.987	1.0	go	0.506	Go_X	1.0
927.512	1.0	go	0.463	Go_X	1.0
930.036	1.0	go	0.477	Go_O	1.0
932.56	1.0	go	0.576	Go_X	1.0
935.084	0.25	stop	0.0	Go_O	1.0
937.609	1.0	go	0.453	Go_O	1.0
940.133	0.3	stop	0.379	Go_X	0.0
942.657	1.0	go	0.323	Go_O	1.0
945.181	1.0	go	0.435	Go_X	1.0
947.705	1.0	go	0.396	Go_O	1.0
950.23	1.0	go	0.576	Go_X	1.0
952.754	1.0	go	0.361	Go_O	1.0
955.278	1.0	go	0.391	Go_X	1.0
957.802	0.25	stop	0.6	Go_O	0.0
960.326	1.0	go	0.506	Go_X	1.0
962.851	1.0	go	0.436	Go_O	1.0
965.375	0.2	stop	0.0	Go_X	1.0
967.899	1.0	go	0.452	Go_X	1.0
970.423	1.0	go	0.407	Go_O	1.0
972.947	0.25	stop	0.0	Go_O	1.0
975.472	1.0	go	0.64	Go_O	1.0
977.996	1.0	go	0.367	Go_X	1.0
980.52	1.0	go	0.443	Go_X	1.0
983.044	1.0	go	0.417	Go_O	1.0
985.568	0.3	stop	0.416	Go_X	0.0
988.093	1.0	go	0.0	Go_X	0.0
990.617	0.25	stop	0.26	Go_O	0.0
993.141	1.0	go	0.444	Go_O	1.0
995.665	1.0	go	0.421	Go_O	1.0
998.189	1.0	go	0.415	Go_X	1.0
1000.714	1.0	go	0.329	Go_O	1.0
1003.238	1.0	go	0.485	Go_X	1.0
1005.762	0.2	stop	0.0	Go_X	1.0
1008.286	1.0	go	0.6	Go_X	1.0
1010.81	1.0	go	0.302	Go_O	1.0
1013.335	0.25	stop	0.49	Go_O	0.0
1015.859	0.2	stop	0.378	Go_X	0.0
1018.383	1.0	go	0.598	Go_O	1.0
1020.907	1.0	go	0.36	Go_X	1.0
1023.431	1.0	go	0.311	Go_O	1.0
1025.956	1.0	go	0.398	Go_X	1.0
1028.48	0.15	stop	0.294	Go_O	0.0
1031.004	1.0	go	0.352	Go_O	0.0
