onset	duration	trial_type	response_time	stim_file	accuracy
73.308	1.0	go	0.612	Go_O	1.0
75.866	1.0	go	0.367	Go_X	1.0
78.39	1.0	go	0.336	Go_O	1.0
80.915	1.0	go	0.397	Go_X	1.0
83.455	1.0	go	0.441	Go_X	1.0
85.98	1.0	go	0.405	Go_O	1.0
88.521	0.25	stop	0.0	Go_O	1.0
91.061	1.0	go	0.34	Go_X	1.0
93.602	0.3	stop	0.459	Go_X	0.0
96.143	1.0	go	0.541	Go_O	1.0
98.668	1.0	go	0.452	Go_O	1.0
101.208	1.0	go	0.405	Go_X	1.0
103.733	0.25	stop	0.0	Go_O	1.0
106.274	1.0	go	0.458	Go_X	1.0
108.814	1.0	go	0.506	Go_O	1.0
111.355	0.3	stop	0.0	Go_X	1.0
113.896	0.35	stop	0.392	Go_O	0.0
116.437	1.0	go	0.462	Go_X	1.0
118.961	1.0	go	0.476	Go_O	1.0
121.502	0.3	stop	0.409	Go_X	0.0
124.043	1.0	go	0.524	Go_O	1.0
126.584	1.0	go	0.533	Go_X	1.0
129.125	0.25	stop	0.0	Go_O	1.0
131.666	1.0	go	0.468	Go_O	1.0
134.19	1.0	go	0.497	Go_X	1.0
136.714	0.3	stop	0.0	Go_X	1.0
139.255	1.0	go	0.495	Go_X	1.0
141.78	1.0	go	0.391	Go_O	1.0
144.321	0.35	stop	0.0	Go_O	1.0
146.861	1.0	go	0.482	Go_O	1.0
149.402	1.0	go	0.427	Go_X	1.0
151.927	1.0	go	0.425	Go_X	1.0
154.467	1.0	go	0.372	Go_O	1.0
156.992	1.0	go	0.529	Go_X	1.0
159.533	0.4	stop	0.502	Go_X	0.0
162.073	1.0	go	0.426	Go_O	1.0
164.598	1.0	go	0.538	Go_X	1.0
167.139	1.0	go	0.469	Go_O	1.0
169.679	1.0	go	0.624	Go_O	1.0
172.221	1.0	go	0.565	Go_X	1.0
174.761	0.35	stop	0.0	Go_O	1.0
177.302	1.0	go	0.54	Go_O	1.0
179.827	1.0	go	0.516	Go_X	1.0
182.367	1.0	go	0.603	Go_X	1.0
184.908	1.0	go	0.572	Go_O	1.0
187.433	1.0	go	0.509	Go_O	1.0
189.957	1.0	go	0.548	Go_X	1.0
192.498	0.4	stop	0.38	Go_X	0.0
195.039	1.0	go	0.464	Go_O	1.0
197.579	1.0	go	0.5	Go_X	1.0
200.104	0.35	stop	0.0	Go_O	1.0
202.645	1.0	go	0.413	Go_O	1.0
205.186	0.4	stop	0.361	Go_X	0.0
207.727	0.35	stop	0.434	Go_O	0.0
210.267	1.0	go	0.386	Go_X	1.0
212.808	1.0	go	0.446	Go_X	1.0
215.349	1.0	go	0.57	Go_O	1.0
217.89	1.0	go	0.494	Go_O	1.0
220.414	0.3	stop	0.0	Go_X	1.0
222.955	1.0	go	0.484	Go_X	1.0
225.479	0.35	stop	0.0	Go_O	1.0
228.02	1.0	go	0.498	Go_O	1.0
230.561	1.0	go	0.601	Go_X	1.0
233.102	1.0	go	0.465	Go_O	1.0
235.643	1.0	go	0.528	Go_X	1.0
238.184	1.0	go	0.492	Go_X	1.0
240.725	1.0	go	0.476	Go_O	1.0
243.266	1.0	go	0.418	Go_X	1.0
245.807	1.0	go	0.44	Go_O	1.0
248.348	1.0	go	0.459	Go_O	1.0
250.889	0.4	stop	0.0	Go_X	1.0
253.43	1.0	go	0.391	Go_X	1.0
255.971	1.0	go	0.412	Go_X	1.0
258.511	1.0	go	0.587	Go_O	1.0
261.052	0.45	stop	0.36	Go_O	0.0
263.593	1.0	go	0.451	Go_O	1.0
266.117	1.0	go	0.581	Go_X	0.0
268.642	1.0	go	0.442	Go_X	1.0
271.183	1.0	go	0.57	Go_O	1.0
273.724	1.0	go	0.508	Go_O	1.0
276.264	1.0	go	0.497	Go_X	1.0
278.789	0.4	stop	0.529	Go_X	0.0
281.33	1.0	go	0.488	Go_O	1.0
283.87	1.0	go	0.52	Go_X	1.0
286.411	0.35	stop	0.0	Go_O	1.0
288.952	1.0	go	0.531	Go_O	1.0
291.493	1.0	go	0.481	Go_X	1.0
294.034	0.4	stop	0.413	Go_X	0.0
296.575	1.0	go	0.466	Go_O	1.0
299.099	0.35	stop	0.512	Go_O	0.0
301.64	1.0	go	0.659	Go_X	1.0
304.181	1.0	go	0.658	Go_X	1.0
306.722	1.0	go	0.783	Go_O	1.0
309.263	1.0	go	0.47	Go_O	1.0
311.804	1.0	go	0.456	Go_X	1.0
314.345	0.3	stop	0.432	Go_X	0.0
316.886	0.25	stop	0.0	Go_O	1.0
319.427	1.0	go	0.497	Go_X	1.0
321.968	1.0	go	0.431	Go_O	1.0
324.509	0.3	stop	0.0	Go_X	1.0
327.049	1.0	go	0.547	Go_X	1.0
329.574	1.0	go	0.485	Go_O	1.0
332.115	1.0	go	0.519	Go_X	1.0
334.655	1.0	go	0.482	Go_O	1.0
337.196	1.0	go	0.623	Go_O	1.0
339.721	1.0	go	0.456	Go_X	1.0
342.261	0.35	stop	0.472	Go_O	0.0
344.802	1.0	go	0.455	Go_O	1.0
347.327	1.0	go	0.447	Go_X	1.0
349.867	1.0	go	0.397	Go_X	1.0
352.408	1.0	go	0.568	Go_O	1.0
354.949	1.0	go	0.575	Go_X	1.0
357.49	0.3	stop	0.477	Go_X	0.0
360.031	1.0	go	0.47	Go_O	1.0
362.555	1.0	go	0.579	Go_X	1.0
365.096	1.0	go	0.463	Go_O	1.0
367.637	1.0	go	0.533	Go_O	1.0
370.161	0.25	stop	0.0	Go_O	1.0
372.702	1.0	go	0.44	Go_X	1.0
375.227	1.0	go	0.512	Go_O	1.0
377.751	0.3	stop	0.0	Go_X	1.0
380.292	1.0	go	0.577	Go_X	1.0
382.833	0.35	stop	0.324	Go_O	0.0
385.373	1.0	go	0.613	Go_O	1.0
387.898	1.0	go	0.712	Go_X	1.0
390.439	1.0	go	0.648	Go_X	1.0
392.98	1.0	go	0.629	Go_O	1.0
395.521	1.0	go	0.597	Go_X	1.0
398.061	1.0	go	0.606	Go_O	1.0
400.602	1.0	go	0.613	Go_X	1.0
403.143	0.3	stop	0.0	Go_X	1.0
405.684	1.0	go	0.641	Go_O	1.0
408.225	1.0	go	0.664	Go_O	1.0
410.749	1.0	go	0.951	Go_X	1.0
413.29	0.35	stop	0.0	Go_O	1.0
415.831	1.0	go	0.473	Go_X	1.0
418.372	1.0	go	0.463	Go_O	1.0
420.913	1.0	go	0.548	Go_O	1.0
423.454	1.0	go	0.629	Go_X	1.0
425.995	0.4	stop	0.0	Go_X	1.0
428.536	1.0	go	0.436	Go_O	1.0
431.077	1.0	go	0.615	Go_X	1.0
433.618	0.45	stop	0.547	Go_O	0.0
436.158	1.0	go	0.639	Go_O	1.0
438.683	1.0	go	0.576	Go_X	1.0
441.224	0.4	stop	0.0	Go_X	1.0
443.765	1.0	go	0.484	Go_O	1.0
446.289	1.0	go	0.613	Go_X	1.0
448.813	0.45	stop	0.592	Go_O	0.0
451.354	1.0	go	0.686	Go_X	1.0
453.878	1.0	go	0.564	Go_O	1.0
456.419	1.0	go	0.548	Go_X	1.0
458.943	1.0	go	0.659	Go_O	1.0
461.467	1.0	go	0.646	Go_O	1.0
463.992	1.0	go	0.71	Go_X	1.0
466.532	0.4	stop	0.0	Go_X	1.0
469.073	1.0	go	0.596	Go_X	1.0
471.614	0.45	stop	0.0	Go_O	1.0
474.155	1.0	go	0.547	Go_O	1.0
476.696	1.0	go	0.581	Go_X	1.0
479.237	1.0	go	0.707	Go_O	1.0
481.778	1.0	go	0.643	Go_X	1.0
484.319	1.0	go	0.54	Go_O	1.0
486.86	0.5	stop	0.0	Go_X	1.0
489.401	1.0	go	0.57	Go_X	1.0
491.942	1.0	go	0.605	Go_O	1.0
494.483	1.0	go	0.758	Go_O	1.0
497.007	0.55	stop	0.497	Go_O	0.0
499.548	0.5	stop	0.612	Go_X	0.0
502.089	0.45	stop	0.5	Go_O	0.0
504.63	1.0	go	0.801	Go_X	1.0
507.17	0.4	stop	0.453	Go_X	0.0
509.711	1.0	go	0.626	Go_O	1.0
512.252	1.0	go	0.705	Go_X	1.0
514.777	1.0	go	0.489	Go_O	1.0
517.301	1.0	go	0.593	Go_X	1.0
519.842	1.0	go	0.578	Go_X	1.0
522.383	1.0	go	0.513	Go_O	1.0
524.923	1.0	go	0.512	Go_X	1.0
527.448	1.0	go	0.487	Go_O	1.0
529.989	0.35	stop	0.0	Go_O	1.0
532.53	1.0	go	0.508	Go_X	1.0
535.07	1.0	go	0.624	Go_O	1.0
537.611	0.4	stop	0.494	Go_X	0.0
540.152	1.0	go	0.611	Go_X	1.0
542.693	1.0	go	0.556	Go_O	1.0
545.217	1.0	go	0.538	Go_X	1.0
547.742	1.0	go	0.605	Go_O	1.0
550.266	1.0	go	0.688	Go_O	1.0
552.79	0.35	stop	0.0	Go_O	1.0
555.331	1.0	go	0.552	Go_X	1.0
557.872	1.0	go	0.643	Go_O	1.0
560.413	1.0	go	0.492	Go_X	1.0
562.954	0.4	stop	0.0	Go_X	1.0
565.495	1.0	go	0.413	Go_O	1.0
568.036	0.45	stop	0.539	Go_O	0.0
570.576	1.0	go	0.559	Go_X	1.0
573.117	1.0	go	0.721	Go_X	1.0
575.658	1.0	go	0.626	Go_O	1.0
578.199	1.0	go	0.655	Go_X	1.0
580.74	1.0	go	0.463	Go_O	1.0
583.264	1.0	go	0.496	Go_O	1.0
585.805	1.0	go	0.424	Go_X	1.0
588.33	0.4	stop	0.0	Go_X	1.0
590.87	1.0	go	0.529	Go_O	1.0
593.411	1.0	go	0.526	Go_X	1.0
595.936	1.0	go	0.696	Go_X	1.0
598.476	1.0	go	0.658	Go_O	1.0
601.001	0.45	stop	0.661	Go_O	0.0
603.542	1.0	go	0.619	Go_O	1.0
606.082	0.4	stop	0.0	Go_X	1.0
608.623	1.0	go	0.493	Go_X	1.0
611.164	1.0	go	0.748	Go_X	1.0
613.689	0.45	stop	0.494	Go_O	0.0
616.229	1.0	go	0.684	Go_O	1.0
618.754	1.0	go	0.674	Go_O	1.0
621.295	1.0	go	0.77	Go_X	1.0
623.835	1.0	go	0.54	Go_X	1.0
626.36	1.0	go	0.581	Go_O	1.0
628.884	1.0	go	0.433	Go_O	1.0
631.408	1.0	go	0.634	Go_X	1.0
633.949	1.0	go	0.618	Go_X	1.0
636.49	1.0	go	0.678	Go_O	1.0
639.014	1.0	go	0.902	Go_X	1.0
641.555	0.4	stop	0.4	Go_X	0.0
644.096	1.0	go	0.522	Go_O	1.0
646.637	1.0	go	0.668	Go_O	1.0
649.178	0.35	stop	0.0	Go_O	1.0
651.719	1.0	go	0.557	Go_X	1.0
654.26	0.4	stop	0.0	Go_X	1.0
656.801	1.0	go	0.515	Go_X	1.0
659.341	1.0	go	0.584	Go_O	1.0
661.882	0.45	stop	0.664	Go_O	0.0
664.423	1.0	go	0.568	Go_O	1.0
666.964	0.4	stop	0.0	Go_X	1.0
669.505	1.0	go	0.506	Go_X	1.0
672.046	1.0	go	0.57	Go_X	1.0
674.587	1.0	go	0.556	Go_O	1.0
677.128	0.45	stop	0.518	Go_O	0.0
679.669	1.0	go	0.539	Go_O	1.0
682.21	1.0	go	0.537	Go_X	1.0
684.751	1.0	go	0.641	Go_X	1.0
687.275	1.0	go	0.638	Go_O	1.0
689.816	0.4	stop	0.482	Go_X	0.0
692.357	1.0	go	0.639	Go_X	1.0
694.898	1.0	go	0.467	Go_O	1.0
697.439	0.35	stop	0.407	Go_O	0.0
699.979	1.0	go	0.519	Go_O	1.0
702.504	1.0	go	0.579	Go_X	1.0
705.045	1.0	go	0.65	Go_X	1.0
707.569	1.0	go	0.598	Go_O	1.0
710.11	0.3	stop	0.0	Go_X	1.0
712.651	1.0	go	0.447	Go_X	1.0
715.192	0.35	stop	0.535	Go_O	0.0
717.733	1.0	go	0.629	Go_O	1.0
720.273	1.0	go	0.573	Go_X	1.0
722.798	0.3	stop	0.0	Go_X	1.0
725.339	1.0	go	0.621	Go_O	1.0
727.879	1.0	go	0.642	Go_O	1.0
730.42	1.0	go	0.435	Go_X	1.0
732.945	1.0	go	0.596	Go_X	1.0
735.485	0.35	stop	0.0	Go_O	1.0
738.026	1.0	go	0.549	Go_O	1.0
740.567	0.4	stop	0.536	Go_X	0.0
743.092	1.0	go	0.628	Go_X	1.0
745.632	1.0	go	0.716	Go_O	1.0
748.157	1.0	go	0.583	Go_X	1.0
750.698	1.0	go	0.547	Go_O	1.0
753.238	1.0	go	0.467	Go_O	1.0
755.779	1.0	go	0.538	Go_X	1.0
758.32	0.35	stop	0.469	Go_O	0.0
760.861	1.0	go	0.485	Go_X	1.0
763.402	1.0	go	0.54	Go_O	1.0
765.943	0.3	stop	0.335	Go_X	0.0
768.484	1.0	go	0.451	Go_O	1.0
771.008	1.0	go	0.52	Go_X	1.0
773.549	0.25	stop	0.0	Go_O	1.0
776.09	1.0	go	0.607	Go_O	1.0
778.631	1.0	go	0.47	Go_X	1.0
781.172	1.0	go	0.536	Go_O	1.0
783.713	1.0	go	0.483	Go_X	1.0
786.237	0.3	stop	0.42	Go_X	0.0
788.761	1.0	go	0.476	Go_O	1.0
791.302	0.25	stop	0.0	Go_O	1.0
793.843	1.0	go	0.434	Go_X	1.0
796.384	1.0	go	0.557	Go_X	1.0
798.925	1.0	go	0.463	Go_O	1.0
801.466	1.0	go	0.496	Go_O	1.0
804.007	1.0	go	0.614	Go_X	1.0
806.531	0.3	stop	0.0	Go_X	1.0
809.072	1.0	go	0.391	Go_O	1.0
811.613	1.0	go	0.601	Go_X	1.0
814.154	0.35	stop	0.0	Go_O	1.0
816.695	0.4	stop	0.613	Go_X	0.0
819.236	1.0	go	0.558	Go_X	1.0
821.776	1.0	go	0.489	Go_O	1.0
824.301	1.0	go	0.506	Go_X	1.0
826.842	1.0	go	0.489	Go_O	1.0
829.382	0.35	stop	0.481	Go_O	0.0
831.923	1.0	go	0.545	Go_X	1.0
