onset	duration	trial_type	response_time	stim_file	accuracy
62.884	1.0	go	0.473	Go_O	1.0
65.475	1.0	go	0.323	Go_X	1.0
68.0	1.0	go	0.307	Go_O	1.0
70.524	1.0	go	0.376	Go_X	1.0
73.048	1.0	go	0.441	Go_O	1.0
75.572	1.0	go	0.418	Go_X	1.0
78.096	0.25	stop	0.0	Go_O	1.0
80.62	1.0	go	0.358	Go_O	1.0
83.145	0.3	stop	0.364	Go_X	0.0
85.669	1.0	go	0.491	Go_X	1.0
88.193	1.0	go	0.573	Go_X	1.0
90.717	1.0	go	0.472	Go_O	1.0
93.241	0.25	stop	0.0	Go_O	1.0
95.766	1.0	go	0.424	Go_X	1.0
98.29	1.0	go	0.396	Go_O	1.0
100.814	0.3	stop	0.0	Go_X	1.0
103.338	0.35	stop	0.416	Go_O	0.0
105.862	1.0	go	0.412	Go_X	1.0
108.387	1.0	go	0.51	Go_O	1.0
110.911	0.3	stop	0.451	Go_X	0.0
113.435	1.0	go	0.483	Go_X	1.0
115.959	1.0	go	0.501	Go_O	1.0
118.483	0.25	stop	0.373	Go_O	0.0
121.008	1.0	go	0.462	Go_X	1.0
123.532	1.0	go	0.391	Go_O	1.0
126.056	0.2	stop	0.0	Go_X	1.0
128.58	1.0	go	0.32	Go_X	1.0
131.104	1.0	go	0.442	Go_O	1.0
133.629	0.25	stop	0.0	Go_O	1.0
136.153	1.0	go	0.423	Go_O	1.0
138.677	1.0	go	0.461	Go_X	1.0
141.201	1.0	go	0.313	Go_X	1.0
143.725	1.0	go	0.438	Go_O	1.0
146.249	1.0	go	0.481	Go_X	1.0
148.774	0.3	stop	0.259	Go_X	0.0
151.298	1.0	go	0.428	Go_O	1.0
153.822	1.0	go	0.338	Go_X	1.0
156.346	1.0	go	0.316	Go_O	1.0
158.87	1.0	go	0.455	Go_O	1.0
161.395	1.0	go	0.387	Go_X	1.0
163.919	0.25	stop	0.0	Go_O	1.0
166.443	1.0	go	0.3	Go_X	1.0
168.967	1.0	go	0.38	Go_O	1.0
171.491	1.0	go	0.418	Go_X	1.0
174.016	1.0	go	0.266	Go_O	1.0
176.54	1.0	go	0.429	Go_X	1.0
179.064	1.0	go	0.277	Go_O	1.0
181.588	0.3	stop	0.419	Go_X	0.0
184.112	1.0	go	0.362	Go_X	1.0
186.637	1.0	go	0.334	Go_O	1.0
189.161	0.25	stop	0.343	Go_O	0.0
191.685	1.0	go	0.279	Go_X	1.0
194.209	0.2	stop	0.38	Go_X	0.0
196.733	0.15	stop	0.0	Go_O	1.0
199.258	1.0	go	0.376	Go_O	1.0
201.782	1.0	go	0.41	Go_O	1.0
204.306	1.0	go	0.371	Go_X	1.0
206.83	1.0	go	0.432	Go_O	1.0
209.354	0.2	stop	0.0	Go_X	1.0
211.878	1.0	go	0.405	Go_X	1.0
214.403	0.25	stop	0.322	Go_O	0.0
216.927	1.0	go	0.332	Go_O	1.0
219.451	1.0	go	0.228	Go_X	1.0
221.975	1.0	go	0.463	Go_O	1.0
224.499	1.0	go	0.303	Go_X	1.0
227.024	1.0	go	0.282	Go_O	1.0
229.548	1.0	go	0.445	Go_X	1.0
232.072	1.0	go	0.451	Go_O	1.0
234.596	1.0	go	0.317	Go_X	1.0
237.12	1.0	go	0.416	Go_O	1.0
239.645	0.2	stop	0.0	Go_X	1.0
242.169	1.0	go	0.316	Go_X	1.0
244.693	1.0	go	0.303	Go_O	1.0
247.217	1.0	go	0.328	Go_X	0.0
249.741	0.25	stop	0.336	Go_O	0.0
252.266	1.0	go	0.381	Go_O	1.0
254.79	1.0	go	0.375	Go_X	1.0
257.314	1.0	go	0.356	Go_X	1.0
259.838	1.0	go	0.37	Go_O	1.0
262.362	1.0	go	0.372	Go_O	1.0
264.887	1.0	go	0.257	Go_X	1.0
267.411	0.2	stop	0.346	Go_X	0.0
269.935	1.0	go	0.292	Go_O	1.0
272.459	1.0	go	0.246	Go_X	1.0
274.983	0.15	stop	0.0	Go_O	1.0
277.507	1.0	go	0.351	Go_O	1.0
280.032	1.0	go	0.255	Go_X	1.0
282.556	0.2	stop	0.0	Go_X	1.0
285.08	1.0	go	0.231	Go_O	1.0
287.604	0.25	stop	0.35	Go_O	0.0
290.128	1.0	go	0.554	Go_X	1.0
292.653	1.0	go	0.369	Go_O	1.0
295.177	1.0	go	0.273	Go_X	1.0
297.701	1.0	go	0.268	Go_O	1.0
300.225	1.0	go	0.323	Go_X	1.0
302.749	0.2	stop	0.0	Go_X	1.0
305.274	0.25	stop	0.307	Go_O	0.0
307.798	1.0	go	0.424	Go_X	1.0
310.322	1.0	go	0.346	Go_O	1.0
312.846	0.2	stop	0.311	Go_X	0.0
315.37	1.0	go	0.327	Go_O	1.0
317.895	1.0	go	0.338	Go_X	1.0
320.419	1.0	go	0.425	Go_X	1.0
322.943	1.0	go	0.356	Go_O	1.0
325.467	1.0	go	0.229	Go_X	1.0
327.991	1.0	go	0.183	Go_O	1.0
330.516	0.15	stop	0.318	Go_O	0.0
333.04	1.0	go	0.322	Go_X	1.0
335.564	1.0	go	0.292	Go_O	1.0
338.088	1.0	go	0.268	Go_X	1.0
340.612	1.0	go	0.313	Go_O	1.0
343.136	1.0	go	0.326	Go_O	1.0
345.661	0.1	stop	0.0	Go_X	1.0
348.185	1.0	go	0.389	Go_X	1.0
350.709	1.0	go	0.353	Go_O	1.0
353.233	1.0	go	0.29	Go_X	1.0
355.757	1.0	go	0.335	Go_X	1.0
358.282	0.15	stop	0.0	Go_O	1.0
360.806	1.0	go	0.276	Go_O	1.0
363.33	1.0	go	0.233	Go_X	1.0
365.854	0.2	stop	0.348	Go_X	0.0
368.378	1.0	go	0.337	Go_O	1.0
370.903	0.15	stop	0.0	Go_O	1.0
373.427	1.0	go	0.369	Go_O	1.0
375.951	1.0	go	0.356	Go_X	1.0
378.475	1.0	go	0.34	Go_X	1.0
380.999	1.0	go	0.378	Go_O	1.0
383.524	1.0	go	0.35	Go_O	1.0
386.048	1.0	go	0.296	Go_X	1.0
388.572	1.0	go	0.288	Go_O	1.0
391.096	0.2	stop	0.215	Go_X	0.0
393.62	1.0	go	0.302	Go_X	0.0
396.145	1.0	go	0.297	Go_O	1.0
398.669	1.0	go	0.37	Go_X	1.0
401.193	0.15	stop	0.269	Go_O	0.0
403.717	1.0	go	0.347	Go_X	1.0
406.241	1.0	go	0.431	Go_O	1.0
408.765	1.0	go	0.469	Go_O	1.0
411.29	1.0	go	0.265	Go_X	1.0
413.814	0.1	stop	0.0	Go_X	1.0
416.338	1.0	go	0.34	Go_X	1.0
418.862	1.0	go	0.341	Go_O	1.0
421.386	0.15	stop	0.0	Go_O	1.0
423.911	1.0	go	0.306	Go_X	1.0
426.435	1.0	go	0.309	Go_O	1.0
428.959	0.2	stop	0.0	Go_X	1.0
431.483	1.0	go	0.345	Go_O	1.0
434.007	1.0	go	0.311	Go_X	1.0
436.532	0.25	stop	0.345	Go_O	0.0
439.056	1.0	go	0.433	Go_O	1.0
441.58	1.0	go	0.282	Go_X	1.0
444.104	1.0	go	0.44	Go_X	1.0
446.628	1.0	go	0.395	Go_O	1.0
449.153	1.0	go	0.391	Go_O	1.0
451.677	1.0	go	0.338	Go_X	1.0
454.201	0.2	stop	0.0	Go_X	1.0
456.725	1.0	go	0.467	Go_O	1.0
459.249	0.25	stop	0.388	Go_O	0.0
461.774	1.0	go	0.338	Go_X	1.0
464.298	1.0	go	0.402	Go_X	1.0
466.822	1.0	go	0.414	Go_O	1.0
469.346	1.0	go	0.34	Go_X	1.0
471.87	1.0	go	0.327	Go_O	1.0
474.394	0.2	stop	0.327	Go_X	0.0
476.919	1.0	go	0.416	Go_X	1.0
479.443	1.0	go	0.478	Go_O	1.0
481.967	1.0	go	0.482	Go_O	1.0
484.491	0.15	stop	0.0	Go_O	1.0
487.015	0.2	stop	0.0	Go_X	1.0
489.54	0.25	stop	0.306	Go_O	0.0
492.064	1.0	go	0.434	Go_X	1.0
494.588	0.2	stop	0.0	Go_X	1.0
497.112	1.0	go	0.657	Go_X	1.0
499.636	1.0	go	0.366	Go_O	1.0
502.161	1.0	go	0.4	Go_X	1.0
504.685	1.0	go	0.437	Go_O	0.0
507.209	1.0	go	0.399	Go_O	1.0
509.733	1.0	go	0.409	Go_X	1.0
512.257	1.0	go	0.41	Go_O	1.0
514.782	1.0	go	0.471	Go_X	1.0
517.306	0.25	stop	0.433	Go_O	0.0
519.83	1.0	go	0.393	Go_O	1.0
522.354	1.0	go	0.478	Go_X	1.0
524.878	0.2	stop	0.0	Go_X	1.0
527.403	1.0	go	0.323	Go_O	1.0
529.927	1.0	go	0.509	Go_X	1.0
532.451	1.0	go	0.436	Go_O	1.0
534.975	1.0	go	0.39	Go_X	1.0
537.499	1.0	go	0.433	Go_X	1.0
540.023	0.25	stop	0.336	Go_O	0.0
542.548	1.0	go	0.481	Go_O	1.0
545.072	1.0	go	0.472	Go_O	1.0
547.596	1.0	go	0.285	Go_X	1.0
550.12	0.2	stop	0.0	Go_X	1.0
552.644	1.0	go	0.443	Go_O	1.0
555.169	0.25	stop	0.368	Go_O	0.0
557.693	1.0	go	0.35	Go_X	1.0
560.217	1.0	go	0.406	Go_X	1.0
562.741	1.0	go	0.46	Go_O	1.0
565.265	1.0	go	0.424	Go_O	1.0
567.79	1.0	go	0.361	Go_X	1.0
570.314	1.0	go	0.198	Go_O	1.0
572.838	1.0	go	0.265	Go_X	1.0
575.362	0.2	stop	0.0	Go_X	1.0
577.886	1.0	go	0.339	Go_X	1.0
580.411	1.0	go	0.242	Go_O	1.0
582.935	1.0	go	0.361	Go_X	1.0
585.459	1.0	go	0.357	Go_O	1.0
587.983	0.25	stop	0.422	Go_O	0.0
590.507	1.0	go	0.336	Go_X	1.0
593.032	0.2	stop	0.315	Go_X	0.0
595.556	1.0	go	0.378	Go_O	1.0
598.08	1.0	go	0.404	Go_O	1.0
600.604	0.15	stop	0.0	Go_O	1.0
603.128	1.0	go	0.304	Go_X	1.0
605.652	1.0	go	0.441	Go_O	1.0
608.177	1.0	go	0.334	Go_X	1.0
610.701	1.0	go	0.293	Go_O	1.0
613.225	1.0	go	0.327	Go_X	1.0
615.749	1.0	go	0.328	Go_O	1.0
618.273	1.0	go	0.325	Go_X	1.0
620.798	1.0	go	0.286	Go_O	1.0
623.322	1.0	go	0.255	Go_X	1.0
625.846	1.0	go	0.364	Go_X	1.0
628.37	0.2	stop	0.0	Go_X	1.0
630.894	1.0	go	0.302	Go_O	1.0
633.419	1.0	go	0.383	Go_X	1.0
635.943	0.25	stop	0.368	Go_O	0.0
638.467	1.0	go	0.425	Go_O	1.0
640.991	0.2	stop	0.0	Go_X	1.0
643.515	1.0	go	0.386	Go_O	1.0
646.04	1.0	go	0.339	Go_X	1.0
648.564	0.25	stop	0.323	Go_O	0.0
651.088	1.0	go	0.414	Go_O	1.0
653.612	0.2	stop	0.27	Go_X	0.0
656.136	1.0	go	0.394	Go_X	1.0
658.661	1.0	go	0.414	Go_O	1.0
661.185	1.0	go	0.473	Go_X	1.0
663.709	0.15	stop	0.0	Go_O	1.0
666.233	1.0	go	0.434	Go_X	1.0
668.757	1.0	go	0.458	Go_O	1.0
671.281	1.0	go	0.33	Go_O	1.0
673.806	1.0	go	0.32	Go_X	1.0
676.33	0.2	stop	0.312	Go_X	0.0
678.854	1.0	go	0.4	Go_X	1.0
681.378	1.0	go	0.306	Go_O	1.0
683.902	0.15	stop	0.0	Go_O	1.0
686.427	1.0	go	0.409	Go_O	1.0
688.951	1.0	go	0.449	Go_X	1.0
691.475	1.0	go	0.388	Go_X	1.0
693.999	1.0	go	0.405	Go_O	1.0
696.523	0.2	stop	0.471	Go_X	0.0
699.048	1.0	go	0.381	Go_O	1.0
701.572	0.15	stop	0.466	Go_O	0.0
704.096	1.0	go	0.414	Go_X	1.0
706.62	1.0	go	0.364	Go_X	1.0
709.144	0.1	stop	0.0	Go_X	1.0
711.669	1.0	go	0.395	Go_O	1.0
714.193	1.0	go	0.455	Go_O	1.0
716.717	1.0	go	0.369	Go_X	1.0
719.241	1.0	go	0.389	Go_X	1.0
721.765	0.15	stop	0.0	Go_O	1.0
724.29	1.0	go	0.375	Go_O	1.0
726.814	0.2	stop	0.0	Go_X	1.0
729.338	1.0	go	0.341	Go_X	1.0
731.862	1.0	go	0.377	Go_O	1.0
734.386	1.0	go	0.308	Go_O	1.0
736.91	1.0	go	0.344	Go_X	1.0
739.435	1.0	go	0.345	Go_X	0.0
741.959	1.0	go	0.418	Go_O	1.0
744.483	0.25	stop	0.0	Go_O	1.0
747.007	1.0	go	0.372	Go_O	1.0
749.531	1.0	go	0.46	Go_X	1.0
752.056	0.3	stop	0.417	Go_X	0.0
754.58	1.0	go	0.347	Go_O	1.0
757.104	1.0	go	0.37	Go_X	1.0
759.628	0.25	stop	0.236	Go_O	0.0
762.152	1.0	go	0.34	Go_X	1.0
764.677	1.0	go	0.463	Go_O	1.0
767.201	1.0	go	0.449	Go_O	1.0
769.725	1.0	go	0.278	Go_X	1.0
772.249	0.2	stop	0.32	Go_X	0.0
774.773	1.0	go	0.303	Go_O	1.0
777.298	0.15	stop	0.0	Go_O	1.0
779.822	1.0	go	0.397	Go_X	1.0
782.346	1.0	go	0.354	Go_O	1.0
784.87	1.0	go	0.285	Go_X	1.0
787.394	1.0	go	0.422	Go_O	1.0
789.919	1.0	go	0.295	Go_X	1.0
792.443	0.2	stop	0.0	Go_X	1.0
794.967	1.0	go	0.324	Go_O	1.0
797.491	1.0	go	0.402	Go_X	1.0
800.015	0.25	stop	0.428	Go_O	0.0
802.539	0.2	stop	0.0	Go_X	1.0
805.064	1.0	go	0.37	Go_O	1.0
807.588	1.0	go	0.304	Go_X	1.0
810.112	1.0	go	0.282	Go_O	1.0
812.636	1.0	go	0.332	Go_X	1.0
815.16	0.25	stop	0.377	Go_O	0.0
817.685	1.0	go	0.388	Go_O	1.0
