onset	duration	trial_type	response_time	stim_file	accuracy
75.392	1.0	go	0.861	Go_X	0.0
77.917	1.0	go	0.499	Go_O	0.0
80.441	1.0	go	0.571	Go_O	0.0
82.965	1.0	go	0.74	Go_X	1.0
85.489	1.0	go	0.401	Go_X	0.0
88.013	1.0	go	0.785	Go_O	1.0
90.538	0.25	stop	0.625	Go_O	0.0
93.078	1.0	go	0.295	Go_X	1.0
95.603	0.2	stop	0.0	Go_X	1.0
98.144	1.0	go	0.242	Go_O	1.0
100.668	1.0	go	0.551	Go_X	1.0
103.192	1.0	go	0.255	Go_O	1.0
105.733	0.25	stop	0.37	Go_O	0.0
108.274	1.0	go	0.373	Go_O	1.0
110.798	1.0	go	0.259	Go_X	1.0
113.322	0.2	stop	0.0	Go_X	1.0
115.863	0.25	stop	0.448	Go_O	0.0
118.387	1.0	go	0.649	Go_O	1.0
120.912	1.0	go	0.374	Go_X	0.0
123.436	0.2	stop	0.474	Go_X	0.0
125.977	1.0	go	0.413	Go_X	1.0
128.501	1.0	go	0.254	Go_O	1.0
131.025	0.15	stop	0.0	Go_O	1.0
133.566	1.0	go	0.369	Go_O	1.0
136.09	1.0	go	0.598	Go_X	1.0
138.614	0.2	stop	0.569	Go_X	0.0
141.139	1.0	go	0.426	Go_X	1.0
143.663	1.0	go	0.317	Go_O	1.0
146.187	0.15	stop	0.0	Go_O	1.0
148.711	1.0	go	0.363	Go_O	1.0
151.235	1.0	go	0.515	Go_X	1.0
153.76	1.0	go	0.577	Go_O	1.0
156.284	1.0	go	0.578	Go_X	1.0
158.808	1.0	go	0.416	Go_X	1.0
161.332	0.2	stop	0.0	Go_X	1.0
163.856	1.0	go	0.381	Go_O	1.0
166.381	1.0	go	0.584	Go_X	1.0
168.905	1.0	go	0.362	Go_O	1.0
171.429	1.0	go	0.413	Go_O	1.0
173.953	1.0	go	0.44	Go_X	1.0
176.477	0.25	stop	0.0	Go_O	1.0
179.002	1.0	go	0.52	Go_O	1.0
181.526	1.0	go	0.517	Go_X	1.0
184.05	1.0	go	0.458	Go_X	1.0
186.591	1.0	go	0.338	Go_O	1.0
189.115	1.0	go	0.437	Go_O	1.0
191.639	1.0	go	0.443	Go_X	1.0
194.164	0.3	stop	0.449	Go_X	0.0
196.688	1.0	go	0.45	Go_O	1.0
199.212	1.0	go	0.418	Go_X	1.0
201.736	0.25	stop	0.374	Go_O	0.0
204.26	1.0	go	0.488	Go_X	1.0
206.785	0.2	stop	0.0	Go_X	1.0
209.326	0.25	stop	0.365	Go_O	0.0
211.866	1.0	go	0.443	Go_O	1.0
214.391	1.0	go	0.487	Go_X	1.0
216.915	1.0	go	0.401	Go_O	1.0
219.439	1.0	go	0.478	Go_O	1.0
221.963	0.2	stop	0.0	Go_X	1.0
224.487	1.0	go	0.469	Go_X	1.0
227.012	0.25	stop	0.0	Go_O	1.0
229.553	1.0	go	0.469	Go_O	1.0
232.077	1.0	go	0.353	Go_X	1.0
234.601	1.0	go	0.583	Go_O	1.0
237.125	1.0	go	0.607	Go_X	1.0
239.649	1.0	go	0.394	Go_X	1.0
242.174	1.0	go	0.44	Go_O	1.0
244.715	1.0	go	0.467	Go_O	1.0
247.239	1.0	go	0.358	Go_X	1.0
249.763	1.0	go	0.403	Go_O	1.0
252.287	0.3	stop	0.342	Go_X	0.0
254.811	1.0	go	0.531	Go_X	1.0
257.336	1.0	go	0.449	Go_O	1.0
259.86	1.0	go	0.444	Go_X	1.0
262.384	0.25	stop	0.0	Go_O	1.0
264.908	1.0	go	0.326	Go_X	1.0
267.432	1.0	go	0.69	Go_O	1.0
269.957	1.0	go	0.501	Go_O	1.0
272.481	1.0	go	0.455	Go_X	1.0
275.005	1.0	go	0.634	Go_O	1.0
277.529	1.0	go	0.563	Go_X	1.0
280.053	0.3	stop	0.0	Go_X	1.0
282.578	1.0	go	0.52	Go_X	1.0
285.102	1.0	go	0.493	Go_O	1.0
287.626	0.35	stop	0.543	Go_O	0.0
290.15	1.0	go	0.46	Go_O	1.0
292.674	1.0	go	0.482	Go_X	1.0
295.199	0.3	stop	0.441	Go_X	0.0
297.74	1.0	go	0.427	Go_O	1.0
300.264	0.25	stop	0.437	Go_O	0.0
302.788	1.0	go	0.431	Go_X	1.0
305.312	1.0	go	0.333	Go_O	1.0
307.836	1.0	go	0.4	Go_X	1.0
310.361	1.0	go	0.315	Go_O	1.0
312.885	1.0	go	0.375	Go_X	1.0
315.409	0.2	stop	0.0	Go_X	1.0
317.933	0.25	stop	0.393	Go_O	0.0
320.457	1.0	go	0.374	Go_O	1.0
322.982	1.0	go	0.396	Go_X	1.0
325.506	0.2	stop	0.42	Go_X	0.0
328.047	1.0	go	0.401	Go_X	1.0
330.571	1.0	go	0.633	Go_O	1.0
333.095	1.0	go	0.646	Go_X	1.0
335.619	1.0	go	0.437	Go_O	1.0
338.143	1.0	go	0.509	Go_X	1.0
340.668	1.0	go	0.828	Go_O	0.0
343.192	0.15	stop	0.0	Go_O	1.0
345.716	1.0	go	0.439	Go_O	1.0
348.24	1.0	go	0.399	Go_X	1.0
350.764	1.0	go	0.427	Go_X	1.0
353.289	1.0	go	0.36	Go_O	1.0
355.813	1.0	go	0.44	Go_O	1.0
358.337	0.2	stop	0.287	Go_X	0.0
360.861	1.0	go	0.494	Go_X	1.0
363.385	1.0	go	0.767	Go_O	1.0
365.91	1.0	go	0.0	Go_X	0.0
368.434	1.0	go	0.438	Go_X	1.0
370.962	0.15	stop	0.0	Go_O	1.0
373.499	1.0	go	0.516	Go_O	0.0
376.023	1.0	go	0.432	Go_X	0.0
378.547	0.2	stop	0.362	Go_X	0.0
381.072	1.0	go	0.404	Go_O	1.0
383.596	0.15	stop	0.0	Go_O	1.0
386.137	1.0	go	0.495	Go_X	1.0
388.661	1.0	go	0.817	Go_O	1.0
391.185	1.0	go	0.335	Go_O	1.0
393.709	1.0	go	0.399	Go_X	1.0
396.234	1.0	go	0.381	Go_X	1.0
398.758	1.0	go	0.385	Go_O	1.0
401.282	1.0	go	0.447	Go_X	0.0
403.806	0.2	stop	0.0	Go_X	1.0
406.33	1.0	go	0.404	Go_O	1.0
408.855	1.0	go	0.416	Go_X	1.0
411.379	1.0	go	0.602	Go_O	1.0
413.903	0.25	stop	0.434	Go_O	0.0
416.427	1.0	go	0.361	Go_X	1.0
418.951	1.0	go	0.713	Go_O	1.0
421.492	1.0	go	0.47	Go_X	1.0
424.017	1.0	go	0.357	Go_O	1.0
426.541	0.2	stop	0.417	Go_X	0.0
429.082	1.0	go	0.507	Go_X	1.0
431.606	1.0	go	0.4	Go_O	1.0
434.13	0.15	stop	0.0	Go_O	1.0
436.671	1.0	go	0.54	Go_O	1.0
439.195	1.0	go	0.4	Go_X	1.0
441.719	0.2	stop	0.0	Go_X	1.0
444.244	1.0	go	0.498	Go_X	1.0
446.768	1.0	go	0.618	Go_O	1.0
449.292	0.25	stop	0.428	Go_O	0.0
451.833	1.0	go	0.569	Go_X	1.0
454.357	1.0	go	0.457	Go_O	0.0
456.881	1.0	go	0.341	Go_O	1.0
459.405	1.0	go	0.456	Go_X	1.0
461.93	1.0	go	0.366	Go_O	1.0
464.454	1.0	go	0.358	Go_X	1.0
466.978	0.2	stop	0.0	Go_X	1.0
469.502	1.0	go	0.646	Go_X	1.0
472.027	0.25	stop	0.426	Go_O	0.0
474.567	1.0	go	0.498	Go_O	1.0
477.092	1.0	go	0.476	Go_O	1.0
479.617	1.0	go	0.449	Go_X	1.0
482.14	1.0	go	0.646	Go_O	1.0
484.664	1.0	go	0.369	Go_X	1.0
487.188	0.2	stop	0.0	Go_X	1.0
489.713	1.0	go	0.407	Go_X	1.0
492.237	1.0	go	0.548	Go_O	1.0
494.761	1.0	go	0.569	Go_O	1.0
497.285	0.25	stop	0.506	Go_O	0.0
499.826	0.2	stop	0.0	Go_X	1.0
502.35	0.25	stop	0.0	Go_O	1.0
504.891	1.0	go	0.487	Go_X	1.0
507.416	0.3	stop	0.0	Go_X	1.0
509.956	1.0	go	0.358	Go_X	1.0
512.481	1.0	go	0.407	Go_O	1.0
515.005	1.0	go	0.395	Go_X	1.0
517.529	1.0	go	0.551	Go_O	1.0
520.07	1.0	go	0.787	Go_X	1.0
522.594	1.0	go	0.456	Go_O	1.0
525.118	1.0	go	0.416	Go_O	1.0
527.643	1.0	go	0.359	Go_X	1.0
530.167	0.35	stop	0.516	Go_O	0.0
532.691	1.0	go	0.547	Go_O	1.0
535.215	1.0	go	0.488	Go_X	1.0
537.739	0.3	stop	0.42	Go_X	0.0
540.264	1.0	go	0.525	Go_O	1.0
542.788	1.0	go	0.55	Go_X	1.0
545.312	1.0	go	0.562	Go_X	1.0
547.836	1.0	go	0.462	Go_O	1.0
550.36	1.0	go	0.495	Go_X	1.0
552.885	0.25	stop	0.471	Go_O	0.0
555.425	1.0	go	0.528	Go_O	1.0
557.95	1.0	go	0.503	Go_O	1.0
560.474	1.0	go	0.366	Go_X	1.0
562.998	0.2	stop	0.0	Go_X	1.0
565.522	1.0	go	0.403	Go_X	1.0
568.047	0.25	stop	0.0	Go_O	1.0
570.587	1.0	go	0.537	Go_O	1.0
573.112	1.0	go	0.406	Go_X	1.0
575.636	1.0	go	0.465	Go_O	1.0
578.16	1.0	go	0.528	Go_O	1.0
580.684	1.0	go	0.517	Go_X	1.0
583.209	1.0	go	0.663	Go_O	1.0
585.733	1.0	go	0.384	Go_X	1.0
588.257	0.3	stop	0.515	Go_X	0.0
590.781	1.0	go	0.546	Go_O	1.0
593.305	1.0	go	0.407	Go_X	1.0
595.829	1.0	go	0.623	Go_O	1.0
598.354	1.0	go	0.469	Go_X	1.0
600.878	0.25	stop	0.0	Go_O	1.0
603.402	1.0	go	0.504	Go_O	1.0
605.926	0.3	stop	0.387	Go_X	0.0
608.451	1.0	go	0.474	Go_X	1.0
610.975	1.0	go	0.519	Go_X	1.0
613.499	0.25	stop	0.405	Go_O	0.0
616.023	1.0	go	0.492	Go_O	1.0
618.547	1.0	go	0.498	Go_O	1.0
621.072	1.0	go	0.4	Go_X	1.0
623.596	1.0	go	0.0	Go_O	0.0
626.12	1.0	go	0.537	Go_X	0.0
628.644	1.0	go	0.709	Go_X	1.0
631.168	1.0	go	0.712	Go_O	1.0
633.693	1.0	go	0.531	Go_X	0.0
636.217	1.0	go	0.69	Go_O	1.0
638.741	1.0	go	0.358	Go_X	1.0
641.265	0.2	stop	0.0	Go_X	1.0
643.789	1.0	go	0.365	Go_O	1.0
646.314	1.0	go	0.479	Go_O	1.0
648.838	0.25	stop	0.369	Go_O	0.0
651.379	1.0	go	0.559	Go_X	1.0
653.903	0.2	stop	0.0	Go_X	1.0
656.427	1.0	go	0.506	Go_X	1.0
658.951	1.0	go	0.463	Go_O	1.0
661.475	0.25	stop	0.0	Go_O	1.0
664.0	1.0	go	0.445	Go_O	1.0
666.524	0.3	stop	0.447	Go_X	0.0
669.048	1.0	go	0.515	Go_X	1.0
671.572	1.0	go	0.404	Go_X	1.0
674.096	1.0	go	0.435	Go_O	1.0
676.621	0.25	stop	0.419	Go_O	0.0
679.162	1.0	go	0.378	Go_O	1.0
681.686	1.0	go	0.467	Go_X	1.0
684.21	1.0	go	0.591	Go_X	1.0
686.734	1.0	go	0.618	Go_O	1.0
689.258	0.2	stop	0.0	Go_X	1.0
691.783	1.0	go	0.636	Go_X	1.0
694.307	1.0	go	0.637	Go_O	1.0
696.831	0.25	stop	0.416	Go_O	0.0
699.355	1.0	go	0.538	Go_O	1.0
701.879	1.0	go	0.482	Go_X	1.0
704.404	1.0	go	0.615	Go_O	1.0
706.945	1.0	go	0.535	Go_X	1.0
709.469	0.2	stop	0.0	Go_X	1.0
712.01	1.0	go	0.478	Go_X	1.0
714.534	0.25	stop	0.0	Go_O	1.0
717.075	1.0	go	0.494	Go_O	1.0
719.599	1.0	go	0.595	Go_O	1.0
722.123	0.3	stop	0.587	Go_X	0.0
724.647	1.0	go	0.366	Go_X	1.0
727.172	1.0	go	0.355	Go_O	1.0
729.696	1.0	go	0.609	Go_X	1.0
732.22	1.0	go	0.544	Go_X	1.0
734.744	0.25	stop	0.388	Go_O	0.0
737.268	1.0	go	0.586	Go_O	0.0
739.793	0.2	stop	0.0	Go_X	1.0
742.334	1.0	go	0.789	Go_O	1.0
744.858	1.0	go	0.34	Go_X	1.0
747.382	1.0	go	0.448	Go_O	1.0
749.906	1.0	go	0.341	Go_X	1.0
752.43	1.0	go	0.366	Go_O	1.0
754.955	1.0	go	0.356	Go_X	1.0
757.479	0.25	stop	0.342	Go_O	0.0
760.02	1.0	go	0.475	Go_O	1.0
762.544	1.0	go	0.46	Go_X	1.0
765.068	0.2	stop	0.0	Go_X	1.0
767.592	1.0	go	0.552	Go_X	1.0
770.117	1.0	go	0.486	Go_O	1.0
772.641	0.25	stop	0.0	Go_O	1.0
775.182	1.0	go	0.481	Go_O	1.0
777.706	1.0	go	0.512	Go_X	1.0
780.23	1.0	go	0.549	Go_O	1.0
782.754	1.0	go	0.791	Go_X	1.0
785.279	0.3	stop	0.439	Go_X	0.0
787.803	1.0	go	0.483	Go_X	1.0
790.344	0.25	stop	0.427	Go_O	0.0
792.884	1.0	go	0.437	Go_O	1.0
795.409	1.0	go	0.449	Go_O	1.0
797.933	1.0	go	0.458	Go_X	1.0
800.457	1.0	go	0.515	Go_O	1.0
802.981	1.0	go	0.405	Go_X	1.0
805.505	0.2	stop	0.0	Go_X	1.0
808.03	1.0	go	0.502	Go_O	1.0
810.554	1.0	go	0.438	Go_X	1.0
813.078	0.25	stop	0.424	Go_O	0.0
815.619	0.2	stop	0.0	Go_X	1.0
818.16	1.0	go	0.433	Go_X	1.0
820.684	1.0	go	0.399	Go_O	1.0
823.208	1.0	go	0.468	Go_O	1.0
825.733	1.0	go	0.334	Go_X	1.0
828.257	0.25	stop	0.0	Go_O	1.0
830.798	1.0	go	0.466	Go_O	1.0
