onset	duration	trial_type	response_time	stim_file	accuracy
0.5360000000000014	1.0	go	0.861	Go_X	0.0
3.061000000000007	1.0	go	0.499	Go_O	0.0
5.585000000000008	1.0	go	0.571	Go_O	0.0
8.109000000000009	1.0	go	0.74	Go_X	1.0
10.63300000000001	1.0	go	0.401	Go_X	0.0
13.15700000000001	1.0	go	0.785	Go_O	1.0
15.682000000000002	0.25	stopfail	0.625	Go_O	0.0
18.22200000000001	1.0	go	0.295	Go_X	1.0
20.747	0.2	stopsuccess	0.0	Go_X	1.0
23.28800000000001	1.0	go	0.242	Go_O	1.0
25.812000000000012	1.0	go	0.551	Go_X	1.0
28.336	1.0	go	0.255	Go_O	1.0
30.87700000000001	0.25	stopfail	0.37	Go_O	0.0
33.418000000000006	1.0	go	0.373	Go_O	1.0
35.94200000000001	1.0	go	0.259	Go_X	1.0
38.46600000000001	0.2	stopsuccess	0.0	Go_X	1.0
41.007000000000005	0.25	stopfail	0.448	Go_O	0.0
43.531000000000006	1.0	go	0.649	Go_O	1.0
46.05600000000001	1.0	go	0.374	Go_X	0.0
48.58000000000001	0.2	stopfail	0.474	Go_X	0.0
51.12100000000001	1.0	go	0.413	Go_X	1.0
53.64500000000001	1.0	go	0.254	Go_O	1.0
56.16900000000001	0.15	stopsuccess	0.0	Go_O	1.0
58.71000000000001	1.0	go	0.369	Go_O	1.0
61.23400000000001	1.0	go	0.598	Go_X	1.0
63.75800000000001	0.2	stopfail	0.569	Go_X	0.0
66.28300000000002	1.0	go	0.426	Go_X	1.0
68.80700000000002	1.0	go	0.317	Go_O	1.0
71.33100000000002	0.15	stopsuccess	0.0	Go_O	1.0
73.85500000000002	1.0	go	0.363	Go_O	1.0
76.37900000000002	1.0	go	0.515	Go_X	1.0
78.904	1.0	go	0.577	Go_O	1.0
81.428	1.0	go	0.578	Go_X	1.0
83.952	1.0	go	0.416	Go_X	1.0
86.476	0.2	stopsuccess	0.0	Go_X	1.0
89.0	1.0	go	0.381	Go_O	1.0
91.525	1.0	go	0.584	Go_X	1.0
94.049	1.0	go	0.362	Go_O	1.0
96.57300000000001	1.0	go	0.413	Go_O	1.0
99.09700000000001	1.0	go	0.44	Go_X	1.0
101.62100000000001	0.25	stopsuccess	0.0	Go_O	1.0
104.14600000000002	1.0	go	0.52	Go_O	1.0
106.67000000000002	1.0	go	0.517	Go_X	1.0
109.19400000000002	1.0	go	0.458	Go_X	1.0
111.73500000000001	1.0	go	0.338	Go_O	1.0
114.25900000000001	1.0	go	0.437	Go_O	1.0
116.78300000000002	1.0	go	0.443	Go_X	1.0
119.30799999999999	0.3	stopfail	0.449	Go_X	0.0
121.832	1.0	go	0.45	Go_O	1.0
124.356	1.0	go	0.418	Go_X	1.0
126.88	0.25	stopfail	0.374	Go_O	0.0
129.404	1.0	go	0.488	Go_X	1.0
131.929	0.2	stopsuccess	0.0	Go_X	1.0
134.47	0.25	stopfail	0.365	Go_O	0.0
137.01000000000002	1.0	go	0.443	Go_O	1.0
139.535	1.0	go	0.487	Go_X	1.0
142.059	1.0	go	0.401	Go_O	1.0
144.583	1.0	go	0.478	Go_O	1.0
147.107	0.2	stopsuccess	0.0	Go_X	1.0
149.631	1.0	go	0.469	Go_X	1.0
152.156	0.25	stopsuccess	0.0	Go_O	1.0
154.697	1.0	go	0.469	Go_O	1.0
157.221	1.0	go	0.353	Go_X	1.0
159.745	1.0	go	0.583	Go_O	1.0
162.269	1.0	go	0.607	Go_X	1.0
164.793	1.0	go	0.394	Go_X	1.0
167.318	1.0	go	0.44	Go_O	1.0
169.859	1.0	go	0.467	Go_O	1.0
172.383	1.0	go	0.358	Go_X	1.0
174.907	1.0	go	0.403	Go_O	1.0
177.431	0.3	stopfail	0.342	Go_X	0.0
179.955	1.0	go	0.531	Go_X	1.0
182.48000000000002	1.0	go	0.449	Go_O	1.0
185.00400000000002	1.0	go	0.444	Go_X	1.0
187.52800000000002	0.25	stopsuccess	0.0	Go_O	1.0
190.05200000000002	1.0	go	0.326	Go_X	1.0
192.57600000000002	1.0	go	0.69	Go_O	1.0
195.101	1.0	go	0.501	Go_O	1.0
197.625	1.0	go	0.455	Go_X	1.0
200.149	1.0	go	0.634	Go_O	1.0
202.673	1.0	go	0.563	Go_X	1.0
205.197	0.3	stopsuccess	0.0	Go_X	1.0
207.72199999999998	1.0	go	0.52	Go_X	1.0
210.24599999999998	1.0	go	0.493	Go_O	1.0
212.76999999999998	0.35	stopfail	0.543	Go_O	0.0
215.29399999999998	1.0	go	0.46	Go_O	1.0
217.81799999999998	1.0	go	0.482	Go_X	1.0
220.34300000000002	0.3	stopfail	0.441	Go_X	0.0
222.88400000000001	1.0	go	0.427	Go_O	1.0
225.40800000000002	0.25	stopfail	0.437	Go_O	0.0
227.93200000000002	1.0	go	0.431	Go_X	1.0
230.45600000000002	1.0	go	0.333	Go_O	1.0
232.98000000000002	1.0	go	0.4	Go_X	1.0
235.505	1.0	go	0.315	Go_O	1.0
238.029	1.0	go	0.375	Go_X	1.0
240.553	0.2	stopsuccess	0.0	Go_X	1.0
243.077	0.25	stopfail	0.393	Go_O	0.0
245.601	1.0	go	0.374	Go_O	1.0
248.12600000000003	1.0	go	0.396	Go_X	1.0
250.64999999999998	0.2	stopfail	0.42	Go_X	0.0
253.19100000000003	1.0	go	0.401	Go_X	1.0
255.71500000000003	1.0	go	0.633	Go_O	1.0
258.23900000000003	1.0	go	0.646	Go_X	1.0
260.76300000000003	1.0	go	0.437	Go_O	1.0
263.287	1.0	go	0.509	Go_X	1.0
265.812	1.0	go	0.828	Go_O	0.0
268.336	0.15	stopsuccess	0.0	Go_O	1.0
270.86	1.0	go	0.439	Go_O	1.0
273.384	1.0	go	0.399	Go_X	1.0
275.908	1.0	go	0.427	Go_X	1.0
278.433	1.0	go	0.36	Go_O	1.0
280.957	1.0	go	0.44	Go_O	1.0
283.481	0.2	stopfail	0.287	Go_X	0.0
286.005	1.0	go	0.494	Go_X	1.0
288.529	1.0	go	0.767	Go_O	1.0
291.05400000000003	1.0	go	0.0	Go_X	0.0
293.57800000000003	1.0	go	0.438	Go_X	1.0
296.106	0.15	stopsuccess	0.0	Go_O	1.0
298.64300000000003	1.0	go	0.516	Go_O	0.0
301.16700000000003	1.0	go	0.432	Go_X	0.0
303.69100000000003	0.2	stopfail	0.362	Go_X	0.0
306.216	1.0	go	0.404	Go_O	1.0
308.74	0.15	stopsuccess	0.0	Go_O	1.0
311.281	1.0	go	0.495	Go_X	1.0
313.805	1.0	go	0.817	Go_O	1.0
316.329	1.0	go	0.335	Go_O	1.0
318.853	1.0	go	0.399	Go_X	1.0
321.378	1.0	go	0.381	Go_X	1.0
323.902	1.0	go	0.385	Go_O	1.0
326.426	1.0	go	0.447	Go_X	0.0
328.95	0.2	stopsuccess	0.0	Go_X	1.0
331.474	1.0	go	0.404	Go_O	1.0
333.999	1.0	go	0.416	Go_X	1.0
336.523	1.0	go	0.602	Go_O	1.0
339.047	0.25	stopfail	0.434	Go_O	0.0
341.571	1.0	go	0.361	Go_X	1.0
344.095	1.0	go	0.713	Go_O	1.0
346.636	1.0	go	0.47	Go_X	1.0
349.161	1.0	go	0.357	Go_O	1.0
351.685	0.2	stopfail	0.417	Go_X	0.0
354.226	1.0	go	0.507	Go_X	1.0
356.75	1.0	go	0.4	Go_O	1.0
359.274	0.15	stopsuccess	0.0	Go_O	1.0
361.815	1.0	go	0.54	Go_O	1.0
364.339	1.0	go	0.4	Go_X	1.0
366.863	0.2	stopsuccess	0.0	Go_X	1.0
369.38800000000003	1.0	go	0.498	Go_X	1.0
371.912	1.0	go	0.618	Go_O	1.0
374.436	0.25	stopfail	0.428	Go_O	0.0
376.97700000000003	1.0	go	0.569	Go_X	1.0
379.50100000000003	1.0	go	0.457	Go_O	0.0
382.025	1.0	go	0.341	Go_O	1.0
384.549	1.0	go	0.456	Go_X	1.0
387.074	1.0	go	0.366	Go_O	1.0
389.598	1.0	go	0.358	Go_X	1.0
392.122	0.2	stopsuccess	0.0	Go_X	1.0
394.646	1.0	go	0.646	Go_X	1.0
397.171	0.25	stopfail	0.426	Go_O	0.0
399.711	1.0	go	0.498	Go_O	1.0
402.236	1.0	go	0.476	Go_O	1.0
404.761	1.0	go	0.449	Go_X	1.0
407.284	1.0	go	0.646	Go_O	1.0
409.808	1.0	go	0.369	Go_X	1.0
412.332	0.2	stopsuccess	0.0	Go_X	1.0
414.857	1.0	go	0.407	Go_X	1.0
417.38100000000003	1.0	go	0.548	Go_O	1.0
419.90500000000003	1.0	go	0.569	Go_O	1.0
422.42900000000003	0.25	stopfail	0.506	Go_O	0.0
424.97	0.2	stopsuccess	0.0	Go_X	1.0
427.494	0.25	stopsuccess	0.0	Go_O	1.0
430.035	1.0	go	0.487	Go_X	1.0
432.56	0.3	stopsuccess	0.0	Go_X	1.0
435.1	1.0	go	0.358	Go_X	1.0
437.625	1.0	go	0.407	Go_O	1.0
440.149	1.0	go	0.395	Go_X	1.0
442.673	1.0	go	0.551	Go_O	1.0
445.21400000000006	1.0	go	0.787	Go_X	1.0
447.73800000000006	1.0	go	0.456	Go_O	1.0
450.26200000000006	1.0	go	0.416	Go_O	1.0
452.78700000000003	1.0	go	0.359	Go_X	1.0
455.31100000000004	0.35	stopfail	0.516	Go_O	0.0
457.83500000000004	1.0	go	0.547	Go_O	1.0
460.35900000000004	1.0	go	0.488	Go_X	1.0
462.88300000000004	0.3	stopfail	0.42	Go_X	0.0
465.408	1.0	go	0.525	Go_O	1.0
467.932	1.0	go	0.55	Go_X	1.0
470.456	1.0	go	0.562	Go_X	1.0
472.98	1.0	go	0.462	Go_O	1.0
475.504	1.0	go	0.495	Go_X	1.0
478.029	0.25	stopfail	0.471	Go_O	0.0
480.56899999999996	1.0	go	0.528	Go_O	1.0
483.09400000000005	1.0	go	0.503	Go_O	1.0
485.61800000000005	1.0	go	0.366	Go_X	1.0
488.14200000000005	0.2	stopsuccess	0.0	Go_X	1.0
490.66600000000005	1.0	go	0.403	Go_X	1.0
493.19100000000003	0.25	stopsuccess	0.0	Go_O	1.0
495.731	1.0	go	0.537	Go_O	1.0
498.256	1.0	go	0.406	Go_X	1.0
500.78	1.0	go	0.465	Go_O	1.0
503.304	1.0	go	0.528	Go_O	1.0
505.828	1.0	go	0.517	Go_X	1.0
508.35299999999995	1.0	go	0.663	Go_O	1.0
510.87699999999995	1.0	go	0.384	Go_X	1.0
513.401	0.3	stopfail	0.515	Go_X	0.0
515.925	1.0	go	0.546	Go_O	1.0
518.449	1.0	go	0.407	Go_X	1.0
520.973	1.0	go	0.623	Go_O	1.0
523.498	1.0	go	0.469	Go_X	1.0
526.022	0.25	stopsuccess	0.0	Go_O	1.0
528.546	1.0	go	0.504	Go_O	1.0
531.07	0.3	stopfail	0.387	Go_X	0.0
533.595	1.0	go	0.474	Go_X	1.0
536.119	1.0	go	0.519	Go_X	1.0
538.643	0.25	stopfail	0.405	Go_O	0.0
541.167	1.0	go	0.492	Go_O	1.0
543.691	1.0	go	0.498	Go_O	1.0
546.216	1.0	go	0.4	Go_X	1.0
548.74	1.0	go	0.0	Go_O	0.0
551.264	1.0	go	0.537	Go_X	0.0
553.788	1.0	go	0.709	Go_X	1.0
556.312	1.0	go	0.712	Go_O	1.0
558.837	1.0	go	0.531	Go_X	0.0
561.361	1.0	go	0.69	Go_O	1.0
563.885	1.0	go	0.358	Go_X	1.0
566.409	0.2	stopsuccess	0.0	Go_X	1.0
568.933	1.0	go	0.365	Go_O	1.0
571.458	1.0	go	0.479	Go_O	1.0
573.982	0.25	stopfail	0.369	Go_O	0.0
576.523	1.0	go	0.559	Go_X	1.0
579.047	0.2	stopsuccess	0.0	Go_X	1.0
581.571	1.0	go	0.506	Go_X	1.0
584.095	1.0	go	0.463	Go_O	1.0
586.619	0.25	stopsuccess	0.0	Go_O	1.0
589.144	1.0	go	0.445	Go_O	1.0
591.668	0.3	stopfail	0.447	Go_X	0.0
594.192	1.0	go	0.515	Go_X	1.0
596.716	1.0	go	0.404	Go_X	1.0
599.24	1.0	go	0.435	Go_O	1.0
601.765	0.25	stopfail	0.419	Go_O	0.0
604.306	1.0	go	0.378	Go_O	1.0
606.83	1.0	go	0.467	Go_X	1.0
609.354	1.0	go	0.591	Go_X	1.0
611.878	1.0	go	0.618	Go_O	1.0
614.402	0.2	stopsuccess	0.0	Go_X	1.0
616.927	1.0	go	0.636	Go_X	1.0
619.451	1.0	go	0.637	Go_O	1.0
621.975	0.25	stopfail	0.416	Go_O	0.0
624.499	1.0	go	0.538	Go_O	1.0
627.023	1.0	go	0.482	Go_X	1.0
629.548	1.0	go	0.615	Go_O	1.0
632.089	1.0	go	0.535	Go_X	1.0
634.613	0.2	stopsuccess	0.0	Go_X	1.0
637.154	1.0	go	0.478	Go_X	1.0
639.678	0.25	stopsuccess	0.0	Go_O	1.0
642.219	1.0	go	0.494	Go_O	1.0
644.743	1.0	go	0.595	Go_O	1.0
647.267	0.3	stopfail	0.587	Go_X	0.0
649.791	1.0	go	0.366	Go_X	1.0
652.316	1.0	go	0.355	Go_O	1.0
654.84	1.0	go	0.609	Go_X	1.0
657.364	1.0	go	0.544	Go_X	1.0
659.888	0.25	stopfail	0.388	Go_O	0.0
662.412	1.0	go	0.586	Go_O	0.0
664.937	0.2	stopsuccess	0.0	Go_X	1.0
667.478	1.0	go	0.789	Go_O	1.0
670.002	1.0	go	0.34	Go_X	1.0
672.526	1.0	go	0.448	Go_O	1.0
675.05	1.0	go	0.341	Go_X	1.0
677.574	1.0	go	0.366	Go_O	1.0
680.099	1.0	go	0.356	Go_X	1.0
682.623	0.25	stopfail	0.342	Go_O	0.0
685.164	1.0	go	0.475	Go_O	1.0
687.688	1.0	go	0.46	Go_X	1.0
690.212	0.2	stopsuccess	0.0	Go_X	1.0
692.736	1.0	go	0.552	Go_X	1.0
695.261	1.0	go	0.486	Go_O	1.0
697.785	0.25	stopsuccess	0.0	Go_O	1.0
700.326	1.0	go	0.481	Go_O	1.0
702.85	1.0	go	0.512	Go_X	1.0
705.374	1.0	go	0.549	Go_O	1.0
707.898	1.0	go	0.791	Go_X	1.0
710.423	0.3	stopfail	0.439	Go_X	0.0
712.947	1.0	go	0.483	Go_X	1.0
715.488	0.25	stopfail	0.427	Go_O	0.0
718.028	1.0	go	0.437	Go_O	1.0
720.553	1.0	go	0.449	Go_O	1.0
723.077	1.0	go	0.458	Go_X	1.0
725.601	1.0	go	0.515	Go_O	1.0
728.125	1.0	go	0.405	Go_X	1.0
730.649	0.2	stopsuccess	0.0	Go_X	1.0
733.174	1.0	go	0.502	Go_O	1.0
735.698	1.0	go	0.438	Go_X	1.0
738.222	0.25	stopfail	0.424	Go_O	0.0
740.763	0.2	stopsuccess	0.0	Go_X	1.0
743.304	1.0	go	0.433	Go_X	1.0
745.828	1.0	go	0.399	Go_O	1.0
748.352	1.0	go	0.468	Go_O	1.0
750.877	1.0	go	0.334	Go_X	1.0
753.401	0.25	stopsuccess	0.0	Go_O	1.0
755.942	1.0	go	0.466	Go_O	1.0
