onset	duration	trial_type	response_time	stim_file	accuracy
480.689	1.0	go	0.0	Go_X	0.0
483.247	1.0	go	0.0	Go_O	0.0
485.771	1.0	go	0.0	Go_X	0.0
488.295	1.0	go	0.0	Go_O	0.0
490.82	1.0	go	0.0	Go_X	0.0
493.344	1.0	go	0.0	Go_O	0.0
495.868	0.25	stopsuccess	0.0	Go_O	1.0
498.392	1.0	go	0.0	Go_X	0.0
500.916	0.3	stopsuccess	0.0	Go_X	1.0
503.441	1.0	go	0.0	Go_O	0.0
505.965	1.0	go	0.0	Go_O	0.0
508.489	1.0	go	0.0	Go_X	0.0
511.013	0.35	stopsuccess	0.0	Go_O	1.0
513.537	1.0	go	0.0	Go_O	0.0
516.062	1.0	go	0.0	Go_X	0.0
518.586	0.4	stopsuccess	0.0	Go_X	1.0
521.11	0.45	stopsuccess	0.0	Go_O	1.0
523.634	1.0	go	0.0	Go_X	0.0
526.159	1.0	go	0.0	Go_O	0.0
528.683	0.5	stopsuccess	0.0	Go_X	1.0
531.207	1.0	go	0.0	Go_X	0.0
533.731	1.0	go	0.0	Go_O	0.0
536.255	0.55	stopsuccess	0.0	Go_O	1.0
538.78	1.0	go	0.782	Go_X	0.0
541.304	1.0	go	0.676	Go_O	1.0
543.828	0.6	stopfail	0.293	Go_X	0.0
546.352	1.0	go	0.376	Go_X	0.0
548.876	1.0	go	0.0	Go_O	0.0
551.401	0.55	stopsuccess	0.0	Go_O	1.0
553.925	1.0	go	0.0	Go_X	0.0
556.449	1.0	go	0.0	Go_O	0.0
558.973	1.0	go	0.0	Go_O	0.0
561.498	1.0	go	0.0	Go_X	0.0
564.022	1.0	go	0.0	Go_X	0.0
566.546	0.6	stopsuccess	0.0	Go_X	1.0
569.07	1.0	go	0.0	Go_O	0.0
571.594	1.0	go	0.263	Go_X	0.0
574.119	1.0	go	0.326	Go_O	1.0
576.643	1.0	go	0.0	Go_X	0.0
579.167	1.0	go	0.0	Go_O	0.0
581.691	0.65	stopsuccess	0.0	Go_O	1.0
584.215	1.0	go	0.0	Go_X	0.0
586.74	1.0	go	0.0	Go_O	0.0
589.264	1.0	go	0.0	Go_O	0.0
591.788	1.0	go	0.252	Go_X	0.0
594.312	1.0	go	0.222	Go_O	1.0
596.837	1.0	go	0.243	Go_X	0.0
599.361	0.7	stopfail	0.288	Go_X	0.0
601.885	1.0	go	0.269	Go_O	1.0
604.409	1.0	go	0.338	Go_X	0.0
606.933	0.65	stopsuccess	0.0	Go_O	1.0
609.458	1.0	go	0.0	Go_O	0.0
611.982	0.7	stopsuccess	0.0	Go_X	1.0
614.506	0.75	stopsuccess	0.0	Go_O	1.0
617.03	1.0	go	0.0	Go_X	0.0
619.554	1.0	go	0.0	Go_O	0.0
622.079	1.0	go	0.0	Go_X	0.0
624.603	1.0	go	0.0	Go_O	0.0
627.127	0.8	stopsuccess	0.0	Go_X	1.0
629.651	1.0	go	0.0	Go_X	0.0
632.176	0.85	stopsuccess	0.0	Go_O	1.0
634.7	1.0	go	0.0	Go_X	0.0
637.224	1.0	go	0.0	Go_O	0.0
639.748	1.0	go	0.0	Go_X	0.0
642.272	1.0	go	0.0	Go_O	0.0
644.797	1.0	go	0.0	Go_X	0.0
647.321	1.0	go	0.0	Go_O	0.0
649.845	1.0	go	0.0	Go_X	0.0
652.369	1.0	go	0.0	Go_O	0.0
654.893	1.0	go	0.0	Go_X	0.0
657.418	0.9	stopsuccess	0.0	Go_X	1.0
659.942	1.0	go	0.0	Go_O	0.0
662.466	1.0	go	0.0	Go_X	0.0
664.99	1.0	go	0.0	Go_O	0.0
667.515	0.95	stopfail	0.333	Go_O	0.0
670.039	1.0	go	0.425	Go_O	1.0
672.563	1.0	go	0.371	Go_X	1.0
675.087	1.0	go	0.201	Go_X	0.0
677.611	1.0	go	0.413	Go_O	1.0
680.136	1.0	go	0.282	Go_X	1.0
682.66	1.0	go	0.416	Go_O	1.0
685.184	0.9	stopfail	0.413	Go_X	0.0
687.708	1.0	go	0.253	Go_O	1.0
690.232	1.0	go	0.55	Go_X	1.0
692.757	0.85	stopfail	0.364	Go_O	0.0
695.281	1.0	go	0.438	Go_O	0.0
697.805	1.0	go	0.292	Go_X	1.0
700.329	0.8	stopfail	0.217	Go_X	0.0
702.854	1.0	go	0.343	Go_O	1.0
705.378	0.75	stopfail	0.493	Go_O	0.0
707.902	1.0	go	0.585	Go_X	1.0
710.426	1.0	go	0.543	Go_X	1.0
712.95	1.0	go	0.392	Go_O	1.0
715.475	1.0	go	0.474	Go_O	0.0
717.999	1.0	go	0.522	Go_X	1.0
720.523	0.7	stopfail	0.507	Go_X	0.0
723.047	0.65	stopfail	0.403	Go_O	0.0
725.571	1.0	go	0.455	Go_X	1.0
728.096	1.0	go	0.407	Go_O	1.0
730.62	0.6	stopfail	0.482	Go_X	0.0
733.144	1.0	go	0.0	Go_O	0.0
735.668	1.0	go	0.532	Go_X	1.0
738.192	1.0	go	0.389	Go_O	1.0
740.717	1.0	go	0.734	Go_X	1.0
743.241	1.0	go	0.807	Go_O	1.0
745.765	1.0	go	0.556	Go_X	1.0
748.289	0.55	stopfail	0.393	Go_O	0.0
750.814	1.0	go	0.336	Go_X	1.0
753.338	1.0	go	0.773	Go_O	1.0
755.862	1.0	go	0.0	Go_O	0.0
758.386	1.0	go	0.0	Go_X	0.0
760.91	1.0	go	0.486	Go_X	1.0
763.435	0.5	stopfail	0.451	Go_X	0.0
765.959	1.0	go	0.478	Go_O	1.0
768.483	1.0	go	0.541	Go_O	1.0
771.007	1.0	go	0.408	Go_X	1.0
773.531	1.0	go	0.35	Go_X	0.0
776.056	0.45	stopfail	0.328	Go_O	0.0
778.58	1.0	go	0.557	Go_O	1.0
781.104	1.0	go	0.422	Go_X	1.0
783.628	0.4	stopfail	0.507	Go_X	0.0
786.153	1.0	go	0.551	Go_O	1.0
788.677	0.35	stopsuccess	0.0	Go_O	1.0
791.201	1.0	go	0.426	Go_O	1.0
793.725	1.0	go	0.606	Go_X	1.0
796.249	1.0	go	0.535	Go_X	1.0
798.774	1.0	go	0.562	Go_O	1.0
801.298	1.0	go	0.56	Go_X	1.0
803.822	1.0	go	0.295	Go_O	1.0
806.346	1.0	go	0.64	Go_O	1.0
808.87	0.4	stopfail	0.681	Go_X	0.0
811.395	1.0	go	0.498	Go_X	1.0
813.919	1.0	go	0.591	Go_X	1.0
816.443	1.0	go	0.561	Go_O	1.0
818.967	0.35	stopsuccess	0.0	Go_O	1.0
821.492	1.0	go	0.483	Go_X	1.0
824.016	1.0	go	0.805	Go_O	1.0
826.54	1.0	go	0.467	Go_X	1.0
829.064	1.0	go	0.358	Go_O	1.0
831.588	0.4	stopfail	0.394	Go_X	0.0
834.113	1.0	go	0.482	Go_X	1.0
836.637	1.0	go	0.658	Go_O	1.0
839.161	0.35	stopsuccess	0.0	Go_O	1.0
841.685	1.0	go	0.5	Go_O	1.0
844.209	1.0	go	0.272	Go_X	1.0
846.734	0.4	stopfail	0.506	Go_X	0.0
849.258	1.0	go	0.595	Go_X	1.0
851.782	1.0	go	0.415	Go_O	1.0
854.306	0.35	stopfail	0.592	Go_O	0.0
856.831	1.0	go	0.555	Go_X	1.0
859.355	1.0	go	0.544	Go_O	1.0
861.879	1.0	go	0.565	Go_O	1.0
864.403	1.0	go	0.542	Go_X	1.0
866.927	1.0	go	0.498	Go_X	1.0
869.452	1.0	go	0.44	Go_O	1.0
871.976	0.3	stopfail	0.349	Go_X	0.0
874.5	1.0	go	0.484	Go_O	1.0
877.024	0.25	stopsuccess	0.0	Go_O	1.0
879.548	1.0	go	0.379	Go_X	1.0
882.073	1.0	go	0.41	Go_O	1.0
884.597	1.0	go	0.472	Go_X	1.0
887.121	1.0	go	0.506	Go_O	1.0
889.645	1.0	go	0.619	Go_X	1.0
892.17	0.3	stopsuccess	0.0	Go_X	1.0
894.694	1.0	go	0.631	Go_X	1.0
897.218	1.0	go	0.515	Go_O	1.0
899.742	1.0	go	0.605	Go_X	1.0
902.266	0.35	stopfail	0.621	Go_O	0.0
904.791	0.3	stopfail	0.309	Go_X	0.0
907.315	0.25	stopfail	0.642	Go_O	0.0
909.839	1.0	go	0.713	Go_O	1.0
912.363	0.2	stopfail	0.314	Go_X	0.0
914.887	1.0	go	0.304	Go_O	1.0
917.412	1.0	go	0.513	Go_X	1.0
919.936	1.0	go	0.756	Go_O	1.0
922.46	1.0	go	0.722	Go_X	1.0
924.984	1.0	go	0.795	Go_X	1.0
927.509	1.0	go	0.542	Go_O	1.0
930.033	1.0	go	0.503	Go_O	1.0
932.557	1.0	go	0.504	Go_X	1.0
935.081	0.15	stopfail	0.445	Go_O	0.0
937.605	1.0	go	0.253	Go_O	0.0
940.13	1.0	go	0.403	Go_X	1.0
942.654	0.1	stopfail	0.441	Go_X	0.0
945.178	1.0	go	0.371	Go_O	1.0
947.702	1.0	go	0.483	Go_X	1.0
950.226	1.0	go	0.6	Go_O	1.0
952.751	1.0	go	0.783	Go_X	1.0
955.275	1.0	go	0.569	Go_O	1.0
957.799	0.05	stopfail	0.772	Go_O	0.0
960.323	1.0	go	0.575	Go_X	1.0
962.848	1.0	go	0.0	Go_O	0.0
965.372	1.0	go	0.354	Go_X	1.0
967.896	0.0	stopfail	0.604	Go_X	0.0
970.437	1.0	go	0.539	Go_X	1.0
972.961	0.0	stopfail	0.421	Go_O	0.0
975.502	1.0	go	0.395	Go_O	1.0
978.026	1.0	go	0.498	Go_O	1.0
980.55	1.0	go	0.67	Go_X	1.0
983.075	1.0	go	0.539	Go_O	1.0
985.599	1.0	go	0.447	Go_X	1.0
988.123	1.0	go	0.477	Go_O	1.0
990.647	1.0	go	0.2	Go_X	1.0
993.172	0.0	stopsuccess	0.0	Go_X	1.0
995.712	1.0	go	0.352	Go_O	1.0
998.237	1.0	go	0.429	Go_X	1.0
1000.761	1.0	go	0.534	Go_O	1.0
1003.285	1.0	go	0.657	Go_X	1.0
1005.809	0.05	stopsuccess	0.0	Go_O	1.0
1008.334	1.0	go	0.491	Go_X	1.0
1010.858	0.1	stopsuccess	0.0	Go_X	1.0
1013.382	1.0	go	0.817	Go_O	1.0
1015.906	1.0	go	0.734	Go_O	1.0
1018.43	0.15	stopsuccess	0.0	Go_O	1.0
1020.955	1.0	go	0.491	Go_X	1.0
1023.479	1.0	go	0.418	Go_X	1.0
1026.003	1.0	go	0.577	Go_O	1.0
1028.527	1.0	go	0.435	Go_X	1.0
1031.051	1.0	go	0.865	Go_O	1.0
1033.576	1.0	go	0.335	Go_X	1.0
1036.1	1.0	go	0.612	Go_O	1.0
1038.624	1.0	go	0.804	Go_O	1.0
1041.148	1.0	go	0.332	Go_X	1.0
1043.673	1.0	go	0.414	Go_X	1.0
1046.197	0.2	stopfail	0.347	Go_X	0.0
1048.721	1.0	go	0.484	Go_O	1.0
1051.245	1.0	go	0.603	Go_X	1.0
1053.769	0.15	stopsuccess	0.0	Go_O	1.0
1056.294	1.0	go	0.439	Go_O	1.0
1058.818	0.2	stopfail	0.332	Go_X	0.0
1061.342	1.0	go	0.518	Go_O	1.0
1063.866	1.0	go	0.532	Go_X	1.0
1066.39	0.15	stopsuccess	0.0	Go_O	1.0
1068.915	1.0	go	0.71	Go_X	1.0
1071.439	0.2	stopsuccess	0.0	Go_X	1.0
1073.963	1.0	go	0.593	Go_O	1.0
1076.487	1.0	go	0.382	Go_X	1.0
1079.012	1.0	go	0.0	Go_O	0.0
1081.536	0.25	stopsuccess	0.0	Go_O	1.0
1084.06	1.0	go	0.685	Go_O	1.0
1086.584	1.0	go	0.631	Go_X	1.0
1089.108	1.0	go	0.522	Go_X	1.0
1091.633	1.0	go	0.779	Go_O	1.0
1094.157	0.3	stopsuccess	0.0	Go_X	1.0
1096.681	1.0	go	0.699	Go_O	1.0
1099.205	1.0	go	0.332	Go_X	1.0
1101.729	0.35	stopfail	0.22	Go_O	0.0
1104.254	1.0	go	0.411	Go_X	1.0
1106.778	1.0	go	0.351	Go_O	1.0
1109.302	1.0	go	0.303	Go_O	0.0
1111.826	1.0	go	0.472	Go_X	1.0
1114.351	0.3	stopfail	0.487	Go_X	0.0
1116.875	1.0	go	0.546	Go_X	1.0
1119.399	0.25	stopfail	0.342	Go_O	0.0
1121.923	1.0	go	0.3	Go_O	0.0
1124.447	1.0	go	0.654	Go_O	1.0
1126.972	0.2	stopfail	0.277	Go_X	0.0
1129.496	1.0	go	0.332	Go_X	0.0
1132.02	1.0	go	0.256	Go_X	1.0
1134.544	1.0	go	0.454	Go_O	1.0
1137.068	1.0	go	0.589	Go_O	1.0
1139.593	0.15	stopsuccess	0.0	Go_O	1.0
1142.117	1.0	go	0.333	Go_X	1.0
1144.641	0.2	stopsuccess	0.0	Go_X	1.0
1147.165	1.0	go	0.755	Go_O	1.0
1149.69	1.0	go	0.454	Go_X	1.0
1152.214	1.0	go	0.607	Go_X	1.0
1154.738	1.0	go	0.337	Go_O	1.0
1157.262	1.0	go	0.585	Go_O	1.0
1159.786	1.0	go	0.493	Go_X	1.0
1162.311	0.25	stopfail	0.502	Go_O	0.0
1164.835	1.0	go	0.383	Go_X	1.0
1167.359	1.0	go	0.599	Go_O	1.0
1169.883	0.2	stopfail	0.515	Go_X	0.0
1172.407	1.0	go	0.44	Go_O	1.0
1174.932	1.0	go	0.924	Go_X	1.0
1177.456	0.15	stopfail	0.317	Go_O	0.0
1179.98	1.0	go	0.72	Go_X	1.0
1182.504	1.0	go	0.704	Go_O	1.0
1185.029	1.0	go	0.825	Go_O	1.0
1187.553	1.0	go	0.398	Go_X	1.0
1190.077	0.1	stopsuccess	0.0	Go_X	1.0
1192.601	1.0	go	0.658	Go_X	1.0
1195.125	0.15	stopsuccess	0.0	Go_O	1.0
1197.65	1.0	go	0.559	Go_O	1.0
1200.174	1.0	go	0.638	Go_O	1.0
1202.698	1.0	go	0.5	Go_X	1.0
1205.222	1.0	go	0.637	Go_X	1.0
1207.746	1.0	go	0.575	Go_O	1.0
1210.271	0.2	stopfail	0.325	Go_X	0.0
1212.795	1.0	go	0.402	Go_O	1.0
1215.319	1.0	go	0.511	Go_X	1.0
1217.843	0.15	stopsuccess	0.0	Go_O	1.0
1220.368	0.2	stopsuccess	0.0	Go_X	1.0
1222.892	1.0	go	0.597	Go_O	1.0
1225.416	1.0	go	0.88	Go_X	1.0
1227.94	1.0	go	0.362	Go_O	1.0
1230.464	1.0	go	0.993	Go_X	1.0
1232.989	0.25	stopfail	0.429	Go_O	0.0
1235.513	1.0	go	0.683	Go_O	1.0
