onset	duration	trial_type	response_time	stim_file	accuracy
82.667	1.0	go	0.834	Go_X	0.0
85.191	1.0	go	0.442	Go_O	1.0
87.716	1.0	go	0.443	Go_O	1.0
90.24	1.0	go	0.409	Go_X	1.0
92.764	1.0	go	0.425	Go_O	1.0
95.288	1.0	go	0.351	Go_X	1.0
97.812	0.25	stop	0.348	Go_O	0.0
100.337	1.0	go	0.0	Go_O	0.0
102.861	0.2	stop	0.401	Go_X	0.0
105.385	1.0	go	0.232	Go_X	0.0
107.909	1.0	go	0.473	Go_X	1.0
110.433	1.0	go	0.0	Go_O	0.0
112.958	0.15	stop	0.0	Go_O	1.0
115.482	1.0	go	0.429	Go_O	1.0
118.006	1.0	go	0.478	Go_X	1.0
120.53	0.2	stop	0.0	Go_X	1.0
123.054	0.25	stop	0.357	Go_O	0.0
125.579	1.0	go	0.542	Go_X	1.0
128.103	1.0	go	0.42	Go_O	1.0
130.627	0.2	stop	0.0	Go_X	1.0
133.151	1.0	go	0.511	Go_X	1.0
135.676	1.0	go	0.681	Go_O	1.0
138.2	0.25	stop	0.0	Go_O	1.0
140.724	1.0	go	0.796	Go_O	1.0
143.248	1.0	go	0.0	Go_X	0.0
145.772	0.3	stop	0.0	Go_X	1.0
148.296	1.0	go	0.489	Go_X	1.0
150.821	1.0	go	0.343	Go_O	1.0
153.345	0.35	stop	0.0	Go_O	1.0
155.886	1.0	go	0.539	Go_O	1.0
158.41	1.0	go	0.494	Go_X	1.0
160.934	1.0	go	0.438	Go_O	1.0
163.458	1.0	go	0.701	Go_X	1.0
165.983	1.0	go	0.491	Go_O	1.0
168.507	0.4	stop	0.0	Go_X	1.0
171.031	1.0	go	0.516	Go_X	1.0
173.555	1.0	go	0.371	Go_O	1.0
176.079	1.0	go	0.647	Go_X	0.0
178.604	1.0	go	0.444	Go_O	1.0
181.128	1.0	go	0.485	Go_X	1.0
183.652	0.45	stop	0.688	Go_O	0.0
186.176	1.0	go	0.674	Go_O	1.0
188.7	1.0	go	0.546	Go_X	1.0
191.225	1.0	go	0.815	Go_X	1.0
193.749	1.0	go	0.381	Go_O	1.0
196.273	1.0	go	0.0	Go_X	0.0
198.797	1.0	go	0.515	Go_O	1.0
201.321	0.4	stop	0.305	Go_X	0.0
203.846	1.0	go	0.37	Go_O	1.0
206.37	1.0	go	0.493	Go_X	1.0
208.894	0.35	stop	0.384	Go_O	0.0
211.418	1.0	go	0.52	Go_O	1.0
213.943	0.3	stop	0.0	Go_X	1.0
216.467	0.35	stop	0.0	Go_O	1.0
218.991	1.0	go	0.312	Go_X	1.0
221.515	1.0	go	0.439	Go_O	1.0
224.039	1.0	go	0.741	Go_X	1.0
226.564	1.0	go	0.0	Go_X	0.0
229.088	0.4	stop	0.579	Go_X	0.0
231.612	1.0	go	0.464	Go_O	1.0
234.136	0.35	stop	0.418	Go_O	0.0
236.66	1.0	go	0.749	Go_X	1.0
239.185	1.0	go	0.695	Go_O	1.0
241.709	1.0	go	0.513	Go_O	1.0
244.233	1.0	go	0.615	Go_X	1.0
246.757	1.0	go	0.546	Go_X	1.0
249.281	1.0	go	0.514	Go_O	1.0
251.806	1.0	go	0.513	Go_X	1.0
254.33	1.0	go	0.537	Go_O	1.0
256.854	1.0	go	0.783	Go_X	1.0
259.378	0.3	stop	0.0	Go_X	1.0
261.902	1.0	go	0.954	Go_O	1.0
264.427	1.0	go	0.529	Go_O	1.0
266.951	1.0	go	0.521	Go_X	1.0
269.475	0.35	stop	0.0	Go_O	1.0
271.999	1.0	go	0.796	Go_O	1.0
274.523	1.0	go	0.518	Go_X	1.0
277.048	1.0	go	0.405	Go_O	1.0
279.572	1.0	go	0.706	Go_X	1.0
282.096	1.0	go	0.801	Go_X	0.0
284.62	1.0	go	0.794	Go_O	1.0
287.144	0.4	stop	0.0	Go_X	1.0
289.669	1.0	go	0.447	Go_O	1.0
292.193	1.0	go	0.649	Go_X	1.0
294.717	0.45	stop	0.585	Go_O	0.0
297.241	1.0	go	0.701	Go_X	1.0
299.765	1.0	go	0.514	Go_O	1.0
302.29	0.4	stop	0.791	Go_X	0.0
304.814	1.0	go	0.721	Go_X	1.0
307.338	0.35	stop	0.511	Go_O	0.0
309.862	1.0	go	0.553	Go_O	1.0
312.386	1.0	go	0.562	Go_O	1.0
314.911	1.0	go	0.514	Go_X	1.0
317.435	1.0	go	0.621	Go_O	1.0
319.959	1.0	go	0.613	Go_X	1.0
322.483	0.3	stop	0.0	Go_X	1.0
325.007	0.35	stop	0.0	Go_O	1.0
327.532	1.0	go	0.532	Go_X	1.0
330.056	1.0	go	0.0	Go_O	0.0
332.58	0.4	stop	0.559	Go_X	0.0
335.104	1.0	go	0.536	Go_X	1.0
337.628	1.0	go	0.679	Go_O	1.0
340.153	1.0	go	0.0	Go_O	0.0
342.677	1.0	go	0.432	Go_X	1.0
345.201	1.0	go	0.266	Go_X	0.0
347.725	1.0	go	0.799	Go_O	1.0
350.249	0.35	stop	0.0	Go_O	1.0
352.774	1.0	go	0.738	Go_O	1.0
355.298	1.0	go	0.512	Go_X	1.0
357.822	1.0	go	0.457	Go_O	1.0
360.346	1.0	go	0.0	Go_X	0.0
362.872	1.0	go	0.47	Go_O	1.0
365.395	0.4	stop	0.625	Go_X	0.0
367.919	1.0	go	0.619	Go_X	1.0
370.443	1.0	go	0.745	Go_X	1.0
372.967	1.0	go	0.476	Go_O	1.0
375.492	1.0	go	0.634	Go_X	0.0
378.016	0.35	stop	0.387	Go_O	0.0
380.54	1.0	go	0.49	Go_O	1.0
383.064	1.0	go	0.723	Go_O	1.0
385.605	0.3	stop	0.0	Go_X	1.0
388.129	1.0	go	0.558	Go_X	1.0
390.653	0.35	stop	0.481	Go_O	0.0
393.178	1.0	go	0.454	Go_X	1.0
395.702	1.0	go	0.714	Go_O	1.0
398.226	1.0	go	0.508	Go_O	1.0
400.75	1.0	go	0.779	Go_X	1.0
403.274	1.0	go	0.687	Go_X	1.0
405.799	1.0	go	0.457	Go_O	1.0
408.323	1.0	go	0.0	Go_X	0.0
410.847	0.3	stop	0.0	Go_X	1.0
413.371	1.0	go	0.428	Go_O	1.0
415.895	1.0	go	0.622	Go_O	1.0
418.42	1.0	go	0.691	Go_X	1.0
420.944	0.35	stop	0.0	Go_O	1.0
423.468	1.0	go	0.66	Go_O	1.0
425.992	1.0	go	0.927	Go_X	1.0
428.516	1.0	go	0.737	Go_O	1.0
431.041	1.0	go	0.763	Go_X	1.0
433.565	0.4	stop	0.0	Go_X	1.0
436.089	1.0	go	0.721	Go_X	1.0
438.613	1.0	go	0.739	Go_O	1.0
441.137	0.45	stop	0.44	Go_O	0.0
443.662	1.0	go	0.495	Go_O	1.0
446.186	1.0	go	0.75	Go_X	1.0
448.71	0.4	stop	0.581	Go_X	0.0
451.234	1.0	go	0.745	Go_X	1.0
453.759	1.0	go	0.446	Go_O	1.0
456.283	0.35	stop	0.459	Go_O	0.0
458.807	1.0	go	0.0	Go_X	0.0
461.331	1.0	go	0.534	Go_O	1.0
463.855	1.0	go	0.504	Go_O	1.0
466.38	1.0	go	0.612	Go_X	1.0
468.904	1.0	go	0.543	Go_O	1.0
471.428	1.0	go	0.0	Go_X	0.0
473.952	0.3	stop	0.0	Go_X	1.0
476.476	1.0	go	0.552	Go_O	1.0
479.001	0.35	stop	0.0	Go_O	1.0
481.525	1.0	go	0.684	Go_X	1.0
484.049	1.0	go	0.629	Go_O	1.0
486.573	1.0	go	0.0	Go_X	0.0
489.097	1.0	go	0.0	Go_X	0.0
491.622	1.0	go	0.689	Go_O	1.0
494.146	0.4	stop	0.577	Go_X	0.0
496.671	1.0	go	0.56	Go_O	1.0
499.194	1.0	go	0.653	Go_X	1.0
501.718	1.0	go	0.645	Go_O	1.0
504.243	0.35	stop	0.553	Go_O	0.0
506.767	0.3	stop	0.0	Go_X	1.0
509.291	0.35	stop	0.0	Go_O	1.0
511.815	1.0	go	0.0	Go_X	0.0
514.339	0.4	stop	0.0	Go_X	1.0
516.864	1.0	go	0.969	Go_X	0.0
519.388	1.0	go	0.4	Go_O	1.0
521.912	1.0	go	0.547	Go_O	1.0
524.436	1.0	go	0.922	Go_X	1.0
526.96	1.0	go	0.0	Go_X	0.0
529.485	1.0	go	0.939	Go_O	1.0
532.009	1.0	go	0.489	Go_O	1.0
534.533	1.0	go	0.817	Go_X	1.0
537.057	0.45	stop	0.467	Go_O	0.0
539.581	1.0	go	0.861	Go_X	1.0
542.106	1.0	go	0.726	Go_O	1.0
544.63	0.4	stop	0.0	Go_X	1.0
547.171	1.0	go	0.945	Go_O	0.0
549.695	1.0	go	0.0	Go_X	0.0
552.219	1.0	go	0.638	Go_X	1.0
554.743	1.0	go	0.635	Go_O	1.0
557.268	1.0	go	0.633	Go_O	1.0
559.792	0.45	stop	0.784	Go_O	0.0
562.316	1.0	go	0.544	Go_X	1.0
564.84	1.0	go	0.503	Go_O	1.0
567.364	1.0	go	0.66	Go_X	1.0
569.889	0.4	stop	0.572	Go_X	0.0
572.413	1.0	go	0.683	Go_O	1.0
574.937	0.35	stop	0.0	Go_O	1.0
577.461	1.0	go	0.0	Go_X	0.0
579.985	1.0	go	0.54	Go_O	1.0
582.51	1.0	go	0.628	Go_X	1.0
585.034	1.0	go	0.876	Go_X	0.0
587.558	1.0	go	0.0	Go_O	0.0
590.082	1.0	go	0.795	Go_X	1.0
592.606	1.0	go	0.908	Go_O	1.0
595.131	0.4	stop	0.372	Go_X	0.0
597.655	1.0	go	0.227	Go_X	0.0
600.179	1.0	go	0.532	Go_O	1.0
602.703	1.0	go	0.515	Go_O	1.0
605.227	1.0	go	0.526	Go_X	1.0
607.752	0.35	stop	0.721	Go_O	0.0
610.276	1.0	go	0.841	Go_O	1.0
612.8	0.3	stop	0.648	Go_X	0.0
615.324	1.0	go	0.344	Go_X	0.0
617.848	1.0	go	0.576	Go_O	1.0
620.373	0.25	stop	0.0	Go_O	1.0
622.897	1.0	go	0.565	Go_X	1.0
625.421	1.0	go	0.589	Go_X	1.0
627.945	1.0	go	0.536	Go_O	1.0
630.469	1.0	go	0.0	Go_X	0.0
632.994	1.0	go	0.0	Go_O	0.0
635.518	1.0	go	0.0	Go_X	0.0
638.042	1.0	go	0.398	Go_O	1.0
640.566	1.0	go	0.501	Go_X	1.0
643.09	1.0	go	0.7	Go_O	1.0
645.615	1.0	go	0.754	Go_X	1.0
648.139	0.3	stop	0.391	Go_X	0.0
650.663	1.0	go	0.261	Go_O	1.0
653.187	1.0	go	0.333	Go_O	1.0
655.711	0.25	stop	0.429	Go_O	0.0
658.236	1.0	go	0.551	Go_X	1.0
660.76	0.2	stop	0.0	Go_X	1.0
663.284	1.0	go	0.736	Go_X	1.0
665.808	1.0	go	0.0	Go_O	0.0
668.332	0.25	stop	0.354	Go_O	0.0
670.857	1.0	go	0.366	Go_O	1.0
673.381	0.2	stop	0.0	Go_X	1.0
675.905	1.0	go	0.0	Go_X	0.0
678.429	1.0	go	0.434	Go_X	1.0
680.953	1.0	go	0.702	Go_O	1.0
683.478	0.25	stop	0.0	Go_O	1.0
686.002	1.0	go	0.792	Go_O	1.0
688.526	1.0	go	0.802	Go_X	1.0
691.05	1.0	go	0.686	Go_O	1.0
693.575	1.0	go	0.809	Go_X	1.0
696.099	0.3	stop	0.0	Go_X	1.0
698.623	1.0	go	0.792	Go_O	0.0
701.147	1.0	go	0.583	Go_X	1.0
703.671	0.35	stop	0.493	Go_O	0.0
706.196	1.0	go	0.679	Go_X	1.0
708.72	1.0	go	0.715	Go_O	1.0
711.244	1.0	go	0.689	Go_O	1.0
713.768	1.0	go	0.614	Go_X	1.0
716.292	0.3	stop	0.0	Go_X	1.0
718.817	1.0	go	0.0	Go_O	0.0
721.341	0.35	stop	0.498	Go_O	0.0
723.865	1.0	go	0.873	Go_X	1.0
726.389	1.0	go	0.431	Go_O	1.0
728.913	0.3	stop	0.0	Go_X	1.0
731.438	1.0	go	0.833	Go_X	1.0
733.962	1.0	go	0.0	Go_X	0.0
736.486	1.0	go	0.664	Go_O	1.0
739.01	1.0	go	0.453	Go_X	1.0
741.534	0.35	stop	0.378	Go_O	0.0
744.059	1.0	go	0.602	Go_O	1.0
746.583	0.3	stop	0.563	Go_X	0.0
749.107	1.0	go	0.475	Go_O	0.0
751.631	1.0	go	0.489	Go_X	0.0
754.155	1.0	go	0.846	Go_O	0.0
756.68	1.0	go	0.539	Go_X	0.0
759.204	1.0	go	0.727	Go_X	0.0
761.728	1.0	go	0.925	Go_O	1.0
764.252	0.25	stop	0.664	Go_O	0.0
766.776	1.0	go	0.715	Go_O	1.0
769.301	1.0	go	0.705	Go_X	0.0
771.825	0.2	stop	0.0	Go_X	1.0
774.349	1.0	go	0.78	Go_O	1.0
776.873	1.0	go	0.701	Go_X	1.0
779.397	0.25	stop	0.0	Go_O	1.0
781.922	1.0	go	0.507	Go_X	1.0
784.446	1.0	go	0.425	Go_O	1.0
786.97	1.0	go	0.602	Go_O	1.0
789.494	1.0	go	0.514	Go_X	1.0
792.018	0.3	stop	0.586	Go_X	0.0
794.543	1.0	go	0.544	Go_X	1.0
797.067	0.25	stop	0.571	Go_O	0.0
799.591	1.0	go	0.476	Go_O	1.0
802.115	1.0	go	0.722	Go_X	1.0
804.639	1.0	go	0.854	Go_O	1.0
807.164	1.0	go	0.646	Go_O	1.0
809.688	1.0	go	0.837	Go_X	1.0
812.229	0.2	stop	0.317	Go_X	0.0
814.753	1.0	go	0.697	Go_X	0.0
817.277	1.0	go	0.618	Go_O	1.0
819.801	0.15	stop	0.0	Go_O	1.0
822.326	0.2	stop	0.243	Go_X	0.0
824.85	1.0	go	0.611	Go_X	1.0
827.374	1.0	go	0.974	Go_O	1.0
829.898	1.0	go	0.561	Go_O	1.0
832.422	1.0	go	0.526	Go_X	1.0
834.947	0.15	stop	0.0	Go_O	1.0
837.471	1.0	go	0.762	Go_X	1.0
