onset	duration	trial_type	response_time	stim_file	accuracy
87.89	1.0	go	0.76	Go_O	1.0
90.423	1.0	go	0.665	Go_X	1.0
92.957	1.0	go	0.799	Go_O	1.0
95.49	1.0	go	0.75	Go_X	1.0
98.023	1.0	go	0.772	Go_X	1.0
100.556	1.0	go	0.765	Go_O	1.0
103.09	0.25	stop	0.0	Go_O	1.0
105.623	1.0	go	0.711	Go_O	1.0
108.156	0.3	stop	0.0	Go_X	1.0
110.689	1.0	go	0.625	Go_X	1.0
113.223	1.0	go	0.0	Go_X	0.0
115.756	1.0	go	0.704	Go_O	1.0
118.289	0.35	stop	0.0	Go_O	1.0
120.822	1.0	go	0.571	Go_X	1.0
123.356	1.0	go	0.671	Go_O	1.0
125.889	0.4	stop	0.0	Go_X	1.0
128.422	0.45	stop	0.0	Go_O	1.0
130.956	1.0	go	0.738	Go_O	1.0
133.489	1.0	go	0.0	Go_X	0.0
136.022	0.5	stop	0.526	Go_X	0.0
138.555	1.0	go	0.51	Go_O	1.0
141.089	1.0	go	0.861	Go_X	1.0
143.622	0.45	stop	0.0	Go_O	1.0
146.155	1.0	go	0.774	Go_O	1.0
148.688	1.0	go	0.443	Go_X	1.0
151.222	0.5	stop	0.0	Go_X	1.0
153.755	1.0	go	0.979	Go_O	1.0
156.288	1.0	go	0.438	Go_X	1.0
158.821	0.55	stop	0.62	Go_O	0.0
161.355	1.0	go	0.98	Go_O	1.0
163.888	1.0	go	0.571	Go_X	1.0
166.421	1.0	go	0.0	Go_O	0.0
168.955	1.0	go	0.517	Go_X	1.0
171.504	1.0	go	0.626	Go_O	1.0
174.038	0.5	stop	0.588	Go_X	0.0
176.571	1.0	go	0.567	Go_X	1.0
179.104	1.0	go	0.625	Go_O	1.0
181.637	1.0	go	0.865	Go_X	1.0
184.171	1.0	go	0.0	Go_O	0.0
186.704	1.0	go	0.723	Go_X	1.0
189.237	0.45	stop	0.0	Go_O	1.0
191.771	1.0	go	0.832	Go_X	1.0
194.304	1.0	go	0.0	Go_O	0.0
196.837	1.0	go	0.988	Go_O	1.0
199.37	1.0	go	0.831	Go_X	1.0
201.904	1.0	go	0.0	Go_X	0.0
204.437	1.0	go	0.732	Go_O	1.0
206.97	0.5	stop	0.638	Go_X	0.0
209.503	1.0	go	0.0	Go_O	0.0
212.037	1.0	go	0.57	Go_X	1.0
214.57	0.45	stop	0.0	Go_O	1.0
217.103	1.0	go	0.812	Go_X	1.0
219.636	0.5	stop	0.0	Go_X	1.0
222.17	0.55	stop	0.0	Go_O	1.0
224.703	1.0	go	0.0	Go_O	0.0
227.236	1.0	go	0.0	Go_X	0.0
229.77	1.0	go	0.829	Go_O	1.0
232.319	1.0	go	0.541	Go_O	1.0
234.853	0.6	stop	0.639	Go_X	0.0
237.386	1.0	go	0.549	Go_X	1.0
239.919	0.55	stop	0.0	Go_O	1.0
242.452	1.0	go	0.0	Go_O	0.0
244.986	1.0	go	0.667	Go_X	1.0
247.519	1.0	go	0.765	Go_O	1.0
250.052	1.0	go	0.0	Go_X	0.0
252.586	1.0	go	0.763	Go_X	1.0
255.119	1.0	go	0.854	Go_O	1.0
257.652	1.0	go	0.686	Go_O	1.0
260.185	1.0	go	0.579	Go_X	1.0
262.719	1.0	go	0.717	Go_X	1.0
265.252	0.6	stop	0.0	Go_X	1.0
267.785	1.0	go	0.815	Go_O	1.0
270.318	1.0	go	0.0	Go_X	0.0
272.852	1.0	go	0.732	Go_O	1.0
275.385	0.65	stop	0.72	Go_O	0.0
277.918	1.0	go	0.797	Go_X	1.0
280.451	1.0	go	0.864	Go_O	1.0
282.985	1.0	go	0.832	Go_O	1.0
285.518	1.0	go	0.0	Go_X	0.0
288.051	1.0	go	0.474	Go_X	1.0
290.584	1.0	go	0.556	Go_O	1.0
293.118	0.6	stop	0.632	Go_X	0.0
295.651	1.0	go	0.475	Go_X	1.0
298.184	1.0	go	0.0	Go_O	0.0
300.718	0.55	stop	0.744	Go_O	0.0
303.251	1.0	go	0.0	Go_O	0.0
305.784	1.0	go	0.58	Go_X	1.0
308.317	0.5	stop	0.557	Go_X	0.0
310.851	1.0	go	0.0	Go_O	0.0
313.384	0.45	stop	0.0	Go_O	1.0
315.917	1.0	go	0.954	Go_X	1.0
318.45	1.0	go	0.396	Go_X	1.0
320.984	1.0	go	0.734	Go_O	0.0
323.517	1.0	go	0.511	Go_X	1.0
326.05	1.0	go	0.445	Go_O	1.0
328.583	0.5	stop	0.586	Go_X	0.0
331.117	0.45	stop	0.0	Go_O	1.0
333.65	1.0	go	0.974	Go_X	0.0
336.183	1.0	go	0.715	Go_O	1.0
338.717	0.5	stop	0.815	Go_X	0.0
341.266	1.0	go	0.81	Go_X	1.0
343.8	1.0	go	0.688	Go_O	1.0
346.333	1.0	go	0.648	Go_O	1.0
348.866	1.0	go	0.727	Go_X	1.0
351.399	1.0	go	0.548	Go_X	1.0
353.933	1.0	go	0.858	Go_O	1.0
356.466	0.45	stop	0.391	Go_O	0.0
358.999	1.0	go	0.964	Go_O	1.0
361.533	1.0	go	0.76	Go_X	1.0
364.066	1.0	go	0.622	Go_X	1.0
366.599	1.0	go	0.0	Go_O	0.0
369.132	1.0	go	0.725	Go_O	1.0
371.666	0.4	stop	0.0	Go_X	1.0
374.199	1.0	go	0.786	Go_X	1.0
376.732	1.0	go	0.785	Go_X	1.0
379.265	1.0	go	0.925	Go_O	1.0
381.799	1.0	go	0.562	Go_X	1.0
384.332	0.45	stop	0.667	Go_O	0.0
386.865	1.0	go	0.256	Go_O	0.0
389.398	1.0	go	0.0	Go_O	0.0
391.932	0.4	stop	0.367	Go_X	0.0
394.465	1.0	go	0.0	Go_X	0.0
396.998	0.35	stop	0.0	Go_O	1.0
399.531	1.0	go	0.0	Go_O	0.0
402.065	1.0	go	0.627	Go_X	1.0
404.598	1.0	go	0.891	Go_X	1.0
407.131	1.0	go	0.817	Go_O	1.0
409.665	1.0	go	0.674	Go_X	1.0
412.198	1.0	go	0.591	Go_O	1.0
414.731	1.0	go	0.822	Go_O	1.0
417.264	0.4	stop	0.0	Go_X	1.0
419.798	1.0	go	0.905	Go_X	1.0
422.331	1.0	go	0.792	Go_O	1.0
424.864	1.0	go	0.743	Go_X	1.0
427.397	0.45	stop	0.0	Go_O	1.0
429.931	1.0	go	0.0	Go_O	0.0
432.464	1.0	go	0.52	Go_X	1.0
434.997	1.0	go	0.809	Go_O	1.0
437.53	1.0	go	0.596	Go_X	1.0
440.064	0.5	stop	0.554	Go_X	0.0
442.597	1.0	go	0.981	Go_O	1.0
445.13	1.0	go	0.0	Go_X	0.0
447.664	0.45	stop	0.555	Go_O	0.0
450.213	1.0	go	0.574	Go_O	1.0
452.747	1.0	go	0.0	Go_X	0.0
455.28	0.4	stop	0.72	Go_X	0.0
457.813	1.0	go	0.726	Go_O	1.0
460.346	1.0	go	0.0	Go_X	0.0
462.88	0.35	stop	0.0	Go_O	1.0
465.413	1.0	go	0.0	Go_X	0.0
467.946	1.0	go	0.0	Go_O	0.0
470.48	1.0	go	0.0	Go_O	0.0
473.013	1.0	go	0.487	Go_X	1.0
475.546	1.0	go	0.566	Go_O	1.0
478.079	1.0	go	0.445	Go_X	1.0
480.613	0.4	stop	0.0	Go_X	1.0
483.146	1.0	go	0.657	Go_O	1.0
485.679	0.45	stop	0.616	Go_O	0.0
488.212	1.0	go	0.812	Go_X	1.0
490.746	1.0	go	0.826	Go_O	1.0
493.279	1.0	go	0.633	Go_X	1.0
495.812	1.0	go	0.517	Go_O	1.0
498.345	1.0	go	0.0	Go_X	0.0
500.879	0.4	stop	0.525	Go_X	0.0
503.412	1.0	go	0.0	Go_O	0.0
505.945	1.0	go	0.0	Go_X	0.0
508.479	1.0	go	0.406	Go_X	1.0
511.028	0.35	stop	0.0	Go_O	1.0
513.562	0.4	stop	0.556	Go_X	0.0
516.095	0.35	stop	0.0	Go_O	1.0
518.628	1.0	go	0.0	Go_O	0.0
521.161	0.4	stop	0.0	Go_X	1.0
523.695	1.0	go	0.0	Go_X	0.0
526.228	1.0	go	0.693	Go_O	1.0
528.761	1.0	go	0.0	Go_O	0.0
531.295	1.0	go	0.492	Go_X	1.0
533.844	1.0	go	0.926	Go_O	1.0
536.378	1.0	go	0.0	Go_X	0.0
538.911	1.0	go	0.407	Go_O	1.0
541.444	1.0	go	0.443	Go_X	1.0
543.978	0.45	stop	0.0	Go_O	1.0
546.527	1.0	go	0.684	Go_O	1.0
549.061	1.0	go	0.411	Go_X	1.0
551.594	0.5	stop	0.625	Go_X	0.0
554.127	1.0	go	0.577	Go_O	1.0
556.661	1.0	go	0.551	Go_X	1.0
559.21	1.0	go	0.585	Go_O	1.0
561.744	1.0	go	0.172	Go_X	1.0
564.277	1.0	go	0.901	Go_O	1.0
566.81	0.45	stop	0.38	Go_O	0.0
569.344	1.0	go	0.0	Go_X	0.0
571.893	1.0	go	0.581	Go_X	1.0
574.427	1.0	go	0.681	Go_O	1.0
576.96	0.4	stop	0.778	Go_X	0.0
579.493	1.0	go	0.0	Go_X	0.0
582.026	0.35	stop	0.591	Go_O	0.0
584.56	1.0	go	0.768	Go_O	1.0
587.093	1.0	go	0.382	Go_X	1.0
589.626	1.0	go	0.0	Go_O	0.0
592.16	1.0	go	0.0	Go_O	0.0
594.709	1.0	go	0.0	Go_X	0.0
597.243	1.0	go	0.0	Go_O	0.0
599.776	1.0	go	0.0	Go_X	0.0
602.309	0.3	stop	0.0	Go_X	1.0
604.842	1.0	go	0.0	Go_O	0.0
607.376	1.0	go	0.0	Go_X	0.0
609.909	1.0	go	0.0	Go_X	0.0
612.442	1.0	go	0.0	Go_O	0.0
614.976	0.35	stop	0.0	Go_O	1.0
617.509	1.0	go	0.0	Go_O	0.0
620.042	0.4	stop	0.0	Go_X	1.0
622.575	1.0	go	0.0	Go_X	0.0
625.109	1.0	go	0.0	Go_O	0.0
627.642	0.45	stop	0.0	Go_O	1.0
630.175	1.0	go	0.0	Go_X	0.0
632.708	1.0	go	0.0	Go_O	0.0
635.242	1.0	go	0.0	Go_X	0.0
637.775	1.0	go	0.0	Go_X	0.0
640.308	1.0	go	0.0	Go_O	0.0
642.841	1.0	go	0.0	Go_O	0.0
645.375	1.0	go	0.0	Go_X	0.0
647.908	1.0	go	0.0	Go_X	0.0
650.441	1.0	go	0.0	Go_O	0.0
652.975	1.0	go	0.0	Go_O	0.0
655.524	0.5	stop	0.0	Go_X	1.0
658.058	1.0	go	0.0	Go_X	0.0
660.591	1.0	go	0.0	Go_O	0.0
663.124	0.55	stop	0.0	Go_O	1.0
665.657	1.0	go	0.0	Go_X	0.0
668.191	0.6	stop	0.0	Go_X	1.0
670.724	1.0	go	0.0	Go_X	0.0
673.257	1.0	go	0.0	Go_O	0.0
675.791	0.65	stop	0.0	Go_O	1.0
678.324	1.0	go	0.0	Go_X	0.0
680.857	0.7	stop	0.388	Go_X	0.0
683.39	1.0	go	0.385	Go_O	1.0
685.924	1.0	go	0.374	Go_O	0.0
688.457	1.0	go	0.394	Go_X	1.0
690.99	0.65	stop	0.497	Go_O	0.0
693.523	1.0	go	0.495	Go_O	1.0
696.057	1.0	go	0.573	Go_X	1.0
698.59	1.0	go	0.522	Go_O	1.0
701.123	1.0	go	0.277	Go_X	1.0
703.656	0.6	stop	0.721	Go_X	0.0
706.19	1.0	go	0.878	Go_X	1.0
708.723	1.0	go	0.966	Go_O	1.0
711.256	0.55	stop	0.574	Go_O	0.0
713.789	1.0	go	0.757	Go_O	1.0
716.323	1.0	go	0.794	Go_X	1.0
718.856	1.0	go	0.559	Go_X	1.0
721.389	1.0	go	0.775	Go_O	1.0
723.923	0.5	stop	0.0	Go_X	1.0
726.456	1.0	go	0.668	Go_O	1.0
728.989	0.55	stop	0.797	Go_O	0.0
731.522	1.0	go	0.0	Go_X	0.0
734.056	1.0	go	0.0	Go_X	0.0
736.589	0.5	stop	0.0	Go_X	1.0
739.122	1.0	go	0.0	Go_O	0.0
741.655	1.0	go	0.0	Go_X	0.0
744.189	1.0	go	0.0	Go_O	0.0
746.722	1.0	go	0.0	Go_X	0.0
749.255	0.55	stop	0.0	Go_O	1.0
751.788	1.0	go	0.459	Go_O	1.0
754.322	0.6	stop	0.563	Go_X	0.0
756.855	1.0	go	0.0	Go_O	0.0
759.388	1.0	go	0.796	Go_X	1.0
761.922	1.0	go	0.484	Go_X	0.0
764.471	1.0	go	0.0	Go_O	0.0
767.005	1.0	go	0.669	Go_O	1.0
769.538	1.0	go	0.0	Go_X	0.0
772.071	0.55	stop	0.0	Go_O	1.0
774.604	1.0	go	0.0	Go_X	0.0
777.138	1.0	go	0.0	Go_O	0.0
779.671	0.6	stop	0.539	Go_X	0.0
782.204	1.0	go	0.861	Go_O	1.0
784.738	1.0	go	0.0	Go_X	0.0
787.271	0.55	stop	0.0	Go_O	1.0
789.804	1.0	go	0.0	Go_O	0.0
792.337	1.0	go	0.0	Go_X	0.0
794.871	1.0	go	0.0	Go_O	0.0
797.404	1.0	go	0.0	Go_X	0.0
799.937	0.6	stop	0.0	Go_X	1.0
802.47	1.0	go	0.673	Go_O	1.0
805.004	0.65	stop	0.681	Go_O	0.0
807.537	1.0	go	0.755	Go_X	1.0
810.07	1.0	go	0.625	Go_O	1.0
812.603	1.0	go	0.83	Go_X	1.0
815.137	1.0	go	0.0	Go_O	0.0
817.67	1.0	go	0.0	Go_X	0.0
820.203	0.6	stop	0.0	Go_X	1.0
822.737	1.0	go	0.0	Go_X	0.0
825.286	1.0	go	0.0	Go_O	0.0
827.82	0.65	stop	0.0	Go_O	1.0
830.353	0.7	stop	0.0	Go_X	1.0
832.886	1.0	go	0.0	Go_X	0.0
835.419	1.0	go	0.0	Go_O	0.0
837.953	1.0	go	0.0	Go_X	0.0
840.486	1.0	go	0.0	Go_O	0.0
843.019	0.75	stop	0.0	Go_O	1.0
845.553	1.0	go	0.0	Go_X	0.0
