onset	duration	trial_type	response_time	stim_file	accuracy
0.5819999999999936	1.0	go	0.576	Go_X	0.0
3.173000000000002	1.0	go	0.408	Go_O	1.0
5.697000000000003	1.0	go	0.435	Go_O	1.0
8.221000000000004	1.0	go	0.432	Go_X	1.0
10.745000000000005	1.0	go	0.395	Go_O	1.0
13.269999999999982	1.0	go	0.284	Go_X	1.0
15.793999999999983	0.25	stopfail	0.335	Go_O	0.0
18.317999999999984	1.0	go	0.488	Go_O	1.0
20.841999999999985	0.2	stopfail	0.278	Go_X	0.0
23.365999999999985	1.0	go	0.585	Go_X	1.0
25.89100000000002	1.0	go	0.534	Go_O	1.0
28.41500000000002	1.0	go	0.436	Go_X	1.0
30.938999999999965	0.15	stopsuccess	0.0	Go_O	1.0
33.462999999999965	1.0	go	0.486	Go_O	1.0
35.986999999999966	1.0	go	0.539	Go_X	1.0
38.512	0.2	stopsuccess	0.0	Go_X	1.0
41.036	0.25	stopfail	0.394	Go_O	0.0
43.56	1.0	go	0.361	Go_X	1.0
46.084	1.0	go	0.498	Go_O	1.0
48.608000000000004	0.2	stopsuccess	0.0	Go_X	1.0
51.132000000000005	1.0	go	0.315	Go_X	1.0
53.65699999999998	1.0	go	0.465	Go_O	1.0
56.18099999999998	0.25	stopsuccess	0.0	Go_O	1.0
58.704999999999984	1.0	go	0.219	Go_X	1.0
61.228999999999985	1.0	go	0.356	Go_O	1.0
63.752999999999986	0.3	stopsuccess	0.0	Go_X	1.0
66.27800000000002	1.0	go	0.447	Go_X	1.0
68.80200000000002	1.0	go	0.549	Go_O	1.0
71.32599999999996	0.35	stopsuccess	0.0	Go_O	1.0
73.84999999999997	1.0	go	0.399	Go_O	1.0
76.37399999999997	1.0	go	0.67	Go_X	1.0
78.899	1.0	go	0.941	Go_X	1.0
81.423	1.0	go	0.341	Go_O	1.0
83.947	1.0	go	0.667	Go_O	1.0
86.471	0.4	stopfail	0.493	Go_X	0.0
88.995	1.0	go	0.42	Go_X	1.0
91.51999999999998	1.0	go	0.293	Go_O	1.0
94.04399999999998	1.0	go	0.59	Go_X	1.0
96.56799999999998	1.0	go	0.671	Go_O	1.0
99.09199999999998	1.0	go	0.298	Go_X	1.0
101.61599999999999	0.35	stopfail	0.482	Go_O	0.0
104.14100000000002	1.0	go	0.325	Go_X	1.0
106.66500000000002	1.0	go	0.361	Go_O	1.0
109.18899999999996	1.0	go	0.56	Go_X	1.0
111.71299999999997	1.0	go	0.337	Go_O	1.0
114.23699999999997	1.0	go	0.64	Go_X	1.0
116.76099999999997	1.0	go	0.378	Go_O	1.0
119.286	0.3	stopsuccess	0.0	Go_X	1.0
121.80999999999995	1.0	go	0.265	Go_O	1.0
124.33399999999995	1.0	go	0.259	Go_X	1.0
126.85799999999995	0.35	stopfail	0.463	Go_O	0.0
129.38199999999995	1.0	go	0.701	Go_O	1.0
131.90700000000004	0.3	stopfail	0.404	Go_X	0.0
134.43100000000004	0.25	stopsuccess	0.0	Go_O	1.0
136.95500000000004	1.0	go	0.334	Go_X	1.0
139.47900000000004	1.0	go	0.572	Go_O	1.0
142.00300000000004	1.0	go	0.599	Go_X	1.0
144.52800000000002	1.0	go	0.359	Go_O	1.0
147.05200000000002	0.3	stopsuccess	0.0	Go_X	1.0
149.57600000000002	1.0	go	0.385	Go_X	1.0
152.10000000000002	0.35	stopfail	0.576	Go_O	0.0
154.62400000000002	1.0	go	0.453	Go_X	1.0
157.149	1.0	go	0.562	Go_O	1.0
159.673	1.0	go	0.715	Go_O	1.0
162.197	1.0	go	0.445	Go_X	1.0
164.721	1.0	go	0.455	Go_X	1.0
167.245	1.0	go	0.645	Go_O	1.0
169.76999999999998	1.0	go	0.507	Go_X	1.0
172.29399999999998	1.0	go	0.453	Go_O	1.0
174.81799999999998	1.0	go	0.692	Go_O	1.0
177.34199999999998	0.3	stopfail	0.39	Go_X	0.0
179.86599999999999	1.0	go	0.65	Go_X	1.0
182.39	1.0	go	0.522	Go_X	1.0
184.91499999999996	1.0	go	0.676	Go_O	1.0
187.43899999999996	0.25	stopsuccess	0.0	Go_O	1.0
189.96299999999997	1.0	go	0.594	Go_O	1.0
192.48699999999997	1.0	go	0.415	Go_X	1.0
195.01099999999997	1.0	go	0.502	Go_O	1.0
197.53599999999994	1.0	go	0.545	Go_X	1.0
200.05999999999995	1.0	go	0.499	Go_O	1.0
202.58399999999995	1.0	go	0.375	Go_X	1.0
205.10799999999995	0.3	stopsuccess	0.0	Go_X	1.0
207.63199999999995	1.0	go	0.359	Go_X	1.0
210.15700000000004	1.0	go	0.374	Go_O	1.0
212.68100000000004	0.35	stopsuccess	0.0	Go_O	1.0
215.20500000000004	1.0	go	0.581	Go_X	1.0
217.72900000000004	1.0	go	0.521	Go_O	1.0
220.25300000000004	0.4	stopfail	0.493	Go_X	0.0
222.77800000000002	1.0	go	0.655	Go_X	1.0
225.30200000000002	0.35	stopsuccess	0.0	Go_O	1.0
227.82600000000002	1.0	go	0.453	Go_O	1.0
230.35000000000002	1.0	go	0.516	Go_X	1.0
232.87400000000002	1.0	go	0.588	Go_O	1.0
235.399	1.0	go	0.453	Go_X	1.0
237.923	1.0	go	0.339	Go_O	1.0
240.447	0.4	stopfail	0.438	Go_X	0.0
242.971	0.35	stopfail	0.362	Go_O	0.0
245.495	1.0	go	0.66	Go_O	1.0
248.019	1.0	go	0.616	Go_X	1.0
250.54399999999998	0.3	stopsuccess	0.0	Go_X	1.0
253.06799999999998	1.0	go	0.599	Go_X	1.0
255.59199999999998	1.0	go	0.451	Go_O	1.0
258.116	1.0	go	0.559	Go_X	1.0
260.64	1.0	go	0.457	Go_O	1.0
263.16499999999996	1.0	go	0.562	Go_O	1.0
265.68899999999996	1.0	go	0.585	Go_X	1.0
268.21299999999997	0.35	stopfail	0.386	Go_O	0.0
270.73699999999997	1.0	go	0.721	Go_O	1.0
273.26099999999997	1.0	go	0.564	Go_X	1.0
275.78599999999994	1.0	go	0.587	Go_X	1.0
278.30999999999995	1.0	go	0.515	Go_O	1.0
280.83399999999995	1.0	go	0.409	Go_O	1.0
283.35799999999995	0.3	stopsuccess	0.0	Go_X	1.0
285.88199999999995	1.0	go	0.594	Go_X	1.0
288.40700000000004	1.0	go	0.546	Go_X	1.0
290.93100000000004	1.0	go	0.508	Go_O	1.0
293.45500000000004	1.0	go	0.341	Go_X	1.0
295.97900000000004	0.35	stopsuccess	0.0	Go_O	1.0
298.50300000000004	1.0	go	0.545	Go_O	1.0
301.028	1.0	go	0.512	Go_O	1.0
303.552	0.4	stopsuccess	0.0	Go_X	1.0
306.076	1.0	go	0.483	Go_X	1.0
308.6	0.45	stopfail	0.469	Go_O	0.0
311.124	1.0	go	0.481	Go_X	1.0
313.648	1.0	go	0.308	Go_O	1.0
316.173	1.0	go	0.598	Go_X	1.0
318.697	1.0	go	0.86	Go_O	1.0
321.221	1.0	go	0.608	Go_X	1.0
323.745	1.0	go	0.331	Go_O	1.0
326.269	1.0	go	0.576	Go_O	1.0
328.794	0.4	stopsuccess	0.0	Go_X	1.0
331.318	1.0	go	0.428	Go_X	1.0
333.842	1.0	go	0.711	Go_O	1.0
336.366	1.0	go	0.467	Go_X	1.0
338.89	0.45	stopfail	0.501	Go_O	0.0
341.41499999999996	1.0	go	0.367	Go_X	1.0
343.93899999999996	1.0	go	0.495	Go_O	1.0
346.46299999999997	1.0	go	0.422	Go_O	1.0
348.98699999999997	1.0	go	0.817	Go_X	1.0
351.51099999999997	0.4	stopsuccess	0.0	Go_X	1.0
354.03599999999994	1.0	go	0.488	Go_X	1.0
356.55999999999995	1.0	go	0.735	Go_O	1.0
359.08399999999995	0.45	stopfail	0.402	Go_O	0.0
361.60799999999995	1.0	go	0.392	Go_O	1.0
364.13199999999995	1.0	go	0.515	Go_X	1.0
366.65700000000004	0.4	stopsuccess	0.0	Go_X	1.0
369.18100000000004	1.0	go	0.407	Go_O	1.0
371.70500000000004	1.0	go	0.451	Go_X	1.0
374.22900000000004	0.45	stopsuccess	0.0	Go_O	1.0
376.75300000000004	1.0	go	0.733	Go_O	1.0
379.27700000000004	1.0	go	0.347	Go_X	1.0
381.802	1.0	go	0.42	Go_O	1.0
384.326	1.0	go	0.785	Go_X	1.0
386.85	1.0	go	0.403	Go_O	1.0
389.374	1.0	go	0.664	Go_X	1.0
391.898	0.5	stopsuccess	0.0	Go_X	1.0
394.423	1.0	go	0.449	Go_X	1.0
396.947	0.55	stopfail	0.547	Go_O	0.0
399.471	1.0	go	0.31	Go_O	0.0
401.995	1.0	go	0.42	Go_O	1.0
404.519	1.0	go	0.494	Go_X	1.0
407.044	1.0	go	0.436	Go_X	1.0
409.568	1.0	go	0.623	Go_O	1.0
412.092	0.5	stopfail	0.502	Go_X	0.0
414.616	1.0	go	0.471	Go_O	1.0
417.14	1.0	go	0.383	Go_X	1.0
419.66499999999996	1.0	go	0.474	Go_X	1.0
422.18899999999996	0.45	stopfail	0.354	Go_O	0.0
424.71299999999997	0.4	stopfail	0.43	Go_X	0.0
427.23699999999997	0.35	stopfail	0.424	Go_O	0.0
429.76099999999997	1.0	go	0.763	Go_O	1.0
432.28599999999994	0.3	stopfail	0.457	Go_X	0.0
434.80999999999995	1.0	go	0.74	Go_O	1.0
437.33399999999995	1.0	go	0.637	Go_X	1.0
439.85799999999995	1.0	go	0.74	Go_O	1.0
442.38199999999995	1.0	go	0.521	Go_X	1.0
444.90599999999995	1.0	go	0.681	Go_O	1.0
447.43100000000004	1.0	go	0.699	Go_X	1.0
449.95500000000004	1.0	go	0.541	Go_O	1.0
452.47900000000004	1.0	go	0.563	Go_X	1.0
455.00300000000004	0.25	stopsuccess	0.0	Go_O	1.0
457.52700000000004	1.0	go	0.644	Go_X	0.0
460.052	1.0	go	0.646	Go_O	1.0
462.576	0.3	stopsuccess	0.0	Go_X	1.0
465.1	1.0	go	0.475	Go_X	1.0
467.624	1.0	go	0.771	Go_O	1.0
470.148	1.0	go	0.74	Go_O	1.0
472.673	1.0	go	0.494	Go_X	1.0
475.197	1.0	go	0.766	Go_O	1.0
477.721	0.35	stopfail	0.348	Go_O	0.0
480.245	1.0	go	0.39	Go_X	1.0
482.769	1.0	go	0.585	Go_O	1.0
485.294	1.0	go	0.756	Go_X	1.0
487.818	0.3	stopsuccess	0.0	Go_X	1.0
490.342	1.0	go	0.536	Go_X	1.0
492.866	0.35	stopsuccess	0.0	Go_O	1.0
495.39	1.0	go	0.379	Go_O	1.0
497.91499999999996	1.0	go	0.497	Go_O	1.0
500.43899999999996	1.0	go	0.855	Go_X	1.0
502.96299999999997	1.0	go	0.355	Go_O	1.0
505.48699999999997	1.0	go	0.578	Go_X	1.0
508.01099999999997	1.0	go	0.533	Go_X	1.0
510.53499999999997	1.0	go	0.528	Go_O	1.0
513.06	0.4	stopsuccess	0.0	Go_X	1.0
515.584	1.0	go	0.336	Go_O	1.0
518.108	1.0	go	0.523	Go_X	1.0
520.632	1.0	go	0.667	Go_X	1.0
523.156	1.0	go	0.493	Go_O	1.0
525.681	0.45	stopsuccess	0.0	Go_O	1.0
528.205	1.0	go	0.695	Go_O	1.0
530.729	0.5	stopfail	0.633	Go_X	0.0
533.253	1.0	go	0.538	Go_X	1.0
535.777	1.0	go	0.633	Go_O	1.0
538.302	0.45	stopfail	0.388	Go_O	0.0
540.826	1.0	go	0.417	Go_X	1.0
543.35	1.0	go	0.528	Go_X	1.0
545.874	1.0	go	0.51	Go_O	1.0
548.398	1.0	go	0.493	Go_O	1.0
550.923	1.0	go	0.573	Go_X	1.0
553.447	1.0	go	0.624	Go_X	1.0
555.971	1.0	go	0.641	Go_O	1.0
558.495	1.0	go	0.634	Go_X	1.0
561.019	1.0	go	0.553	Go_O	1.0
563.544	1.0	go	0.669	Go_O	1.0
566.068	0.4	stopsuccess	0.0	Go_X	1.0
568.592	1.0	go	0.475	Go_X	1.0
571.116	1.0	go	0.88	Go_O	1.0
573.64	0.45	stopfail	0.503	Go_O	0.0
576.164	1.0	go	0.384	Go_X	1.0
578.689	0.4	stopfail	0.47	Go_X	0.0
581.213	1.0	go	0.336	Go_O	1.0
583.737	1.0	go	0.488	Go_X	1.0
586.261	0.35	stopsuccess	0.0	Go_O	1.0
588.785	1.0	go	0.536	Go_X	1.0
591.31	0.4	stopsuccess	0.0	Go_X	1.0
593.834	1.0	go	0.621	Go_O	1.0
596.358	1.0	go	0.48	Go_X	1.0
598.882	1.0	go	0.696	Go_O	1.0
601.406	0.45	stopfail	0.61	Go_O	0.0
603.931	1.0	go	0.407	Go_X	1.0
606.455	1.0	go	0.43	Go_O	1.0
608.979	1.0	go	0.479	Go_O	1.0
611.503	1.0	go	0.702	Go_X	1.0
614.027	0.4	stopfail	0.512	Go_X	0.0
616.552	1.0	go	0.479	Go_X	1.0
619.076	1.0	go	0.381	Go_O	1.0
621.6	0.35	stopfail	0.469	Go_O	0.0
624.124	1.0	go	0.45	Go_O	1.0
626.648	1.0	go	0.53	Go_X	1.0
629.173	1.0	go	0.556	Go_O	1.0
631.6969999999999	1.0	go	0.65	Go_X	1.0
634.221	0.3	stopsuccess	0.0	Go_X	1.0
636.7449999999999	1.0	go	0.442	Go_X	0.0
639.269	0.35	stopfail	0.533	Go_O	0.0
641.7929999999999	1.0	go	0.655	Go_O	1.0
644.318	1.0	go	0.687	Go_O	1.0
646.8420000000001	0.3	stopsuccess	0.0	Go_X	1.0
649.366	1.0	go	0.513	Go_X	1.0
651.8900000000001	1.0	go	0.629	Go_X	1.0
654.414	1.0	go	0.612	Go_O	1.0
656.9390000000001	1.0	go	0.437	Go_X	1.0
659.463	0.35	stopsuccess	0.0	Go_O	1.0
661.9870000000001	1.0	go	0.566	Go_O	1.0
664.511	0.4	stopsuccess	0.0	Go_X	1.0
667.0350000000001	1.0	go	0.61	Go_X	1.0
669.56	1.0	go	0.498	Go_O	1.0
672.0840000000001	1.0	go	0.836	Go_O	1.0
674.608	1.0	go	0.439	Go_X	1.0
677.1320000000001	1.0	go	0.569	Go_X	1.0
679.656	1.0	go	0.771	Go_O	1.0
682.181	0.45	stopfail	0.567	Go_O	0.0
684.7049999999999	1.0	go	0.337	Go_X	1.0
687.229	1.0	go	0.579	Go_O	1.0
689.7529999999999	0.4	stopsuccess	0.0	Go_X	1.0
692.277	1.0	go	0.644	Go_O	1.0
694.8019999999999	1.0	go	0.385	Go_X	1.0
697.326	0.45	stopfail	0.356	Go_O	0.0
699.8499999999999	1.0	go	0.487	Go_O	1.0
702.374	1.0	go	0.639	Go_X	1.0
704.8979999999999	1.0	go	0.652	Go_X	1.0
707.422	1.0	go	0.542	Go_O	1.0
709.9469999999999	0.4	stopsuccess	0.0	Go_X	1.0
712.471	1.0	go	0.577	Go_X	1.0
714.9949999999999	0.45	stopsuccess	0.0	Go_O	1.0
717.519	1.0	go	0.588	Go_O	1.0
720.0429999999999	1.0	go	0.87	Go_O	0.0
722.568	1.0	go	0.361	Go_X	1.0
725.0920000000001	1.0	go	0.47	Go_X	1.0
727.616	1.0	go	0.481	Go_O	1.0
730.1400000000001	0.5	stopsuccess	0.0	Go_X	1.0
732.664	1.0	go	0.706	Go_X	1.0
735.1890000000001	1.0	go	0.406	Go_O	1.0
737.713	0.55	stopfail	0.447	Go_O	0.0
740.2370000000001	0.5	stopfail	0.412	Go_X	0.0
742.761	1.0	go	0.452	Go_O	1.0
745.2850000000001	1.0	go	0.553	Go_X	1.0
747.81	1.0	go	0.683	Go_O	1.0
750.3340000000001	1.0	go	0.576	Go_X	1.0
752.858	0.45	stopfail	0.554	Go_O	0.0
755.3820000000001	1.0	go	0.449	Go_X	1.0
