onset	duration	trial_type	response_time	stim_file	accuracy
426.631	1.0	go	0.78	Go_X	1.0
429.155	1.0	go	0.33	Go_O	1.0
431.679	1.0	go	0.527	Go_O	1.0
434.204	1.0	go	0.367	Go_X	1.0
436.728	1.0	go	0.474	Go_X	1.0
439.252	1.0	go	0.646	Go_O	1.0
441.776	0.25	stop	0.0	Go_O	1.0
444.3	1.0	go	0.438	Go_X	1.0
446.824	0.3	stop	0.0	Go_X	1.0
449.349	1.0	go	0.559	Go_O	1.0
451.873	1.0	go	0.585	Go_X	1.0
454.397	1.0	go	0.556	Go_O	1.0
456.921	0.35	stop	0.0	Go_O	1.0
459.445	1.0	go	0.449	Go_O	1.0
461.97	1.0	go	0.557	Go_X	1.0
464.494	0.4	stop	0.585	Go_X	0.0
467.018	0.35	stop	0.0	Go_O	1.0
469.542	1.0	go	0.634	Go_X	1.0
472.066	1.0	go	0.522	Go_O	1.0
474.59	0.4	stop	0.346	Go_X	0.0
477.115	1.0	go	0.566	Go_X	1.0
479.639	1.0	go	0.418	Go_O	1.0
482.163	0.35	stop	0.0	Go_O	1.0
484.687	1.0	go	0.578	Go_X	1.0
487.211	1.0	go	0.648	Go_O	1.0
489.735	0.4	stop	0.0	Go_X	1.0
492.26	1.0	go	0.59	Go_X	1.0
494.784	1.0	go	0.419	Go_O	1.0
497.308	0.45	stop	0.0	Go_O	1.0
499.832	1.0	go	0.505	Go_X	1.0
502.356	1.0	go	0.537	Go_O	1.0
504.88	1.0	go	0.699	Go_O	1.0
507.405	1.0	go	0.507	Go_X	1.0
509.929	1.0	go	0.775	Go_O	1.0
512.453	0.5	stop	0.0	Go_X	1.0
514.977	1.0	go	0.464	Go_X	1.0
517.501	1.0	go	0.493	Go_X	1.0
520.025	1.0	go	0.517	Go_O	1.0
522.55	1.0	go	0.621	Go_O	1.0
525.074	1.0	go	0.577	Go_X	1.0
527.598	0.55	stop	0.0	Go_O	1.0
530.122	1.0	go	0.0	Go_O	0.0
532.646	1.0	go	0.559	Go_X	1.0
535.171	1.0	go	0.399	Go_O	1.0
537.695	1.0	go	0.419	Go_X	1.0
540.219	1.0	go	0.552	Go_X	1.0
542.743	1.0	go	0.527	Go_O	1.0
545.267	0.6	stop	0.562	Go_X	0.0
547.791	1.0	go	0.554	Go_O	1.0
550.316	1.0	go	0.623	Go_X	1.0
552.84	0.55	stop	0.562	Go_O	0.0
555.364	1.0	go	0.642	Go_O	1.0
557.888	0.5	stop	0.535	Go_X	0.0
560.412	0.45	stop	0.0	Go_O	1.0
562.936	1.0	go	0.924	Go_X	1.0
565.461	1.0	go	0.619	Go_X	1.0
567.985	1.0	go	0.431	Go_O	1.0
570.509	1.0	go	0.504	Go_X	1.0
573.033	0.5	stop	0.0	Go_X	1.0
575.557	1.0	go	0.727	Go_O	1.0
578.081	0.55	stop	0.489	Go_O	0.0
580.606	1.0	go	0.608	Go_X	1.0
583.13	1.0	go	0.766	Go_O	1.0
585.654	1.0	go	0.521	Go_X	1.0
588.178	1.0	go	0.542	Go_O	1.0
590.702	1.0	go	0.477	Go_X	1.0
593.226	1.0	go	0.629	Go_O	1.0
595.751	1.0	go	0.615	Go_X	1.0
598.275	1.0	go	0.432	Go_O	1.0
600.799	1.0	go	0.539	Go_O	1.0
603.323	0.5	stop	0.0	Go_X	1.0
605.847	1.0	go	0.0	Go_X	0.0
608.371	1.0	go	0.449	Go_O	1.0
610.896	1.0	go	0.632	Go_X	1.0
613.42	0.55	stop	0.518	Go_O	0.0
615.944	1.0	go	0.626	Go_X	1.0
618.468	1.0	go	0.673	Go_O	1.0
620.992	1.0	go	0.573	Go_O	1.0
623.517	1.0	go	0.592	Go_X	1.0
626.041	1.0	go	0.783	Go_O	1.0
628.565	1.0	go	0.63	Go_X	1.0
631.089	0.5	stop	0.0	Go_X	1.0
633.613	1.0	go	0.549	Go_X	1.0
636.137	1.0	go	0.531	Go_O	1.0
638.662	0.55	stop	0.649	Go_O	0.0
641.186	1.0	go	0.821	Go_O	1.0
643.71	1.0	go	0.64	Go_X	1.0
646.234	0.5	stop	0.574	Go_X	0.0
648.758	1.0	go	0.829	Go_O	1.0
651.282	0.45	stop	0.458	Go_O	0.0
653.807	1.0	go	0.611	Go_X	1.0
656.331	1.0	go	0.774	Go_O	1.0
658.855	1.0	go	0.749	Go_X	1.0
661.379	1.0	go	0.639	Go_O	1.0
663.903	1.0	go	0.484	Go_X	1.0
666.427	0.4	stop	0.0	Go_X	1.0
668.952	0.45	stop	0.548	Go_O	0.0
671.476	1.0	go	0.558	Go_O	1.0
674.0	1.0	go	0.814	Go_X	1.0
676.524	0.4	stop	0.579	Go_X	0.0
679.048	1.0	go	0.541	Go_O	1.0
681.572	1.0	go	0.846	Go_X	1.0
684.097	1.0	go	0.438	Go_O	1.0
686.621	1.0	go	0.369	Go_X	1.0
689.145	1.0	go	0.692	Go_X	1.0
691.669	1.0	go	0.733	Go_O	1.0
694.193	0.35	stop	0.0	Go_O	1.0
696.717	1.0	go	0.787	Go_O	1.0
699.242	1.0	go	0.666	Go_X	1.0
701.766	1.0	go	0.55	Go_X	1.0
704.29	1.0	go	0.569	Go_O	1.0
706.814	1.0	go	0.716	Go_X	1.0
709.338	0.4	stop	0.0	Go_X	1.0
711.863	1.0	go	0.467	Go_O	1.0
714.387	1.0	go	0.53	Go_X	1.0
716.911	1.0	go	0.557	Go_O	1.0
719.435	1.0	go	0.656	Go_X	1.0
721.959	0.45	stop	0.64	Go_O	0.0
724.483	1.0	go	0.536	Go_O	1.0
727.008	1.0	go	0.465	Go_X	1.0
729.532	0.4	stop	0.505	Go_X	0.0
732.056	1.0	go	0.623	Go_O	1.0
734.58	0.35	stop	0.0	Go_O	1.0
737.104	1.0	go	0.413	Go_X	1.0
739.628	1.0	go	0.568	Go_O	1.0
742.153	1.0	go	0.525	Go_X	1.0
744.677	1.0	go	0.875	Go_O	1.0
747.201	1.0	go	0.719	Go_O	1.0
749.725	1.0	go	0.52	Go_X	1.0
752.249	1.0	go	0.738	Go_X	1.0
754.773	0.4	stop	0.0	Go_X	1.0
757.298	1.0	go	0.412	Go_O	1.0
759.822	1.0	go	0.827	Go_O	1.0
762.346	1.0	go	0.72	Go_X	1.0
764.87	0.45	stop	0.0	Go_O	1.0
767.394	1.0	go	0.658	Go_O	1.0
769.918	1.0	go	0.783	Go_X	1.0
772.443	1.0	go	0.88	Go_X	1.0
774.967	1.0	go	0.671	Go_O	1.0
777.491	0.5	stop	0.0	Go_X	1.0
780.015	1.0	go	0.831	Go_O	1.0
782.539	1.0	go	0.371	Go_X	1.0
785.064	0.55	stop	0.469	Go_O	0.0
787.588	1.0	go	0.711	Go_X	1.0
790.112	1.0	go	0.813	Go_O	1.0
792.636	0.5	stop	0.0	Go_X	1.0
795.16	1.0	go	0.744	Go_X	1.0
797.684	1.0	go	0.582	Go_O	1.0
800.209	0.55	stop	0.0	Go_O	1.0
802.733	1.0	go	0.346	Go_X	1.0
805.257	1.0	go	0.872	Go_O	1.0
807.781	1.0	go	0.351	Go_X	1.0
810.305	1.0	go	0.484	Go_O	1.0
812.829	1.0	go	0.53	Go_O	1.0
815.354	1.0	go	0.786	Go_X	1.0
817.878	0.6	stop	0.673	Go_X	0.0
820.402	1.0	go	0.52	Go_X	1.0
822.926	0.55	stop	0.596	Go_O	0.0
825.45	1.0	go	0.626	Go_O	1.0
827.974	1.0	go	0.482	Go_X	1.0
830.499	1.0	go	0.578	Go_O	1.0
833.023	1.0	go	0.585	Go_O	1.0
835.547	1.0	go	0.627	Go_X	1.0
838.071	0.5	stop	0.0	Go_X	1.0
840.595	1.0	go	0.0	Go_X	0.0
843.119	1.0	go	0.382	Go_O	1.0
845.644	1.0	go	0.0	Go_X	0.0
848.168	0.55	stop	0.454	Go_O	0.0
850.692	0.5	stop	0.653	Go_X	0.0
853.216	0.45	stop	0.562	Go_O	0.0
855.74	1.0	go	0.638	Go_O	1.0
858.264	0.4	stop	0.0	Go_X	1.0
860.789	1.0	go	0.907	Go_O	1.0
863.313	1.0	go	0.737	Go_X	1.0
865.837	1.0	go	0.619	Go_X	1.0
868.361	1.0	go	0.708	Go_O	1.0
870.885	1.0	go	0.0	Go_O	0.0
873.41	1.0	go	0.6	Go_X	1.0
875.934	1.0	go	0.716	Go_X	1.0
878.458	1.0	go	0.738	Go_O	1.0
880.982	0.45	stop	0.568	Go_O	0.0
883.506	1.0	go	0.872	Go_X	1.0
886.03	1.0	go	0.389	Go_O	1.0
888.555	0.4	stop	0.305	Go_X	0.0
891.079	1.0	go	0.484	Go_O	1.0
893.603	1.0	go	0.475	Go_X	1.0
896.127	1.0	go	0.595	Go_O	1.0
898.651	1.0	go	0.379	Go_X	1.0
901.175	1.0	go	0.641	Go_O	1.0
903.7	0.35	stop	0.0	Go_O	1.0
906.224	1.0	go	0.59	Go_X	1.0
908.748	1.0	go	0.67	Go_X	1.0
911.272	1.0	go	0.512	Go_O	1.0
913.796	0.4	stop	0.576	Go_X	0.0
916.32	1.0	go	0.623	Go_X	1.0
918.845	0.35	stop	0.0	Go_O	1.0
921.369	1.0	go	0.807	Go_O	1.0
923.893	1.0	go	0.631	Go_O	1.0
926.417	1.0	go	0.514	Go_X	1.0
928.941	1.0	go	0.586	Go_X	1.0
931.465	1.0	go	0.679	Go_O	1.0
933.99	1.0	go	0.0	Go_X	0.0
936.514	1.0	go	0.386	Go_O	1.0
939.038	0.4	stop	0.616	Go_X	0.0
941.562	1.0	go	0.621	Go_X	1.0
944.086	1.0	go	0.888	Go_O	1.0
946.611	1.0	go	0.611	Go_O	1.0
949.135	1.0	go	0.89	Go_X	1.0
951.659	0.35	stop	0.0	Go_O	1.0
954.183	1.0	go	0.0	Go_X	0.0
956.707	0.4	stop	0.573	Go_X	0.0
959.231	1.0	go	0.728	Go_O	1.0
961.756	1.0	go	0.629	Go_O	1.0
964.28	0.35	stop	0.0	Go_O	1.0
966.804	1.0	go	0.613	Go_X	1.0
969.328	1.0	go	0.653	Go_O	1.0
971.852	1.0	go	0.719	Go_X	1.0
974.376	1.0	go	0.754	Go_X	1.0
976.901	1.0	go	0.739	Go_O	1.0
979.425	1.0	go	0.753	Go_O	1.0
981.949	1.0	go	0.651	Go_X	1.0
984.473	1.0	go	0.546	Go_O	1.0
986.997	1.0	go	0.603	Go_X	1.0
989.521	1.0	go	0.644	Go_X	1.0
992.046	0.4	stop	0.0	Go_X	1.0
994.57	1.0	go	0.649	Go_O	1.0
997.094	1.0	go	0.765	Go_X	1.0
999.618	0.45	stop	0.0	Go_O	1.0
1002.142	1.0	go	0.483	Go_O	1.0
1004.666	0.5	stop	0.657	Go_X	0.0
1007.191	1.0	go	0.699	Go_O	1.0
1009.715	1.0	go	0.675	Go_X	1.0
1012.239	0.45	stop	0.411	Go_O	0.0
1014.763	1.0	go	0.775	Go_O	1.0
1017.287	0.4	stop	0.0	Go_X	1.0
1019.811	1.0	go	0.708	Go_X	1.0
1022.336	1.0	go	0.727	Go_O	1.0
1024.86	1.0	go	0.53	Go_X	1.0
1027.384	0.45	stop	0.545	Go_O	0.0
1029.908	1.0	go	0.548	Go_O	1.0
1032.432	1.0	go	0.382	Go_X	1.0
1034.957	1.0	go	0.366	Go_O	1.0
1037.481	1.0	go	0.747	Go_X	1.0
1040.005	0.4	stop	0.281	Go_X	0.0
1042.529	1.0	go	0.685	Go_X	1.0
1045.053	1.0	go	0.58	Go_O	1.0
1047.577	0.35	stop	0.458	Go_O	0.0
1050.102	1.0	go	0.343	Go_O	1.0
1052.626	1.0	go	0.572	Go_X	1.0
1055.15	1.0	go	0.588	Go_X	1.0
1057.674	1.0	go	0.398	Go_O	1.0
1060.198	0.3	stop	0.414	Go_X	0.0
1062.722	1.0	go	0.702	Go_X	1.0
1065.247	0.25	stop	0.0	Go_O	1.0
1067.771	1.0	go	0.56	Go_O	1.0
1070.295	1.0	go	0.506	Go_X	1.0
1072.819	0.3	stop	0.0	Go_X	1.0
1075.343	1.0	go	0.477	Go_O	1.0
1077.867	1.0	go	0.469	Go_X	1.0
1080.392	1.0	go	0.43	Go_O	1.0
1082.916	1.0	go	0.571	Go_O	1.0
1085.44	0.35	stop	0.0	Go_O	1.0
1087.964	1.0	go	0.733	Go_X	1.0
1090.488	0.4	stop	0.0	Go_X	1.0
1093.012	1.0	go	0.517	Go_O	1.0
1095.537	1.0	go	0.276	Go_X	1.0
1098.061	1.0	go	0.446	Go_O	1.0
1100.585	1.0	go	0.494	Go_X	1.0
1103.109	1.0	go	0.413	Go_X	1.0
1105.633	1.0	go	0.378	Go_O	1.0
1108.157	0.45	stop	0.458	Go_O	0.0
1110.682	1.0	go	0.934	Go_O	1.0
1113.206	1.0	go	0.572	Go_X	1.0
1115.73	0.4	stop	0.452	Go_X	0.0
1118.254	1.0	go	0.767	Go_X	1.0
1120.778	1.0	go	0.505	Go_O	1.0
1123.303	0.35	stop	0.0	Go_O	1.0
1125.827	1.0	go	0.457	Go_O	1.0
1128.351	1.0	go	0.388	Go_X	0.0
1130.875	1.0	go	0.6	Go_X	1.0
1133.399	1.0	go	0.368	Go_O	1.0
1135.923	0.4	stop	0.498	Go_X	0.0
1138.448	1.0	go	0.592	Go_X	1.0
1140.972	0.35	stop	0.52	Go_O	0.0
1143.496	1.0	go	0.815	Go_O	1.0
1146.02	1.0	go	0.607	Go_X	1.0
1148.544	1.0	go	0.54	Go_O	1.0
1151.068	1.0	go	0.516	Go_O	1.0
1153.593	1.0	go	0.516	Go_X	1.0
1156.117	0.3	stop	0.0	Go_X	1.0
1158.641	1.0	go	0.569	Go_X	1.0
1161.165	1.0	go	0.494	Go_O	1.0
1163.689	0.35	stop	0.392	Go_O	0.0
1166.213	0.3	stop	0.0	Go_X	1.0
1168.738	1.0	go	0.547	Go_X	1.0
1171.262	1.0	go	0.328	Go_O	1.0
1173.786	1.0	go	0.261	Go_X	1.0
1176.31	1.0	go	0.256	Go_O	1.0
1178.834	0.35	stop	0.42	Go_O	0.0
1181.358	1.0	go	0.503	Go_O	1.0
