frame	onset	duration	trial_type	event_type	response_type	response_time	stim_file	accuracy
0	77.774		win-noreward	ImageDisplay1		0.0		
0	79.747	0.75	win-noreward	StartDisplay				
0	80.499		win-noreward	ImageDisplay2		0.0		
0	83.758	1.6	win-noreward	ChoiceDisplay	1	1.005	1	1
0	84.778	0.595	win-noreward	ChosenDisplay		0.0		
0	85.363	0.25	win-noreward	TurnDisplay				
0	85.614	0.75	win-noreward	OutcomeDisplay				
1	86.366		control-noreward	ImageDisplay1		0.0		
1	88.606	0.75	control-noreward	StartDisplay				
1	89.358		control-noreward	ImageDisplay2		0.0		
1	92.367	1.6	control-noreward	ChoiceDisplay	1	0.874	1	1
1	93.253	0.726	control-noreward	ChosenDisplay		0.0		
1	93.972	0.25	control-noreward	TurnDisplay				
1	94.223	0.75	control-noreward	OutcomeDisplay				
2	94.975		control-reward	ImageDisplay1		0.0		
2	97.215	0.75	control-reward	StartDisplay				
2	97.967		control-reward	ImageDisplay2		0.0		
2	100.976	1.6	control-reward	ChoiceDisplay	1	0.943	1	1
2	101.946	0.657	control-reward	ChosenDisplay		0.0		
2	102.581	0.25	control-reward	TurnDisplay				
2	102.832	0.75	control-reward	OutcomeDisplay				
3	103.584		control-noreward	ImageDisplay1		0.0		
3	105.824	0.75	control-noreward	StartDisplay				
3	106.576		control-noreward	ImageDisplay2		0.0		
3	109.585	1.6	control-noreward	ChoiceDisplay	1	0.801	1	1
3	110.404	0.799	control-noreward	ChosenDisplay		0.0		
3	111.19	0.25	control-noreward	TurnDisplay				
3	111.441	0.75	control-noreward	OutcomeDisplay				
4	112.193		win-reward	ImageDisplay1		0.0		
4	114.182	0.75	win-reward	StartDisplay				
4	114.934		win-reward	ImageDisplay2		0.0		
4	118.194	1.6	win-reward	ChoiceDisplay	1	0.834	1	1
4	119.047	0.766	win-reward	ChosenDisplay		0.0		
4	119.799	0.25	win-reward	TurnDisplay				
4	120.05	0.75	win-reward	OutcomeDisplay				
5	120.802		loss-reward	ImageDisplay1		0.0		
5	122.791	0.75	loss-reward	StartDisplay				
5	123.543		loss-reward	ImageDisplay2		0.0		
5	126.803	1.6	loss-reward	ChoiceDisplay	1	0.951	1	1
5	127.772	0.649	loss-reward	ChosenDisplay		0.0		
5	128.408	0.25	loss-reward	TurnDisplay				
5	128.658	0.75	loss-reward	OutcomeDisplay				
6	129.411		win-noreward	ImageDisplay1		0.0		
6	131.4	0.75	win-noreward	StartDisplay				
6	132.152		win-noreward	ImageDisplay2		0.0		
6	135.412	1.6	win-noreward	ChoiceDisplay	1	0.865	1	1
6	136.298	0.735	win-noreward	ChosenDisplay		0.0		
6	137.017	0.25	win-noreward	TurnDisplay				
6	137.267	0.75	win-noreward	OutcomeDisplay				
7	138.02		loss-reward	ImageDisplay1		0.0		
7	140.009	0.75	loss-reward	StartDisplay				
7	140.761		loss-reward	ImageDisplay2		0.0		
7	144.021	1.6	loss-reward	ChoiceDisplay	1	1.03	1	1
7	145.074	0.57	loss-reward	ChosenDisplay		0.0		
7	145.625	0.25	loss-reward	TurnDisplay				
7	145.876	0.75	loss-reward	OutcomeDisplay				
8	146.628		loss-noreward	ImageDisplay1		0.0		
8	148.618	0.75	loss-noreward	StartDisplay				
8	149.37		loss-noreward	ImageDisplay2		0.0		
8	152.63	1.6	loss-noreward	ChoiceDisplay	1	1.419	1	1
8	154.067	0.181	loss-noreward	ChosenDisplay		0.0		
8	154.234	0.25	loss-noreward	TurnDisplay				
8	154.485	0.75	loss-noreward	OutcomeDisplay				
9	155.237		win-noreward	ImageDisplay1		0.0		
9	157.477	0.75	win-noreward	StartDisplay				
9	158.23		win-noreward	ImageDisplay2		0.0		
9	161.239	1.6	win-noreward	ChoiceDisplay	1	0.875	1	1
9	162.141	0.725	win-noreward	ChosenDisplay		0.0		
9	162.843	0.25	win-noreward	TurnDisplay				
9	163.094	0.75	win-noreward	OutcomeDisplay				
10	163.846		control-reward	ImageDisplay1		0.0		
10	166.086	0.75	control-reward	StartDisplay				
10	166.838		control-reward	ImageDisplay2		0.0		
10	169.847	1.6	control-reward	ChoiceDisplay	1	1.088	1	1
10	170.951	0.512	control-reward	ChosenDisplay		0.0		
10	171.452	0.25	control-reward	TurnDisplay				
10	171.703	0.75	control-reward	OutcomeDisplay				
11	172.455		control-noreward	ImageDisplay1		0.0		
11	174.695	0.75	control-noreward	StartDisplay				
11	175.447		control-noreward	ImageDisplay2		0.0		
11	178.456	1.6	control-noreward	ChoiceDisplay	1	1.249	1	1
11	179.727	0.351	control-noreward	ChosenDisplay		0.0		
11	180.061	0.25	control-noreward	TurnDisplay				
11	180.312	0.75	control-noreward	OutcomeDisplay				
12	181.064		win-reward	ImageDisplay1		0.0		
12	183.053	0.75	win-reward	StartDisplay				
12	183.806		win-reward	ImageDisplay2		0.0		
12	187.065	1.6	win-reward	ChoiceDisplay	1	1.275	1	1
12	188.369	0.325	win-reward	ChosenDisplay		0.0		
12	188.67	0.25	win-reward	TurnDisplay				
12	188.921	0.75	win-reward	OutcomeDisplay				
13	189.673		win-reward	ImageDisplay1		0.0		
13	191.662	0.75	win-reward	StartDisplay				
13	192.414		win-reward	ImageDisplay2		0.0		
13	195.674	1.6	win-reward	ChoiceDisplay	1	1.225	1	1
13	196.911	0.375	win-reward	ChosenDisplay		0.0		
13	197.279	0.25	win-reward	TurnDisplay				
13	197.53	0.75	win-reward	OutcomeDisplay				
14	198.282		control-reward	ImageDisplay1		0.0		
14	200.522	0.75	control-reward	StartDisplay				
14	201.274		control-reward	ImageDisplay2		0.0		
14	204.283	1.6	control-reward	ChoiceDisplay	1	1.084	1	1
14	205.386	0.516	control-reward	ChosenDisplay		0.0		
14	205.888	0.25	control-reward	TurnDisplay				
14	206.138	0.75	control-reward	OutcomeDisplay				
15	206.891		loss-noreward	ImageDisplay1		0.0		
15	208.88	0.75	loss-noreward	StartDisplay				
15	209.632		loss-noreward	ImageDisplay2		0.0		
15	212.892	1.6	loss-noreward	ChoiceDisplay	1	1.182	1	1
15	214.095	0.418	loss-noreward	ChosenDisplay		0.0		
15	214.497	0.25	loss-noreward	TurnDisplay				
15	214.747	0.75	loss-noreward	OutcomeDisplay				
16	215.5		loss-noreward	ImageDisplay1		0.0		
16	217.74	0.75	loss-noreward	StartDisplay				
16	218.492		loss-noreward	ImageDisplay2		0.0		
16	221.501	1.6	loss-noreward	ChoiceDisplay	1	1.279	1	1
16	222.805	0.321	loss-noreward	ChosenDisplay		0.0		
16	223.106	0.25	loss-noreward	TurnDisplay				
16	223.356	0.75	loss-noreward	OutcomeDisplay				
17	224.108		loss-reward	ImageDisplay1		0.0		
17	226.349	0.75	loss-reward	StartDisplay				
17	227.101		loss-reward	ImageDisplay2		0.0		
17	230.11	1.6	loss-reward	ChoiceDisplay	1	1.123	1	1
17	231.246	0.477	loss-reward	ChosenDisplay		0.0		
17	231.714	0.25	loss-reward	TurnDisplay				
17	231.965	0.75	loss-reward	OutcomeDisplay				
18	232.717		loss-noreward	ImageDisplay1		0.0		
18	234.957	0.75	loss-noreward	StartDisplay				
18	235.71		loss-noreward	ImageDisplay2		0.0		
18	238.719	1.6	loss-noreward	ChoiceDisplay	1	1.053	1	1
18	239.788	0.547	loss-noreward	ChosenDisplay		0.0		
18	240.323	0.25	loss-noreward	TurnDisplay				
18	240.574	0.75	loss-noreward	OutcomeDisplay				
19	241.326		control-noreward	ImageDisplay1		0.0		
19	243.316	0.75	control-noreward	StartDisplay				
19	244.068		control-noreward	ImageDisplay2		0.0		
19	247.327	1.6	control-noreward	ChoiceDisplay	1	0.958	1	1
19	248.314	0.642	control-noreward	ChosenDisplay		0.0		
19	248.932	0.25	control-noreward	TurnDisplay				
19	249.183	0.75	control-noreward	OutcomeDisplay				
20	249.935		win-reward	ImageDisplay1		0.0		
20	252.175	0.75	win-reward	StartDisplay				
20	252.927		win-reward	ImageDisplay2		0.0		
20	255.936	1.6	win-reward	ChoiceDisplay	1	1.134	1	1
20	257.09	0.466	win-reward	ChosenDisplay		0.0		
20	257.541	0.25	win-reward	TurnDisplay				
20	257.792	0.75	win-reward	OutcomeDisplay				
21	258.544		win-noreward	ImageDisplay1		0.0		
21	260.784	0.75	win-noreward	StartDisplay				
21	261.536		win-noreward	ImageDisplay2		0.0		
21	264.545	1.6	win-noreward	ChoiceDisplay	1	0.888	1	1
21	265.448	0.712	win-noreward	ChosenDisplay		0.0		
21	266.15	0.25	win-noreward	TurnDisplay				
21	266.401	0.75	win-noreward	OutcomeDisplay				
22	267.153		win-reward	ImageDisplay1		0.0		
22	269.142	0.75	win-reward	StartDisplay				
22	269.894		win-reward	ImageDisplay2		0.0		
22	273.154	1.6	win-reward	ChoiceDisplay	1	0.666	1	1
22	273.84	0.934	win-reward	ChosenDisplay		0.0		
22	274.759	0.25	win-reward	TurnDisplay				
22	275.01	0.75	win-reward	OutcomeDisplay				
23	275.762		loss-reward	ImageDisplay1		0.0		
23	278.002	0.75	loss-reward	StartDisplay				
23	278.754		loss-reward	ImageDisplay2		0.0		
23	281.763	1.6	loss-reward	ChoiceDisplay	1	1.14	1	1
23	282.916	0.46	loss-reward	ChosenDisplay		0.0		
23	283.368	0.25	loss-reward	TurnDisplay				
23	283.619	0.75	loss-reward	OutcomeDisplay				
24	284.371		control-reward	ImageDisplay1		0.0		
24	286.611	0.75	control-reward	StartDisplay				
24	287.363		control-reward	ImageDisplay2		0.0		
24	290.372	1.6	control-reward	ChoiceDisplay	1	0.989	1	1
24	291.375	0.611	control-reward	ChosenDisplay		0.0		
24	291.977	0.25	control-reward	TurnDisplay				
24	292.227	0.75	control-reward	OutcomeDisplay				
25	292.98		win-noreward	ImageDisplay1		0.0		
25	294.969	0.75	win-noreward	StartDisplay				
25	295.721		win-noreward	ImageDisplay2		0.0		
25	298.981	1.6	win-noreward	ChoiceDisplay	1	1.095	1	1
25	300.101	0.505	win-noreward	ChosenDisplay		0.0		
25	300.586	0.25	win-noreward	TurnDisplay				
25	300.836	0.75	win-noreward	OutcomeDisplay				
26	301.589		loss-noreward	ImageDisplay1		0.0		
26	303.578	0.75	loss-noreward	StartDisplay				
26	304.33		loss-noreward	ImageDisplay2		0.0		
26	307.59	1.6	loss-noreward	ChoiceDisplay	1	1.059	1	1
26	308.676	0.541	loss-noreward	ChosenDisplay		0.0		
26	309.194	0.25	loss-noreward	TurnDisplay				
26	309.445	0.75	loss-noreward	OutcomeDisplay				
27	310.197		win-reward	ImageDisplay1		0.0		
27	312.187	0.75	win-reward	StartDisplay				
27	312.939		win-reward	ImageDisplay2		0.0		
27	316.199	1.6	win-reward	ChoiceDisplay	1	0.591	1	1
27	316.817	1.009	win-reward	ChosenDisplay		0.0		
27	317.803	0.25	win-reward	TurnDisplay				
27	318.054	0.75	win-reward	OutcomeDisplay				
28	318.806		control-noreward	ImageDisplay1		0.0		
28	321.063	0.75	control-noreward	StartDisplay				
28	321.799		control-noreward	ImageDisplay2		0.0		
28	324.807	1.6	control-noreward	ChoiceDisplay	1	1.009	1	1
28	325.844	0.591	control-noreward	ChosenDisplay		0.0		
28	326.412	0.25	control-noreward	TurnDisplay				
28	326.663	0.75	control-noreward	OutcomeDisplay				
29	327.415		win-reward	ImageDisplay1		0.0		
29	329.655	0.75	win-reward	StartDisplay				
29	330.407		win-reward	ImageDisplay2		0.0		
29	333.416	1.6	win-reward	ChoiceDisplay	1	0.932	1	1
29	334.369	0.668	win-reward	ChosenDisplay		0.0		
29	335.021	0.25	win-reward	TurnDisplay				
29	335.272	0.75	win-reward	OutcomeDisplay				
30	336.024		win-noreward	ImageDisplay1		0.0		
30	338.264	0.75	win-noreward	StartDisplay				
30	339.016		win-noreward	ImageDisplay2		0.0		
30	342.025	1.6	win-noreward	ChoiceDisplay	1	0.954	1	1
30	342.995	0.646	win-noreward	ChosenDisplay		0.0		
30	343.63	0.25	win-noreward	TurnDisplay				
30	343.881	0.75	win-noreward	OutcomeDisplay				
31	344.633		control-reward	ImageDisplay1		0.0		
31	346.622	0.75	control-reward	StartDisplay				
31	347.375		control-reward	ImageDisplay2		0.0		
31	350.634	1.6	control-reward	ChoiceDisplay	1	0.981	1	1
31	351.637	0.619	control-reward	ChosenDisplay		0.0		
31	352.239	0.25	control-reward	TurnDisplay				
31	352.49	0.75	control-reward	OutcomeDisplay				
32	353.242		loss-reward	ImageDisplay1		0.0		
32	355.482	0.75	loss-reward	StartDisplay				
32	356.234		loss-reward	ImageDisplay2		0.0		
32	359.243	1.6	loss-reward	ChoiceDisplay	1	1.044	1	1
32	360.313	0.556	loss-reward	ChosenDisplay		0.0		
32	360.848	0.25	loss-reward	TurnDisplay				
32	361.099	0.75	loss-reward	OutcomeDisplay				
33	361.851		loss-noreward	ImageDisplay1		0.0		
33	364.091	0.75	loss-noreward	StartDisplay				
33	364.843		loss-noreward	ImageDisplay2		0.0		
33	367.852	1.6	loss-noreward	ChoiceDisplay	1	0.823	1	1
33	368.688	0.777	loss-noreward	ChosenDisplay		0.0		
33	369.457	0.25	loss-noreward	TurnDisplay				
33	369.707	0.75	loss-noreward	OutcomeDisplay				
34	370.46		win-reward	ImageDisplay1		0.0		
34	372.449	0.75	win-reward	StartDisplay				
34	373.201		win-reward	ImageDisplay2		0.0		
34	376.461	1.6	win-reward	ChoiceDisplay		0.0		
34	378.049	0.0	win-reward	ChosenDisplay		0.0		
34	378.066	0.25	win-reward	TurnDisplay				
34	378.3	0.75	win-reward	OutcomeDisplay				
35	379.052		win-noreward	ImageDisplay1		0.0		
35	381.309	0.75	win-noreward	StartDisplay				
35	382.061		win-noreward	ImageDisplay2		0.0		
35	385.053	1.6	win-noreward	ChoiceDisplay	1	1.497	1	1
35	386.574	0.103	win-noreward	ChosenDisplay		0.0		
35	386.658	0.25	win-noreward	TurnDisplay				
35	386.909	0.75	win-noreward	OutcomeDisplay				
36	387.661		control-reward	ImageDisplay1		0.0		
36	389.901	0.75	control-reward	StartDisplay				
36	390.653		control-reward	ImageDisplay2		0.0		
36	393.662	1.6	control-reward	ChoiceDisplay	1	0.741	1	1
36	394.431	0.859	control-reward	ChosenDisplay		0.0		
36	395.267	0.25	control-reward	TurnDisplay				
36	395.517	0.75	control-reward	OutcomeDisplay				
37	396.27		win-reward	ImageDisplay1		0.0		
37	398.51	0.75	win-reward	StartDisplay				
37	399.262		win-reward	ImageDisplay2		0.0		
37	402.271	1.6	win-reward	ChoiceDisplay	1	1.052	1	1
37	403.341	0.548	win-reward	ChosenDisplay		0.0		
37	403.876	0.25	win-reward	TurnDisplay				
37	404.126	0.75	win-reward	OutcomeDisplay				
38	404.879		loss-reward	ImageDisplay1		0.0		
38	406.868	0.75	loss-reward	StartDisplay				
38	407.62		loss-reward	ImageDisplay2		0.0		
38	410.88	1.6	loss-reward	ChoiceDisplay	1	0.981	1	1
38	411.883	0.619	loss-reward	ChosenDisplay		0.0		
38	412.484	0.25	loss-reward	TurnDisplay				
38	412.735	0.75	loss-reward	OutcomeDisplay				
39	413.487		win-reward	ImageDisplay1		0.0		
39	415.477	0.75	win-reward	StartDisplay				
39	416.229		win-reward	ImageDisplay2		0.0		
39	419.489	1.6	win-reward	ChoiceDisplay	1	1.017	1	1
39	420.525	0.583	win-reward	ChosenDisplay		0.0		
39	421.093	0.25	win-reward	TurnDisplay				
39	421.344	0.75	win-reward	OutcomeDisplay				
40	422.096		loss-reward	ImageDisplay1		0.0		
40	424.086	0.75	loss-reward	StartDisplay				
40	424.838		loss-reward	ImageDisplay2		0.0		
40	428.097	1.6	loss-reward	ChoiceDisplay	1	1.486	1	1
40	429.602	0.114	loss-reward	ChosenDisplay		0.0		
40	429.702	0.25	loss-reward	TurnDisplay				
40	429.953	0.75	loss-reward	OutcomeDisplay				
41	430.705		win-reward	ImageDisplay1		0.0		
41	432.694	0.75	win-reward	StartDisplay				
41	433.447		win-reward	ImageDisplay2		0.0		
41	436.706	1.6	win-reward	ChoiceDisplay	1	1.035	1	1
41	437.759	0.565	win-reward	ChosenDisplay		0.0		
41	438.311	0.25	win-reward	TurnDisplay				
41	438.562	0.75	win-reward	OutcomeDisplay				
42	439.314		control-reward	ImageDisplay1		0.0		
42	441.303	0.75	control-reward	StartDisplay				
42	442.056		control-reward	ImageDisplay2		0.0		
42	445.315	1.6	control-reward	ChoiceDisplay	1	0.928	1	1
42	446.268	0.672	control-reward	ChosenDisplay		0.0		
42	446.92	0.25	control-reward	TurnDisplay				
42	447.171	0.75	control-reward	OutcomeDisplay				
43	447.923		loss-reward	ImageDisplay1		0.0		
43	450.163	0.75	loss-reward	StartDisplay				
43	450.915		loss-reward	ImageDisplay2		0.0		
43	453.924	1.6	loss-reward	ChoiceDisplay	1	1.22	1	1
43	455.161	0.38	loss-reward	ChosenDisplay		0.0		
43	455.529	0.25	loss-reward	TurnDisplay				
43	455.78	0.75	loss-reward	OutcomeDisplay				
44	456.532		control-noreward	ImageDisplay1		0.0		
44	458.521	0.75	control-noreward	StartDisplay				
44	459.273		control-noreward	ImageDisplay2		0.0		
44	462.533	1.6	control-noreward	ChoiceDisplay	1	0.688	1	1
44	463.235	0.912	control-noreward	ChosenDisplay		0.0		
44	464.138	0.25	control-noreward	TurnDisplay				
44	464.389	0.75	control-noreward	OutcomeDisplay				
45	465.141		control-reward	ImageDisplay1		0.0		
45	467.13	0.75	control-reward	StartDisplay				
45	467.882		control-reward	ImageDisplay2		0.0		
45	471.142	1.6	control-reward	ChoiceDisplay	1	0.765	1	1
45	471.928	0.835	control-reward	ChosenDisplay		0.0		
45	472.747	0.25	control-reward	TurnDisplay				
45	472.997	0.75	control-reward	OutcomeDisplay				
46	473.75		control-noreward	ImageDisplay1		0.0		
46	475.756	0.75	control-noreward	StartDisplay				
46	476.491		control-noreward	ImageDisplay2		0.0		
46	479.751	1.6	control-noreward	ChoiceDisplay		0.0		
46	481.356	0.0	control-noreward	ChosenDisplay		0.0		
46	481.372	0.25	control-noreward	TurnDisplay				
46	481.59	0.75	control-noreward	OutcomeDisplay				
47	482.342		control-noreward	ImageDisplay1		0.0		
47	484.599	0.75	control-noreward	StartDisplay				
47	485.351		control-noreward	ImageDisplay2		0.0		
47	488.343	1.6	control-noreward	ChoiceDisplay	1	0.979	1	1
47	489.346	0.621	control-noreward	ChosenDisplay		0.0		
47	489.948	0.25	control-noreward	TurnDisplay				
47	490.199	0.75	control-noreward	OutcomeDisplay				
48	490.951		control-reward	ImageDisplay1		0.0		
48	493.191	0.75	control-reward	StartDisplay				
48	493.943		control-reward	ImageDisplay2		0.0		
48	496.952	1.6	control-reward	ChoiceDisplay	1	0.797	1	1
48	497.771	0.803	control-reward	ChosenDisplay		0.0		
48	498.557	0.25	control-reward	TurnDisplay				
48	498.807	0.75	control-reward	OutcomeDisplay				
49	499.56		control-reward	ImageDisplay1		0.0		
49	501.549	0.75	control-reward	StartDisplay				
49	502.301		control-reward	ImageDisplay2		0.0		
49	505.561	1.6	control-reward	ChoiceDisplay	1	1.469	1	1
49	507.049	0.131	control-reward	ChosenDisplay		0.0		
49	507.166	0.25	control-reward	TurnDisplay				
49	507.416	0.75	control-reward	OutcomeDisplay				
50	508.169		win-noreward	ImageDisplay1		0.0		
50	510.158	0.75	win-noreward	StartDisplay				
50	510.91		win-noreward	ImageDisplay2		0.0		
50	514.17	1.6	win-noreward	ChoiceDisplay	1	1.349	1	1
50	515.54	0.251	win-noreward	ChosenDisplay		0.0		
50	515.774	0.25	win-noreward	TurnDisplay				
50	516.025	0.75	win-noreward	OutcomeDisplay				
51	516.777		win-reward	ImageDisplay1		0.0		
51	519.018	0.75	win-reward	StartDisplay				
51	519.77		win-reward	ImageDisplay2		0.0		
51	522.779	1.6	win-reward	ChoiceDisplay	1	1.199	1	1
51	523.999	0.401	win-reward	ChosenDisplay		0.0		
51	524.383	0.25	win-reward	TurnDisplay				
51	524.634	0.75	win-reward	OutcomeDisplay				
52	525.386		control-noreward	ImageDisplay1		0.0		
52	527.376	0.75	control-noreward	StartDisplay				
52	528.128		control-noreward	ImageDisplay2		0.0		
52	531.388	1.6	control-noreward	ChoiceDisplay		0.0		
52	532.976	0.0	control-noreward	ChosenDisplay		0.0		
52	532.992	0.25	control-noreward	TurnDisplay				
52	533.226	0.75	control-noreward	OutcomeDisplay				
53	533.979		win-noreward	ImageDisplay1		0.0		
53	535.985	0.75	win-noreward	StartDisplay				
53	536.737		win-noreward	ImageDisplay2		0.0		
53	539.98	1.6	win-noreward	ChoiceDisplay		0.0		
53	541.584	0.0	win-noreward	ChosenDisplay		0.0		
53	541.601	0.25	win-noreward	TurnDisplay				
53	541.835	0.75	win-noreward	OutcomeDisplay				
54	542.587		loss-reward	ImageDisplay1		0.0		
54	544.827	0.75	loss-reward	StartDisplay				
54	545.58		loss-reward	ImageDisplay2		0.0		
54	548.589	1.6	loss-reward	ChoiceDisplay	1	0.748	1	1
54	549.358	0.852	loss-reward	ChosenDisplay		0.0		
54	550.193	0.25	loss-reward	TurnDisplay				
54	550.444	0.75	loss-reward	OutcomeDisplay				
55	551.196		loss-reward	ImageDisplay1		0.0		
55	553.186	0.75	loss-reward	StartDisplay				
55	553.938		loss-reward	ImageDisplay2		0.0		
55	557.197	1.6	loss-reward	ChoiceDisplay	1	1.401	1	1
55	558.618	0.199	loss-reward	ChosenDisplay		0.0		
55	558.802	0.25	loss-reward	TurnDisplay				
55	559.053	0.75	loss-reward	OutcomeDisplay				
56	559.805		win-noreward	ImageDisplay1		0.0		
56	561.794	0.75	win-noreward	StartDisplay				
56	562.547		win-noreward	ImageDisplay2		0.0		
56	565.806	1.6	win-noreward	ChoiceDisplay	1	1.446	1	1
56	567.277	0.154	win-noreward	ChosenDisplay		0.0		
56	567.411	0.25	win-noreward	TurnDisplay				
56	567.662	0.75	win-noreward	OutcomeDisplay				
57	568.414		win-noreward	ImageDisplay1		0.0		
57	570.403	0.75	win-noreward	StartDisplay				
57	571.156		win-noreward	ImageDisplay2		0.0		
57	574.415	1.6	win-noreward	ChoiceDisplay	1	0.788	1	1
57	575.218	0.812	win-noreward	ChosenDisplay		0.0		
57	576.02	0.25	win-noreward	TurnDisplay				
57	576.271	0.75	win-noreward	OutcomeDisplay				
58	577.023		win-reward	ImageDisplay1		0.0		
58	579.263	0.75	win-reward	StartDisplay				
58	580.015		win-reward	ImageDisplay2		0.0		
58	583.024	1.6	win-reward	ChoiceDisplay		0.0		
58	584.612	0.0	win-reward	ChosenDisplay		0.0		
58	584.629	0.25	win-reward	TurnDisplay				
58	584.863	0.75	win-reward	OutcomeDisplay				
59	585.615		control-noreward	ImageDisplay1		0.0		
59	587.621	0.75	control-noreward	StartDisplay				
59	588.373		control-noreward	ImageDisplay2		0.0		
59	591.616	1.6	control-noreward	ChoiceDisplay	1	0.649	1	1
59	592.285	0.951	control-noreward	ChosenDisplay		0.0		
59	593.221	0.25	control-noreward	TurnDisplay				
59	593.472	0.75	control-noreward	OutcomeDisplay				
60	594.224		control-reward	ImageDisplay1		0.0		
60	596.213	0.75	control-reward	StartDisplay				
60	596.966		control-reward	ImageDisplay2		0.0		
60	600.225	1.6	control-reward	ChoiceDisplay	1	0.898	1	1
60	601.145	0.702	control-reward	ChosenDisplay		0.0		
60	601.83	0.25	control-reward	TurnDisplay				
60	602.081	0.75	control-reward	OutcomeDisplay				
61	602.833		loss-noreward	ImageDisplay1		0.0		
61	604.839	0.75	loss-noreward	StartDisplay				
61	605.574		loss-noreward	ImageDisplay2		0.0		
61	608.834	1.6	loss-noreward	ChoiceDisplay	1	0.638	1	1
61	609.486	0.962	loss-noreward	ChosenDisplay		0.0		
61	610.439	0.25	loss-noreward	TurnDisplay				
61	610.69	0.75	loss-noreward	OutcomeDisplay				
62	611.442		control-noreward	ImageDisplay1		0.0		
62	613.682	0.75	control-noreward	StartDisplay				
62	614.434		control-noreward	ImageDisplay2		0.0		
62	617.443	1.6	control-noreward	ChoiceDisplay	1	0.848	1	1
62	618.312	0.752	control-noreward	ChosenDisplay		0.0		
62	619.048	0.25	control-noreward	TurnDisplay				
62	619.299	0.75	control-noreward	OutcomeDisplay				
63	620.051		control-reward	ImageDisplay1		0.0		
63	622.04	0.75	control-reward	StartDisplay				
63	622.792		control-reward	ImageDisplay2		0.0		
63	626.052	1.6	control-reward	ChoiceDisplay	1	1.049	1	1
63	627.122	0.551	control-reward	ChosenDisplay		0.0		
63	627.657	0.25	control-reward	TurnDisplay				
63	627.907	0.75	control-reward	OutcomeDisplay				
64	628.66		loss-reward	ImageDisplay1		0.0		
64	630.649	0.75	loss-reward	StartDisplay				
64	631.401		loss-reward	ImageDisplay2		0.0		
64	634.661	1.6	loss-reward	ChoiceDisplay	1	1.5	1	1
64	636.182	0.0	loss-reward	ChosenDisplay		0.0		
64	636.266	0.25	loss-reward	TurnDisplay				
64	636.416	0.75	loss-reward	OutcomeDisplay				
65	637.168		control-reward	ImageDisplay1		0.0		
65	639.408	0.75	control-reward	StartDisplay				
65	640.16		control-reward	ImageDisplay2		0.0		
65	643.169	1.6	control-reward	ChoiceDisplay	1	0.667	1	1
65	643.855	0.933	control-reward	ChosenDisplay		0.0		
65	644.774	0.25	control-reward	TurnDisplay				
65	645.025	0.75	control-reward	OutcomeDisplay				
66	645.777		control-reward	ImageDisplay1		0.0		
66	648.017	0.75	control-reward	StartDisplay				
66	648.769		control-reward	ImageDisplay2		0.0		
66	651.778	1.6	control-reward	ChoiceDisplay	1	0.855	1	1
66	652.648	0.745	control-reward	ChosenDisplay		0.0		
66	653.383	0.25	control-reward	TurnDisplay				
66	653.634	0.75	control-reward	OutcomeDisplay				
67	654.386		loss-reward	ImageDisplay1		0.0		
67	656.626	0.75	loss-reward	StartDisplay				
67	657.378		loss-reward	ImageDisplay2		0.0		
67	660.387	1.6	loss-reward	ChoiceDisplay		0.0		
67	661.992	0.0	loss-reward	ChosenDisplay		0.0		
67	662.009	0.25	loss-reward	TurnDisplay				
67	662.226	0.75	loss-reward	OutcomeDisplay				
68	662.978		loss-noreward	ImageDisplay1		0.0		
68	664.984	0.75	loss-noreward	StartDisplay				
68	665.736		loss-noreward	ImageDisplay2		0.0		
68	668.979	1.6	loss-noreward	ChoiceDisplay	1	0.85	1	1
68	669.849	0.75	loss-noreward	ChosenDisplay		0.0		
68	670.584	0.25	loss-noreward	TurnDisplay				
68	670.835	0.75	loss-noreward	OutcomeDisplay				
69	671.587		win-reward	ImageDisplay1		0.0		
69	673.827	0.75	win-reward	StartDisplay				
69	674.579		win-reward	ImageDisplay2		0.0		
69	677.588	1.6	win-reward	ChoiceDisplay	1	1.17	1	1
69	678.775	0.43	win-reward	ChosenDisplay		0.0		
69	679.193	0.25	win-reward	TurnDisplay				
69	679.444	0.75	win-reward	OutcomeDisplay				
70	680.196		loss-noreward	ImageDisplay1		0.0		
70	682.436	0.75	loss-noreward	StartDisplay				
70	683.188		loss-noreward	ImageDisplay2		0.0		
70	686.197	1.6	loss-noreward	ChoiceDisplay	1	1.004	1	1
70	687.217	0.596	loss-noreward	ChosenDisplay		0.0		
70	687.802	0.25	loss-noreward	TurnDisplay				
70	688.053	0.75	loss-noreward	OutcomeDisplay				
71	688.805		win-reward	ImageDisplay1		0.0		
71	690.794	0.75	win-reward	StartDisplay				
71	691.546		win-reward	ImageDisplay2		0.0		
71	694.806	1.6	win-reward	ChoiceDisplay	1	1.398	1	1
71	696.227	0.202	win-reward	ChosenDisplay		0.0		
71	696.411	0.25	win-reward	TurnDisplay				
71	696.662	0.75	win-reward	OutcomeDisplay				
72	697.414		control-noreward	ImageDisplay1		0.0		
72	699.654	0.75	control-noreward	StartDisplay				
72	700.406		control-noreward	ImageDisplay2		0.0		
72	703.415	1.6	control-noreward	ChoiceDisplay	1	1.181	1	1
72	704.618	0.419	control-noreward	ChosenDisplay		0.0		
72	705.02	0.25	control-noreward	TurnDisplay				
72	705.27	0.75	control-noreward	OutcomeDisplay				
73	706.023		control-reward	ImageDisplay1		0.0		
73	708.029	0.75	control-reward	StartDisplay				
73	708.764		control-reward	ImageDisplay2		0.0		
73	712.024	1.6	control-reward	ChoiceDisplay	1	1.578	1	1
73	713.612	0.0	control-reward	ChosenDisplay		0.0		
73	713.629	0.25	control-reward	TurnDisplay				
73	713.863	0.75	control-reward	OutcomeDisplay				
74	714.598		control-noreward	ImageDisplay1		0.0		
74	716.604	0.75	control-noreward	StartDisplay				
74	717.356		control-noreward	ImageDisplay2		0.0		
74	720.599	1.6	control-noreward	ChoiceDisplay	1	0.444	1	1
74	721.067	1.156	control-noreward	ChosenDisplay		0.0		
74	722.204	0.25	control-noreward	TurnDisplay				
74	722.455	0.75	control-noreward	OutcomeDisplay				
75	723.207		loss-noreward	ImageDisplay1		0.0		
75	725.213	0.75	loss-noreward	StartDisplay				
75	725.949		loss-noreward	ImageDisplay2		0.0		
75	729.208	1.6	loss-noreward	ChoiceDisplay	1	0.648	1	1
75	729.877	0.952	loss-noreward	ChosenDisplay		0.0		
75	730.813	0.25	loss-noreward	TurnDisplay				
75	731.064	0.75	loss-noreward	OutcomeDisplay				
76	731.816		loss-noreward	ImageDisplay1		0.0		
76	733.805	0.75	loss-noreward	StartDisplay				
76	734.557		loss-noreward	ImageDisplay2		0.0		
76	737.817	1.6	loss-noreward	ChoiceDisplay	1	1.075	1	1
76	738.92	0.525	loss-noreward	ChosenDisplay		0.0		
76	739.422	0.25	loss-noreward	TurnDisplay				
76	739.673	0.75	loss-noreward	OutcomeDisplay				
77	740.425		win-reward	ImageDisplay1		0.0		
77	742.665	0.75	win-reward	StartDisplay				
77	743.417		win-reward	ImageDisplay2		0.0		
77	746.426	1.6	win-reward	ChoiceDisplay	1	1.044	1	1
77	747.496	0.556	win-reward	ChosenDisplay		0.0		
77	748.031	0.25	win-reward	TurnDisplay				
77	748.281	0.75	win-reward	OutcomeDisplay				
78	749.034		win-reward	ImageDisplay1		0.0		
78	751.274	0.75	win-reward	StartDisplay				
78	752.026		win-reward	ImageDisplay2		0.0		
78	755.035	1.6	win-reward	ChoiceDisplay	1	1.107	1	1
78	756.155	0.493	win-reward	ChosenDisplay		0.0		
78	756.64	0.25	win-reward	TurnDisplay				
78	756.89	0.75	win-reward	OutcomeDisplay				
79	757.643		loss-noreward	ImageDisplay1		0.0		
79	759.883	0.75	loss-noreward	StartDisplay				
79	760.635		loss-noreward	ImageDisplay2		0.0		
79	763.644	1.6	loss-noreward	ChoiceDisplay		0.0		
79	765.232	0.0	loss-noreward	ChosenDisplay		0.0		
79	765.248	0.25	loss-noreward	TurnDisplay				
79	765.483	0.75	loss-noreward	OutcomeDisplay				
80	766.235		loss-noreward	ImageDisplay1		0.0		
80	768.491	0.75	loss-noreward	StartDisplay				
80	769.244		loss-noreward	ImageDisplay2		0.0		
80	772.236	1.6	loss-noreward	ChoiceDisplay	1	1.14	1	1
80	773.389	0.46	loss-noreward	ChosenDisplay		0.0		
80	773.841	0.25	loss-noreward	TurnDisplay				
80	774.091	0.75	loss-noreward	OutcomeDisplay				
81	774.844		loss-reward	ImageDisplay1		0.0		
81	776.833	0.75	loss-reward	StartDisplay				
81	777.585		loss-reward	ImageDisplay2		0.0		
81	780.845	1.6	loss-reward	ChoiceDisplay	1	0.91	1	1
81	781.781	0.69	loss-reward	ChosenDisplay		0.0		
81	782.45	0.25	loss-reward	TurnDisplay				
81	782.7	0.75	loss-reward	OutcomeDisplay				
82	783.453		control-noreward	ImageDisplay1		0.0		
82	785.442	0.75	control-noreward	StartDisplay				
82	786.194		control-noreward	ImageDisplay2		0.0		
82	789.454	1.6	control-noreward	ChoiceDisplay	1	1.167	1	1
82	790.641	0.433	control-noreward	ChosenDisplay		0.0		
82	791.058	0.25	control-noreward	TurnDisplay				
82	791.309	0.75	control-noreward	OutcomeDisplay				
83	792.061		win-noreward	ImageDisplay1		0.0		
83	794.301	0.75	win-noreward	StartDisplay				
83	795.054		win-noreward	ImageDisplay2		0.0		
83	798.063	1.6	win-noreward	ChoiceDisplay	1	0.8	1	1
83	798.882	0.8	win-noreward	ChosenDisplay		0.0		
83	799.667	0.25	win-noreward	TurnDisplay				
83	799.918	0.75	win-noreward	OutcomeDisplay				
84	800.67		control-noreward	ImageDisplay1		0.0		
84	802.66	0.75	control-noreward	StartDisplay				
84	803.412		control-noreward	ImageDisplay2		0.0		
84	806.672	1.6	control-noreward	ChoiceDisplay	1	1.439	1	1
84	808.126	0.161	control-noreward	ChosenDisplay		0.0		
84	808.276	0.25	control-noreward	TurnDisplay				
84	808.527	0.75	control-noreward	OutcomeDisplay				
85	809.279		win-noreward	ImageDisplay1		0.0		
85	811.519	0.75	win-noreward	StartDisplay				
85	812.271		win-noreward	ImageDisplay2		0.0		
85	815.28	1.6	win-noreward	ChoiceDisplay	1	1.006	1	1
85	816.3	0.594	win-noreward	ChosenDisplay		0.0		
85	816.885	0.25	win-noreward	TurnDisplay				
85	817.136	0.75	win-noreward	OutcomeDisplay				
86	817.888		loss-reward	ImageDisplay1		0.0		
86	820.128	0.75	loss-reward	StartDisplay				
86	820.88		loss-reward	ImageDisplay2		0.0		
86	823.889	1.6	loss-reward	ChoiceDisplay	1	1.286	1	1
86	825.193	0.314	loss-reward	ChosenDisplay		0.0		
86	825.494	0.25	loss-reward	TurnDisplay				
86	825.745	0.75	loss-reward	OutcomeDisplay				
87	826.497		loss-noreward	ImageDisplay1		0.0		
87	828.737	0.75	loss-noreward	StartDisplay				
87	829.489		loss-noreward	ImageDisplay2		0.0		
87	832.498	1.6	loss-noreward	ChoiceDisplay	1	1.374	1	1
87	833.886	0.226	loss-noreward	ChosenDisplay		0.0		
87	834.103	0.25	loss-noreward	TurnDisplay				
87	834.354	0.75	loss-noreward	OutcomeDisplay				
88	835.106		loss-reward	ImageDisplay1		0.0		
88	837.095	0.75	loss-reward	StartDisplay				
88	837.847		loss-reward	ImageDisplay2		0.0		
88	841.107	1.6	loss-reward	ChoiceDisplay	1	0.791	1	1
88	841.926	0.809	loss-reward	ChosenDisplay		0.0		
88	842.712	0.25	loss-reward	TurnDisplay				
88	842.963	0.75	loss-reward	OutcomeDisplay				
89	843.715		loss-reward	ImageDisplay1		0.0		
89	845.955	0.75	loss-reward	StartDisplay				
89	846.707		loss-reward	ImageDisplay2		0.0		
89	849.716	1.6	loss-reward	ChoiceDisplay		0.0		
89	851.304	0.0	loss-reward	ChosenDisplay		0.0		
89	851.321	0.25	loss-reward	TurnDisplay				
89	851.555	0.75	loss-reward	OutcomeDisplay				
90	852.307		loss-reward	ImageDisplay1		0.0		
90	854.313	0.75	loss-reward	StartDisplay				
90	855.065		loss-reward	ImageDisplay2		0.0		
90	858.308	1.6	loss-reward	ChoiceDisplay		0.0		
90	859.913	0.0	loss-reward	ChosenDisplay		0.0		
90	859.93	0.25	loss-reward	TurnDisplay				
90	860.164	0.75	loss-reward	OutcomeDisplay				
91	860.916		win-reward	ImageDisplay1		0.0		
91	863.156	0.75	win-reward	StartDisplay				
91	863.908		win-reward	ImageDisplay2		0.0		
91	866.917	1.6	win-reward	ChoiceDisplay	1	1.348	1	1
91	868.288	0.252	win-reward	ChosenDisplay		0.0		
91	868.522	0.25	win-reward	TurnDisplay				
91	868.773	0.75	win-reward	OutcomeDisplay				
92	869.525		control-reward	ImageDisplay1		0.0		
92	871.514	0.75	control-reward	StartDisplay				
92	872.266		control-reward	ImageDisplay2		0.0		
92	875.526	1.6	control-reward	ChoiceDisplay	1	1.353	1	1
92	876.897	0.247	control-reward	ChosenDisplay		0.0		
92	877.131	0.25	control-reward	TurnDisplay				
92	877.381	0.75	control-reward	OutcomeDisplay				
93	878.134		control-noreward	ImageDisplay1		0.0		
93	880.374	0.75	control-noreward	StartDisplay				
93	881.126		control-noreward	ImageDisplay2		0.0		
93	884.135	1.6	control-noreward	ChoiceDisplay	1	0.697	1	1
93	884.854	0.903	control-noreward	ChosenDisplay		0.0		
93	885.74	0.25	control-noreward	TurnDisplay				
93	885.99	0.75	control-noreward	OutcomeDisplay				
94	886.743		win-noreward	ImageDisplay1		0.0		
94	888.983	0.75	win-noreward	StartDisplay				
94	889.735		win-noreward	ImageDisplay2		0.0		
94	892.744	1.6	win-noreward	ChoiceDisplay	1	1.147	1	1
94	893.914	0.453	win-noreward	ChosenDisplay		0.0		
94	894.348	0.25	win-noreward	TurnDisplay				
94	894.599	0.75	win-noreward	OutcomeDisplay				
95	895.351		loss-reward	ImageDisplay1		0.0		
95	897.591	0.75	loss-reward	StartDisplay				
95	898.344		loss-reward	ImageDisplay2		0.0		
95	901.353	1.6	loss-reward	ChoiceDisplay		0.0		
95	902.941	0.0	loss-reward	ChosenDisplay		0.0		
95	902.957	0.25	loss-reward	TurnDisplay				
95	903.191	0.75	loss-reward	OutcomeDisplay				
