onset	duration	trial_type	response_time	stim_file	accuracy
383.403	1.0	go	0.0	Go_X	0.0
385.994	1.0	go	0.333	Go_O	1.0
388.518	1.0	go	0.388	Go_O	1.0
391.042	1.0	go	0.287	Go_X	1.0
393.567	1.0	go	0.317	Go_X	1.0
396.091	1.0	go	0.303	Go_O	1.0
398.615	0.25	stopfail	0.321	Go_O	0.0
401.139	1.0	go	0.333	Go_O	1.0
403.663	0.2	stopfail	0.275	Go_X	0.0
406.204	1.0	go	0.329	Go_X	1.0
408.729	1.0	go	0.197	Go_O	1.0
411.253	1.0	go	0.321	Go_X	1.0
413.777	0.15	stopsuccess	0.0	Go_O	1.0
416.301	1.0	go	0.452	Go_X	1.0
418.825	1.0	go	0.294	Go_O	1.0
421.35	0.2	stopfail	0.244	Go_X	0.0
423.874	0.15	stopfail	0.275	Go_O	0.0
426.398	1.0	go	0.253	Go_X	1.0
428.922	1.0	go	0.229	Go_O	1.0
431.446	0.1	stopfail	0.315	Go_X	0.0
433.971	1.0	go	0.379	Go_O	1.0
436.495	1.0	go	0.274	Go_X	0.0
439.019	0.05	stopsuccess	0.0	Go_O	1.0
441.543	1.0	go	0.262	Go_O	1.0
444.068	1.0	go	0.252	Go_X	1.0
446.592	0.1	stopsuccess	0.0	Go_X	1.0
449.116	1.0	go	0.286	Go_X	0.0
451.64	1.0	go	0.266	Go_O	1.0
454.164	0.15	stopfail	0.352	Go_O	0.0
456.689	1.0	go	0.29	Go_O	1.0
459.213	1.0	go	0.227	Go_X	1.0
461.737	1.0	go	0.328	Go_X	1.0
464.261	1.0	go	0.372	Go_O	1.0
466.785	1.0	go	0.295	Go_O	1.0
469.31	0.1	stopfail	0.216	Go_X	0.0
471.834	1.0	go	0.273	Go_X	1.0
474.358	1.0	go	0.21	Go_O	1.0
476.882	1.0	go	0.303	Go_X	1.0
479.407	1.0	go	0.278	Go_O	1.0
481.931	1.0	go	0.29	Go_X	1.0
484.455	0.05	stopsuccess	0.0	Go_O	1.0
486.979	1.0	go	0.334	Go_O	1.0
489.503	1.0	go	0.248	Go_X	1.0
492.028	1.0	go	0.331	Go_X	1.0
494.552	1.0	go	0.319	Go_O	1.0
497.076	1.0	go	0.413	Go_O	1.0
499.6	1.0	go	0.3	Go_X	1.0
502.124	0.1	stopsuccess	0.0	Go_X	1.0
504.649	1.0	go	0.355	Go_X	1.0
507.173	1.0	go	0.282	Go_O	1.0
509.697	0.15	stopfail	0.235	Go_O	0.0
512.221	1.0	go	0.291	Go_O	1.0
514.746	0.1	stopfail	0.228	Go_X	0.0
517.27	0.05	stopsuccess	0.0	Go_O	1.0
519.794	1.0	go	0.353	Go_X	1.0
522.318	1.0	go	0.432	Go_O	1.0
524.842	1.0	go	0.23	Go_X	1.0
527.367	1.0	go	0.276	Go_O	1.0
529.891	0.1	stopfail	0.393	Go_X	0.0
532.415	1.0	go	0.459	Go_X	1.0
534.939	0.05	stopfail	0.334	Go_O	0.0
537.463	1.0	go	0.369	Go_O	1.0
539.988	1.0	go	0.194	Go_X	1.0
542.512	1.0	go	0.294	Go_O	1.0
545.036	1.0	go	0.305	Go_X	1.0
547.56	1.0	go	0.317	Go_O	1.0
550.085	1.0	go	0.213	Go_X	1.0
552.609	1.0	go	0.411	Go_X	1.0
555.133	1.0	go	0.26	Go_O	1.0
557.657	1.0	go	0.321	Go_O	1.0
560.181	0.0	stopsuccess	0.0	Go_X	1.0
562.722	1.0	go	0.335	Go_X	1.0
565.247	1.0	go	0.283	Go_X	1.0
567.771	1.0	go	0.291	Go_O	1.0
570.295	0.05	stopsuccess	0.0	Go_O	1.0
572.819	1.0	go	0.251	Go_X	1.0
575.343	1.0	go	0.303	Go_O	1.0
577.868	1.0	go	0.356	Go_O	1.0
580.392	1.0	go	0.258	Go_X	1.0
582.916	1.0	go	0.195	Go_O	1.0
585.44	1.0	go	0.408	Go_X	1.0
587.964	0.1	stopsuccess	0.0	Go_X	1.0
590.489	1.0	go	0.173	Go_O	1.0
593.013	1.0	go	0.239	Go_X	1.0
595.537	0.15	stopfail	0.238	Go_O	0.0
598.061	1.0	go	0.232	Go_O	0.0
600.586	1.0	go	0.281	Go_X	1.0
603.11	0.1	stopfail	0.226	Go_X	0.0
605.634	1.0	go	0.207	Go_O	1.0
608.158	0.05	stopfail	0.187	Go_O	0.0
610.682	1.0	go	0.391	Go_X	1.0
613.207	1.0	go	0.281	Go_O	1.0
615.731	1.0	go	0.248	Go_X	1.0
618.255	1.0	go	0.331	Go_X	1.0
620.779	1.0	go	0.233	Go_O	1.0
623.303	0.0	stopsuccess	0.0	Go_X	1.0
625.844	0.05	stopsuccess	0.0	Go_O	1.0
628.369	1.0	go	0.25	Go_O	1.0
630.893	1.0	go	0.232	Go_X	1.0
633.417	0.1	stopfail	0.241	Go_X	0.0
635.941	1.0	go	0.291	Go_O	1.0
638.465	1.0	go	0.392	Go_X	1.0
640.99	1.0	go	0.261	Go_O	1.0
643.514	1.0	go	0.283	Go_X	1.0
646.038	1.0	go	0.237	Go_O	1.0
648.562	1.0	go	0.183	Go_X	1.0
651.087	0.05	stopsuccess	0.0	Go_O	1.0
653.611	1.0	go	0.356	Go_O	1.0
656.135	1.0	go	0.303	Go_X	1.0
658.659	1.0	go	0.304	Go_X	1.0
661.183	1.0	go	0.289	Go_O	1.0
663.708	1.0	go	0.268	Go_O	0.0
666.232	0.1	stopsuccess	0.0	Go_X	1.0
668.756	1.0	go	0.269	Go_X	1.0
671.28	1.0	go	0.194	Go_X	0.0
673.804	1.0	go	0.275	Go_O	1.0
676.329	1.0	go	0.257	Go_O	1.0
678.853	0.15	stopfail	0.274	Go_O	0.0
681.377	1.0	go	0.224	Go_X	1.0
683.901	1.0	go	0.311	Go_O	1.0
686.426	0.1	stopfail	0.268	Go_X	0.0
688.95	1.0	go	0.297	Go_X	1.0
691.474	0.05	stopfail	0.325	Go_O	0.0
693.998	1.0	go	0.265	Go_X	0.0
696.522	1.0	go	0.239	Go_O	1.0
699.047	1.0	go	0.249	Go_X	1.0
701.571	1.0	go	0.277	Go_O	1.0
704.095	1.0	go	0.339	Go_O	1.0
706.619	1.0	go	0.282	Go_X	1.0
709.143	1.0	go	0.267	Go_O	1.0
711.668	0.0	stopsuccess	0.0	Go_X	1.0
714.209	1.0	go	0.267	Go_X	1.0
716.733	1.0	go	0.298	Go_O	1.0
719.257	1.0	go	0.391	Go_X	1.0
721.781	0.05	stopsuccess	0.0	Go_O	1.0
724.305	1.0	go	0.291	Go_O	1.0
726.83	1.0	go	0.207	Go_X	1.0
729.354	1.0	go	0.241	Go_X	1.0
731.878	1.0	go	0.243	Go_O	1.0
734.402	0.1	stopfail	0.212	Go_X	0.0
736.927	1.0	go	0.245	Go_O	1.0
739.451	1.0	go	0.276	Go_X	1.0
741.975	0.05	stopsuccess	0.0	Go_O	1.0
744.499	1.0	go	0.476	Go_O	1.0
747.023	1.0	go	0.222	Go_X	1.0
749.548	0.1	stopfail	0.305	Go_X	0.0
752.072	1.0	go	0.251	Go_O	1.0
754.596	1.0	go	0.27	Go_X	1.0
757.12	0.05	stopsuccess	0.0	Go_O	1.0
759.644	1.0	go	0.24	Go_X	1.0
762.169	1.0	go	0.225	Go_O	0.0
764.693	1.0	go	0.223	Go_X	1.0
767.217	1.0	go	0.247	Go_O	0.0
769.741	1.0	go	0.248	Go_X	1.0
772.265	1.0	go	0.362	Go_O	0.0
774.79	0.1	stopfail	0.242	Go_X	0.0
777.314	1.0	go	0.342	Go_O	1.0
779.838	0.05	stopsuccess	0.0	Go_O	1.0
782.362	1.0	go	0.261	Go_X	1.0
784.887	1.0	go	0.278	Go_X	1.0
787.411	1.0	go	0.286	Go_O	1.0
789.935	1.0	go	0.257	Go_O	1.0
792.459	1.0	go	0.375	Go_X	1.0
794.983	0.1	stopfail	0.37	Go_X	0.0
797.508	1.0	go	0.25	Go_O	1.0
800.032	1.0	go	0.248	Go_X	1.0
802.556	1.0	go	0.29	Go_X	1.0
805.08	0.05	stopsuccess	0.0	Go_O	1.0
807.604	0.1	stopsuccess	0.0	Go_X	1.0
810.129	0.15	stopsuccess	0.0	Go_O	1.0
812.653	1.0	go	0.292	Go_O	1.0
815.177	0.2	stopfail	0.384	Go_X	0.0
817.701	1.0	go	0.278	Go_O	1.0
820.226	1.0	go	0.258	Go_X	1.0
822.75	1.0	go	0.252	Go_O	1.0
825.274	1.0	go	0.405	Go_X	1.0
827.798	1.0	go	0.331	Go_X	1.0
830.322	1.0	go	0.237	Go_O	1.0
832.847	1.0	go	0.258	Go_X	0.0
835.371	1.0	go	0.242	Go_O	1.0
837.895	0.15	stopsuccess	0.0	Go_O	1.0
840.419	1.0	go	0.244	Go_X	1.0
842.943	1.0	go	0.273	Go_O	1.0
845.468	0.2	stopfail	0.246	Go_X	0.0
847.992	1.0	go	0.251	Go_O	1.0
850.516	1.0	go	0.197	Go_X	1.0
853.04	1.0	go	0.301	Go_O	0.0
855.565	1.0	go	0.258	Go_X	1.0
858.089	1.0	go	0.297	Go_X	1.0
860.613	0.15	stopfail	0.25	Go_O	0.0
863.137	1.0	go	0.405	Go_O	1.0
865.661	1.0	go	0.294	Go_O	1.0
868.186	1.0	go	0.234	Go_X	1.0
870.71	0.1	stopsuccess	0.0	Go_X	1.0
873.234	1.0	go	0.335	Go_X	1.0
875.758	0.15	stopfail	0.462	Go_O	0.0
878.282	1.0	go	0.343	Go_O	1.0
880.807	1.0	go	0.434	Go_X	1.0
883.331	1.0	go	0.261	Go_O	1.0
885.855	1.0	go	0.26	Go_O	1.0
888.379	1.0	go	0.26	Go_X	1.0
890.904	1.0	go	0.286	Go_O	0.0
893.428	1.0	go	0.246	Go_X	1.0
895.952	0.1	stopsuccess	0.0	Go_X	1.0
898.476	1.0	go	0.262	Go_O	1.0
901.0	1.0	go	0.258	Go_X	1.0
903.525	1.0	go	0.272	Go_O	1.0
906.049	1.0	go	0.255	Go_X	1.0
908.573	0.15	stopfail	0.165	Go_O	0.0
911.097	1.0	go	0.328	Go_X	1.0
913.621	0.1	stopfail	0.236	Go_X	0.0
916.146	1.0	go	0.253	Go_O	1.0
918.67	1.0	go	0.439	Go_X	1.0
921.194	0.05	stopfail	0.203	Go_O	0.0
923.718	1.0	go	0.302	Go_O	1.0
926.243	1.0	go	0.368	Go_O	1.0
928.767	1.0	go	0.233	Go_X	1.0
931.291	1.0	go	0.249	Go_O	1.0
933.815	1.0	go	0.19	Go_X	1.0
936.339	1.0	go	0.339	Go_X	1.0
938.864	1.0	go	0.209	Go_O	1.0
941.388	1.0	go	0.227	Go_X	1.0
943.912	1.0	go	0.199	Go_O	1.0
946.436	1.0	go	0.224	Go_X	1.0
948.96	0.0	stopsuccess	0.0	Go_X	1.0
951.501	1.0	go	0.196	Go_O	1.0
954.026	1.0	go	0.251	Go_X	1.0
956.55	0.05	stopsuccess	0.0	Go_O	1.0
959.074	1.0	go	0.333	Go_O	1.0
961.598	0.1	stopfail	0.213	Go_X	0.0
964.122	1.0	go	0.223	Go_X	1.0
966.647	1.0	go	0.268	Go_O	1.0
969.171	0.05	stopsuccess	0.0	Go_O	1.0
971.695	1.0	go	0.366	Go_O	1.0
974.219	0.1	stopfail	0.226	Go_X	0.0
976.744	1.0	go	0.243	Go_X	0.0
979.268	1.0	go	0.35	Go_O	1.0
981.792	1.0	go	0.219	Go_X	1.0
984.316	0.05	stopfail	0.237	Go_O	0.0
986.84	1.0	go	0.282	Go_X	1.0
989.365	1.0	go	0.289	Go_O	1.0
991.889	1.0	go	0.401	Go_O	1.0
994.413	1.0	go	0.213	Go_X	1.0
996.937	0.0	stopsuccess	0.0	Go_X	1.0
999.478	1.0	go	0.229	Go_O	1.0
1002.002	1.0	go	0.422	Go_X	1.0
1004.527	0.05	stopsuccess	0.0	Go_O	1.0
1007.051	1.0	go	0.313	Go_O	1.0
1009.575	1.0	go	0.24	Go_X	1.0
1012.099	1.0	go	0.303	Go_X	1.0
1014.623	1.0	go	0.395	Go_O	1.0
1017.148	0.1	stopfail	0.171	Go_X	0.0
1019.672	1.0	go	0.265	Go_O	1.0
1022.196	0.05	stopsuccess	0.0	Go_O	1.0
1024.72	1.0	go	0.23	Go_X	1.0
1027.245	1.0	go	0.233	Go_O	1.0
1029.769	0.1	stopfail	0.295	Go_X	0.0
1032.293	1.0	go	0.229	Go_X	0.0
1034.817	1.0	go	0.424	Go_X	1.0
1037.341	1.0	go	0.281	Go_O	1.0
1039.866	1.0	go	0.29	Go_O	1.0
1042.39	0.05	stopsuccess	0.0	Go_O	1.0
1044.914	1.0	go	0.196	Go_X	1.0
1047.438	0.1	stopsuccess	0.0	Go_X	1.0
1049.962	1.0	go	0.286	Go_O	1.0
1052.487	1.0	go	0.333	Go_X	1.0
1055.011	1.0	go	0.268	Go_X	1.0
1057.535	1.0	go	0.277	Go_O	1.0
1060.059	1.0	go	0.457	Go_O	1.0
1062.584	1.0	go	0.276	Go_X	1.0
1065.108	0.15	stopfail	0.358	Go_O	0.0
1067.632	1.0	go	0.32	Go_O	1.0
1070.156	1.0	go	0.401	Go_X	1.0
1072.68	0.1	stopsuccess	0.0	Go_X	1.0
1075.205	1.0	go	0.281	Go_X	1.0
1077.729	1.0	go	0.258	Go_O	1.0
1080.253	0.15	stopfail	0.283	Go_O	0.0
1082.777	1.0	go	0.174	Go_O	0.0
1085.301	1.0	go	0.234	Go_X	1.0
1087.826	1.0	go	0.214	Go_O	1.0
1090.35	1.0	go	0.239	Go_X	1.0
1092.874	0.1	stopfail	0.241	Go_X	0.0
1095.398	1.0	go	0.327	Go_O	1.0
1097.923	0.05	stopsuccess	0.0	Go_O	1.0
1100.447	1.0	go	0.31	Go_X	1.0
1102.971	1.0	go	0.282	Go_O	1.0
1105.495	1.0	go	0.283	Go_X	1.0
1108.019	1.0	go	0.262	Go_O	1.0
1110.544	1.0	go	0.26	Go_X	1.0
1113.068	0.1	stopfail	0.256	Go_X	0.0
1115.592	1.0	go	0.244	Go_O	1.0
1118.116	1.0	go	0.26	Go_X	1.0
1120.64	0.05	stopfail	0.161	Go_O	0.0
1123.165	0.0	stopfail	0.22	Go_X	0.0
1125.706	1.0	go	0.518	Go_X	1.0
1128.23	1.0	go	0.31	Go_O	1.0
1130.754	1.0	go	0.276	Go_X	1.0
1133.278	1.0	go	0.261	Go_O	1.0
1135.802	0.0	stopsuccess	0.0	Go_O	1.0
1138.343	1.0	go	0.278	Go_X	1.0
