onset	duration	trial_type	response_time	stim_file	accuracy
70.976	1.0	go	0.0	Go_O	0.0
73.517	1.0	go	0.38	Go_X	1.0
76.042	1.0	go	0.398	Go_X	1.0
78.566	1.0	go	0.542	Go_O	1.0
81.09	1.0	go	0.464	Go_O	1.0
83.614	1.0	go	0.409	Go_X	1.0
86.138	0.25	stopsuccess	0.0	Go_O	1.0
88.662	1.0	go	0.492	Go_X	1.0
91.187	0.3	stopsuccess	0.0	Go_X	1.0
93.711	1.0	go	0.463	Go_O	1.0
96.235	1.0	go	0.576	Go_X	1.0
98.759	1.0	go	0.519	Go_O	1.0
101.283	0.35	stopsuccess	0.0	Go_O	1.0
103.808	1.0	go	0.408	Go_X	1.0
106.332	1.0	go	0.582	Go_O	1.0
108.856	0.4	stopfail	0.48	Go_X	0.0
111.38	0.35	stopfail	0.483	Go_O	0.0
113.904	1.0	go	0.558	Go_O	1.0
116.428	1.0	go	0.542	Go_X	1.0
118.953	0.3	stopsuccess	0.0	Go_X	1.0
121.477	1.0	go	0.45	Go_X	1.0
124.001	1.0	go	0.568	Go_O	1.0
126.525	0.35	stopsuccess	0.0	Go_O	1.0
129.049	1.0	go	0.444	Go_O	1.0
131.574	1.0	go	0.493	Go_X	1.0
134.098	0.4	stopsuccess	0.0	Go_X	1.0
136.622	1.0	go	0.426	Go_X	1.0
139.146	1.0	go	0.668	Go_O	1.0
141.67	0.45	stopsuccess	0.0	Go_O	1.0
144.194	1.0	go	0.527	Go_X	1.0
146.719	1.0	go	0.589	Go_O	1.0
149.243	1.0	go	0.465	Go_O	1.0
151.767	1.0	go	0.599	Go_X	1.0
154.291	1.0	go	0.766	Go_X	1.0
156.815	0.5	stopsuccess	0.0	Go_X	1.0
159.34	1.0	go	0.758	Go_O	1.0
161.864	1.0	go	0.878	Go_O	1.0
164.388	1.0	go	0.858	Go_X	1.0
166.912	1.0	go	0.784	Go_O	1.0
169.436	1.0	go	0.513	Go_X	1.0
171.96	0.55	stopfail	0.35	Go_O	0.0
174.485	1.0	go	0.549	Go_X	1.0
177.009	1.0	go	0.513	Go_O	1.0
179.533	1.0	go	0.51	Go_X	1.0
182.057	1.0	go	0.823	Go_O	1.0
184.581	1.0	go	0.791	Go_O	1.0
187.106	1.0	go	0.587	Go_X	1.0
189.63	0.5	stopfail	0.633	Go_X	0.0
192.154	1.0	go	0.746	Go_X	1.0
194.678	1.0	go	0.648	Go_O	1.0
197.202	0.45	stopfail	0.652	Go_O	0.0
199.726	1.0	go	0.561	Go_O	1.0
202.251	0.4	stopsuccess	0.0	Go_X	1.0
204.775	0.45	stopfail	0.459	Go_O	0.0
207.299	1.0	go	0.763	Go_X	0.0
209.823	1.0	go	0.66	Go_X	1.0
212.347	1.0	go	0.569	Go_O	1.0
214.872	1.0	go	0.564	Go_X	1.0
217.396	0.4	stopfail	0.385	Go_X	0.0
219.92	1.0	go	0.445	Go_O	1.0
222.444	0.35	stopfail	0.418	Go_O	0.0
224.968	1.0	go	0.716	Go_O	1.0
227.492	1.0	go	0.461	Go_X	1.0
230.017	1.0	go	0.454	Go_X	1.0
232.541	1.0	go	0.789	Go_O	1.0
235.065	1.0	go	0.585	Go_X	1.0
237.589	1.0	go	0.587	Go_O	1.0
240.113	1.0	go	0.526	Go_X	1.0
242.638	1.0	go	0.576	Go_O	1.0
245.162	1.0	go	0.526	Go_X	1.0
247.686	0.3	stopsuccess	0.0	Go_X	1.0
250.21	1.0	go	0.48	Go_O	1.0
252.734	1.0	go	0.499	Go_X	1.0
255.258	1.0	go	0.393	Go_O	1.0
257.783	0.35	stopsuccess	0.0	Go_O	1.0
260.307	1.0	go	0.883	Go_O	1.0
262.831	1.0	go	0.596	Go_X	1.0
265.355	1.0	go	0.503	Go_X	1.0
267.879	1.0	go	0.723	Go_O	1.0
270.404	1.0	go	0.992	Go_X	1.0
272.928	1.0	go	0.395	Go_O	1.0
275.452	0.4	stopfail	0.285	Go_X	0.0
277.976	1.0	go	0.621	Go_O	1.0
280.5	1.0	go	0.517	Go_X	1.0
283.024	0.35	stopfail	0.472	Go_O	0.0
285.549	1.0	go	0.511	Go_O	1.0
288.073	1.0	go	0.742	Go_X	1.0
290.597	0.3	stopsuccess	0.0	Go_X	1.0
293.121	1.0	go	0.51	Go_X	1.0
295.645	0.35	stopfail	0.646	Go_O	0.0
298.17	1.0	go	0.638	Go_O	1.0
300.694	1.0	go	0.634	Go_X	1.0
303.218	1.0	go	0.62	Go_O	1.0
305.742	1.0	go	0.505	Go_X	1.0
308.266	1.0	go	0.668	Go_O	1.0
310.79	0.3	stopsuccess	0.0	Go_X	1.0
313.315	0.35	stopfail	0.406	Go_O	0.0
315.839	1.0	go	0.797	Go_O	1.0
318.363	1.0	go	0.543	Go_X	1.0
320.887	0.3	stopsuccess	0.0	Go_X	1.0
323.411	1.0	go	0.451	Go_O	1.0
325.936	1.0	go	0.575	Go_X	1.0
328.46	1.0	go	0.794	Go_X	1.0
330.984	1.0	go	0.836	Go_O	1.0
333.508	1.0	go	0.778	Go_O	1.0
336.032	1.0	go	0.768	Go_X	1.0
338.557	0.35	stopsuccess	0.0	Go_O	1.0
341.081	1.0	go	0.6	Go_X	1.0
343.605	1.0	go	0.658	Go_O	1.0
346.129	1.0	go	0.616	Go_O	1.0
348.653	1.0	go	0.928	Go_X	1.0
351.177	1.0	go	0.272	Go_X	0.0
353.702	0.4	stopsuccess	0.0	Go_X	1.0
356.226	1.0	go	0.567	Go_O	1.0
358.75	1.0	go	0.57	Go_O	1.0
361.274	1.0	go	0.589	Go_X	1.0
363.798	1.0	go	0.638	Go_O	1.0
366.322	0.45	stopsuccess	0.0	Go_O	1.0
368.863	1.0	go	0.782	Go_X	1.0
371.388	1.0	go	0.783	Go_X	1.0
373.912	0.5	stopsuccess	0.0	Go_X	1.0
376.436	1.0	go	0.836	Go_O	1.0
378.96	0.55	stopsuccess	0.0	Go_O	1.0
381.484	1.0	go	0.501	Go_O	1.0
384.008	1.0	go	0.45	Go_X	1.0
386.533	1.0	go	0.667	Go_O	1.0
389.057	1.0	go	0.685	Go_X	1.0
391.581	1.0	go	0.909	Go_X	1.0
394.105	1.0	go	0.709	Go_O	1.0
396.629	1.0	go	0.812	Go_O	1.0
399.154	0.6	stopfail	0.691	Go_X	0.0
401.678	1.0	go	0.707	Go_X	1.0
404.202	1.0	go	0.864	Go_X	1.0
406.726	1.0	go	0.761	Go_O	1.0
409.25	0.55	stopfail	0.745	Go_O	0.0
411.774	1.0	go	0.728	Go_X	1.0
414.299	1.0	go	0.706	Go_O	1.0
416.823	1.0	go	0.0	Go_O	0.0
419.347	1.0	go	0.621	Go_X	1.0
421.871	0.5	stopsuccess	0.0	Go_X	1.0
424.395	1.0	go	0.716	Go_X	1.0
426.92	1.0	go	0.797	Go_O	1.0
429.444	0.55	stopsuccess	0.0	Go_O	1.0
431.968	1.0	go	0.939	Go_X	1.0
434.492	1.0	go	0.662	Go_O	1.0
437.016	0.6	stopfail	0.521	Go_X	0.0
439.541	1.0	go	0.625	Go_X	1.0
442.065	1.0	go	0.761	Go_O	1.0
444.589	0.55	stopsuccess	0.0	Go_O	1.0
447.113	1.0	go	0.82	Go_O	1.0
449.637	1.0	go	0.879	Go_X	1.0
452.161	1.0	go	0.766	Go_O	1.0
454.686	1.0	go	0.617	Go_X	1.0
457.21	1.0	go	0.683	Go_X	1.0
459.734	1.0	go	0.692	Go_O	1.0
462.258	0.6	stopsuccess	0.0	Go_X	1.0
464.782	1.0	go	0.997	Go_X	0.0
467.307	0.65	stopfail	0.678	Go_O	0.0
469.831	1.0	go	0.0	Go_O	0.0
472.355	1.0	go	0.646	Go_X	1.0
474.879	1.0	go	0.591	Go_O	1.0
477.403	1.0	go	0.58	Go_X	1.0
479.927	1.0	go	0.585	Go_O	1.0
482.452	0.6	stopfail	0.365	Go_X	0.0
484.976	1.0	go	0.524	Go_O	1.0
487.5	1.0	go	0.232	Go_X	1.0
490.024	1.0	go	0.184	Go_O	1.0
492.548	0.55	stopfail	0.426	Go_O	0.0
495.073	0.5	stopfail	0.425	Go_X	0.0
497.613	0.45	stopfail	0.394	Go_O	0.0
500.138	1.0	go	0.783	Go_X	1.0
502.662	0.4	stopfail	0.809	Go_X	0.0
505.203	1.0	go	0.528	Go_X	1.0
507.727	1.0	go	0.664	Go_O	1.0
510.251	1.0	go	0.782	Go_X	1.0
512.775	1.0	go	0.615	Go_O	1.0
515.299	1.0	go	0.589	Go_O	1.0
517.824	1.0	go	0.777	Go_X	0.0
520.348	1.0	go	0.58	Go_X	1.0
522.872	1.0	go	0.478	Go_O	1.0
525.396	0.35	stopsuccess	0.0	Go_O	1.0
527.92	1.0	go	0.496	Go_X	1.0
530.445	1.0	go	0.426	Go_O	1.0
532.969	0.4	stopsuccess	0.0	Go_X	1.0
535.493	1.0	go	0.457	Go_O	1.0
538.017	1.0	go	0.471	Go_X	1.0
540.541	1.0	go	0.501	Go_O	1.0
543.065	1.0	go	0.451	Go_X	1.0
545.59	1.0	go	0.504	Go_O	1.0
548.114	0.45	stopfail	0.564	Go_O	0.0
550.638	1.0	go	0.783	Go_X	1.0
553.162	1.0	go	0.731	Go_X	1.0
555.686	1.0	go	0.612	Go_O	1.0
558.211	0.4	stopsuccess	0.0	Go_X	1.0
560.735	1.0	go	0.671	Go_X	1.0
563.259	0.45	stopfail	0.759	Go_O	0.0
565.783	1.0	go	0.0	Go_O	0.0
568.307	1.0	go	0.661	Go_X	1.0
570.831	1.0	go	0.575	Go_O	1.0
573.356	1.0	go	0.626	Go_O	0.0
575.88	1.0	go	0.549	Go_X	1.0
578.404	1.0	go	0.519	Go_X	1.0
580.928	1.0	go	0.407	Go_O	1.0
583.452	0.4	stopfail	0.565	Go_X	0.0
585.977	1.0	go	0.0	Go_X	0.0
588.501	1.0	go	0.573	Go_O	1.0
591.025	1.0	go	0.878	Go_O	1.0
593.549	1.0	go	0.641	Go_X	1.0
596.073	0.35	stopsuccess	0.0	Go_O	1.0
598.597	1.0	go	0.601	Go_X	1.0
601.122	0.4	stopfail	0.542	Go_X	0.0
603.646	1.0	go	0.752	Go_O	1.0
606.17	1.0	go	0.807	Go_X	1.0
608.694	0.35	stopfail	0.501	Go_O	0.0
611.218	1.0	go	0.584	Go_O	1.0
613.743	1.0	go	0.648	Go_O	1.0
616.267	1.0	go	0.823	Go_X	1.0
618.791	1.0	go	0.724	Go_X	1.0
621.315	1.0	go	0.747	Go_O	1.0
623.839	1.0	go	0.811	Go_O	1.0
626.363	1.0	go	0.715	Go_X	1.0
628.888	1.0	go	0.76	Go_O	1.0
631.412	1.0	go	0.761	Go_X	1.0
633.936	1.0	go	0.814	Go_X	1.0
636.46	0.3	stopsuccess	0.0	Go_X	1.0
638.984	1.0	go	0.685	Go_O	1.0
641.509	1.0	go	0.645	Go_X	1.0
644.033	0.35	stopfail	0.506	Go_O	0.0
646.557	1.0	go	0.64	Go_O	1.0
649.081	0.3	stopsuccess	0.0	Go_X	1.0
651.605	1.0	go	0.57	Go_O	1.0
654.129	1.0	go	0.73	Go_X	1.0
656.654	0.35	stopsuccess	0.0	Go_O	1.0
659.178	1.0	go	0.0	Go_O	0.0
661.702	0.4	stopsuccess	0.0	Go_X	1.0
664.226	1.0	go	0.767	Go_X	1.0
666.75	1.0	go	0.892	Go_X	1.0
669.275	1.0	go	0.645	Go_O	1.0
671.799	0.45	stopfail	0.645	Go_O	0.0
674.323	1.0	go	0.692	Go_O	1.0
676.847	1.0	go	0.655	Go_X	1.0
679.371	1.0	go	0.782	Go_X	1.0
681.895	1.0	go	0.763	Go_O	1.0
684.42	0.4	stopfail	0.469	Go_X	0.0
686.944	1.0	go	0.0	Go_O	0.0
689.468	1.0	go	0.558	Go_X	1.0
691.992	0.35	stopfail	0.566	Go_O	0.0
694.516	1.0	go	0.0	Go_X	0.0
697.041	1.0	go	0.672	Go_O	1.0
699.565	1.0	go	0.59	Go_X	1.0
702.089	1.0	go	0.55	Go_O	1.0
704.613	0.3	stopsuccess	0.0	Go_X	1.0
707.137	1.0	go	0.833	Go_O	1.0
709.661	0.35	stopsuccess	0.0	Go_O	1.0
712.186	1.0	go	0.604	Go_X	1.0
714.727	1.0	go	0.762	Go_X	1.0
717.251	0.4	stopsuccess	0.0	Go_X	1.0
719.775	1.0	go	0.541	Go_O	1.0
722.299	1.0	go	0.518	Go_O	1.0
724.823	1.0	go	0.672	Go_X	0.0
727.347	1.0	go	0.66	Go_O	1.0
729.872	0.45	stopfail	0.644	Go_O	0.0
732.413	1.0	go	0.6	Go_X	1.0
734.937	0.4	stopsuccess	0.0	Go_X	1.0
737.461	1.0	go	0.901	Go_X	1.0
739.985	1.0	go	0.671	Go_O	1.0
742.509	1.0	go	0.594	Go_O	1.0
745.033	1.0	go	0.681	Go_X	1.0
747.558	1.0	go	0.768	Go_O	1.0
750.082	1.0	go	0.749	Go_X	1.0
752.606	0.45	stopfail	0.64	Go_O	0.0
755.13	1.0	go	0.628	Go_O	1.0
757.654	1.0	go	0.758	Go_X	1.0
760.179	0.4	stopsuccess	0.0	Go_X	1.0
762.719	1.0	go	0.705	Go_O	1.0
765.244	1.0	go	0.776	Go_X	1.0
767.768	0.45	stopsuccess	0.0	Go_O	1.0
770.292	1.0	go	0.0	Go_O	0.0
772.816	1.0	go	0.786	Go_X	1.0
775.34	1.0	go	0.92	Go_X	1.0
777.865	1.0	go	0.509	Go_O	1.0
780.389	0.5	stopfail	0.633	Go_X	0.0
782.913	1.0	go	0.809	Go_O	1.0
785.437	0.45	stopsuccess	0.0	Go_O	1.0
787.961	1.0	go	0.493	Go_X	1.0
790.485	1.0	go	0.716	Go_O	1.0
793.01	1.0	go	0.473	Go_X	1.0
795.534	1.0	go	0.711	Go_O	1.0
798.058	1.0	go	0.922	Go_X	1.0
800.582	0.5	stopfail	0.672	Go_X	0.0
803.106	1.0	go	0.0	Go_O	0.0
805.631	1.0	go	0.499	Go_X	1.0
808.155	0.45	stopfail	0.611	Go_O	0.0
810.679	0.4	stopsuccess	0.0	Go_X	1.0
813.203	1.0	go	0.813	Go_X	1.0
815.727	1.0	go	0.691	Go_O	1.0
818.251	1.0	go	0.652	Go_O	1.0
820.776	1.0	go	0.776	Go_X	1.0
823.3	0.45	stopsuccess	0.0	Go_O	1.0
825.824	1.0	go	0.568	Go_X	1.0
