onset	duration	trial_type	response_time	stim_file	accuracy
43.717	1.0	go	0.0	Go_O	0.0
46.242	1.0	go	0.415	Go_X	1.0
48.766	1.0	go	0.361	Go_O	1.0
51.307	1.0	go	0.41	Go_X	1.0
53.831	1.0	go	0.397	Go_O	1.0
56.355	1.0	go	0.415	Go_X	1.0
58.896	0.25	stop	0.396	Go_O	0.0
61.42	1.0	go	0.495	Go_O	1.0
63.961	0.2	stop	0.0	Go_X	1.0
66.486	1.0	go	0.36	Go_X	1.0
69.01	1.0	go	0.338	Go_O	1.0
71.551	1.0	go	0.32	Go_X	1.0
74.075	0.25	stop	0.0	Go_O	1.0
76.616	1.0	go	0.321	Go_O	1.0
79.14	1.0	go	0.337	Go_X	1.0
81.664	0.3	stop	0.341	Go_X	0.0
84.205	0.25	stop	0.389	Go_O	0.0
86.746	1.0	go	0.398	Go_X	1.0
89.287	1.0	go	0.648	Go_O	1.0
91.828	0.2	stop	0.298	Go_X	0.0
94.369	1.0	go	0.444	Go_O	1.0
96.893	1.0	go	0.535	Go_X	1.0
99.434	0.15	stop	0.0	Go_O	1.0
101.958	1.0	go	0.462	Go_X	1.0
104.483	1.0	go	0.471	Go_O	1.0
107.007	0.2	stop	0.346	Go_X	0.0
109.548	1.0	go	0.557	Go_X	1.0
112.072	1.0	go	0.397	Go_O	1.0
114.596	0.15	stop	0.0	Go_O	1.0
117.137	1.0	go	0.449	Go_O	1.0
119.661	1.0	go	0.521	Go_X	1.0
122.185	1.0	go	0.382	Go_O	1.0
124.71	1.0	go	0.6	Go_X	1.0
127.234	1.0	go	0.391	Go_O	1.0
129.758	0.2	stop	0.0	Go_X	1.0
132.282	1.0	go	0.518	Go_X	1.0
134.807	1.0	go	0.499	Go_O	1.0
137.331	1.0	go	0.404	Go_X	1.0
139.855	1.0	go	0.559	Go_O	1.0
142.379	1.0	go	0.345	Go_X	1.0
144.92	0.25	stop	0.409	Go_O	0.0
147.461	1.0	go	0.374	Go_O	1.0
149.985	1.0	go	0.487	Go_X	1.0
152.526	1.0	go	0.443	Go_O	1.0
155.05	1.0	go	0.565	Go_X	1.0
157.591	1.0	go	0.489	Go_X	1.0
160.115	1.0	go	0.441	Go_O	1.0
162.64	0.2	stop	0.0	Go_X	1.0
165.181	1.0	go	0.365	Go_X	1.0
167.705	1.0	go	0.513	Go_O	1.0
170.246	0.25	stop	0.0	Go_O	1.0
172.787	1.0	go	0.465	Go_O	1.0
175.311	0.3	stop	0.0	Go_X	1.0
177.852	0.35	stop	0.503	Go_O	0.0
180.393	1.0	go	0.512	Go_X	1.0
182.934	1.0	go	0.521	Go_X	1.0
185.458	1.0	go	0.847	Go_O	1.0
187.982	1.0	go	0.444	Go_O	1.0
190.506	0.3	stop	0.373	Go_X	0.0
193.031	1.0	go	0.377	Go_X	1.0
195.555	0.25	stop	0.0	Go_O	1.0
198.096	1.0	go	0.398	Go_O	1.0
200.637	1.0	go	0.472	Go_X	1.0
203.161	1.0	go	0.404	Go_X	1.0
205.685	1.0	go	0.409	Go_O	1.0
208.209	1.0	go	0.682	Go_O	1.0
210.734	1.0	go	0.428	Go_X	1.0
213.258	1.0	go	0.357	Go_O	1.0
215.782	1.0	go	0.325	Go_X	1.0
218.306	1.0	go	0.371	Go_X	1.0
220.83	0.3	stop	0.371	Go_X	0.0
223.355	1.0	go	0.498	Go_O	1.0
225.879	1.0	go	0.368	Go_X	1.0
228.403	1.0	go	0.545	Go_O	1.0
230.927	0.25	stop	0.399	Go_O	0.0
233.451	1.0	go	0.645	Go_O	1.0
235.976	1.0	go	0.507	Go_X	1.0
238.5	1.0	go	0.565	Go_X	1.0
241.041	1.0	go	0.439	Go_O	1.0
243.565	1.0	go	0.309	Go_X	1.0
246.089	1.0	go	0.381	Go_O	1.0
248.63	0.2	stop	0.0	Go_X	1.0
251.171	1.0	go	0.447	Go_X	1.0
253.712	1.0	go	0.437	Go_O	1.0
256.236	0.25	stop	0.0	Go_O	1.0
258.777	1.0	go	0.487	Go_O	1.0
261.301	1.0	go	0.565	Go_X	1.0
263.826	0.3	stop	0.0	Go_X	1.0
266.367	1.0	go	0.37	Go_X	1.0
268.891	0.35	stop	0.447	Go_O	0.0
271.432	1.0	go	0.408	Go_O	1.0
273.973	1.0	go	0.442	Go_X	1.0
276.497	1.0	go	0.385	Go_O	1.0
279.021	1.0	go	0.552	Go_O	1.0
281.562	1.0	go	0.442	Go_X	1.0
284.103	0.3	stop	0.0	Go_X	1.0
286.627	0.35	stop	0.355	Go_O	0.0
289.168	1.0	go	0.412	Go_O	1.0
291.692	1.0	go	0.334	Go_X	1.0
294.216	0.3	stop	0.349	Go_X	0.0
296.741	1.0	go	0.387	Go_X	1.0
299.265	1.0	go	0.362	Go_O	1.0
301.806	1.0	go	0.396	Go_X	1.0
304.33	1.0	go	0.507	Go_O	1.0
306.854	1.0	go	0.383	Go_O	0.0
309.378	1.0	go	0.316	Go_X	1.0
311.903	0.25	stop	0.0	Go_O	1.0
314.427	1.0	go	0.338	Go_X	1.0
316.951	1.0	go	0.51	Go_O	1.0
319.475	1.0	go	0.495	Go_X	1.0
322.0	1.0	go	0.501	Go_O	1.0
324.54	1.0	go	0.583	Go_O	1.0
327.068	0.3	stop	0.372	Go_X	0.0
329.606	1.0	go	0.422	Go_X	1.0
332.13	1.0	go	0.438	Go_X	1.0
334.654	1.0	go	0.492	Go_O	1.0
337.178	1.0	go	0.526	Go_X	1.0
339.702	0.25	stop	0.0	Go_O	1.0
342.227	1.0	go	0.533	Go_O	1.0
344.751	1.0	go	0.6	Go_X	0.0
347.275	0.3	stop	0.342	Go_X	0.0
349.799	1.0	go	0.713	Go_O	1.0
352.324	0.25	stop	0.489	Go_O	0.0
354.848	1.0	go	0.385	Go_O	1.0
357.372	1.0	go	0.591	Go_X	1.0
359.896	1.0	go	0.367	Go_O	1.0
362.437	1.0	go	0.777	Go_X	1.0
364.961	1.0	go	0.461	Go_O	1.0
367.486	1.0	go	0.458	Go_X	1.0
370.01	1.0	go	0.386	Go_O	1.0
372.534	0.2	stop	0.392	Go_X	0.0
375.058	1.0	go	0.601	Go_X	1.0
377.582	1.0	go	0.869	Go_X	1.0
380.123	1.0	go	0.416	Go_O	1.0
382.664	0.15	stop	0.316	Go_O	0.0
385.205	1.0	go	0.451	Go_X	1.0
387.729	1.0	go	0.694	Go_O	1.0
390.254	1.0	go	0.0	Go_X	0.0
392.778	1.0	go	0.41	Go_O	1.0
395.302	0.1	stop	0.0	Go_X	1.0
397.843	1.0	go	0.37	Go_X	1.0
400.384	1.0	go	0.438	Go_O	1.0
402.908	0.15	stop	0.0	Go_O	1.0
405.449	1.0	go	0.984	Go_O	0.0
407.99	1.0	go	0.533	Go_X	1.0
410.531	0.2	stop	0.298	Go_X	0.0
413.055	1.0	go	0.375	Go_O	1.0
415.579	1.0	go	0.369	Go_X	1.0
418.104	0.15	stop	0.0	Go_O	1.0
420.644	1.0	go	0.61	Go_X	1.0
423.169	1.0	go	0.369	Go_O	1.0
425.693	1.0	go	0.418	Go_X	1.0
428.234	1.0	go	0.35	Go_O	1.0
430.758	1.0	go	0.407	Go_O	1.0
433.299	1.0	go	0.515	Go_X	1.0
435.823	0.2	stop	0.236	Go_X	0.0
438.364	1.0	go	0.426	Go_X	1.0
440.888	0.15	stop	0.0	Go_O	1.0
443.413	1.0	go	0.46	Go_O	1.0
445.937	1.0	go	0.447	Go_O	1.0
448.461	1.0	go	0.469	Go_X	1.0
450.985	1.0	go	0.439	Go_X	1.0
453.509	1.0	go	0.551	Go_O	1.0
456.05	0.2	stop	0.0	Go_X	1.0
458.575	1.0	go	0.352	Go_O	1.0
461.117	1.0	go	0.658	Go_X	1.0
463.64	1.0	go	0.367	Go_X	1.0
466.164	0.25	stop	0.0	Go_O	1.0
468.705	0.3	stop	0.325	Go_X	0.0
471.246	0.25	stop	0.0	Go_O	1.0
473.787	1.0	go	0.817	Go_O	1.0
476.311	0.3	stop	0.48	Go_X	0.0
478.852	1.0	go	0.839	Go_X	1.0
481.376	1.0	go	0.34	Go_O	1.0
483.917	1.0	go	0.0	Go_O	0.0
486.441	1.0	go	0.366	Go_X	1.0
488.965	1.0	go	0.377	Go_X	1.0
491.49	1.0	go	0.428	Go_O	1.0
494.014	1.0	go	0.616	Go_O	1.0
496.555	1.0	go	0.604	Go_X	1.0
499.096	0.25	stop	0.0	Go_O	1.0
501.637	1.0	go	0.352	Go_O	0.0
504.178	1.0	go	0.395	Go_X	1.0
506.719	0.3	stop	0.417	Go_X	0.0
509.243	1.0	go	0.373	Go_O	1.0
511.767	1.0	go	0.605	Go_X	1.0
514.291	1.0	go	0.597	Go_O	1.0
516.815	1.0	go	0.557	Go_X	1.0
519.356	1.0	go	0.404	Go_X	1.0
521.897	0.25	stop	0.415	Go_O	0.0
524.421	1.0	go	0.547	Go_O	1.0
526.962	1.0	go	0.361	Go_X	1.0
529.487	1.0	go	0.397	Go_O	1.0
532.011	0.2	stop	0.0	Go_X	1.0
534.535	1.0	go	0.597	Go_X	1.0
537.059	0.25	stop	0.437	Go_O	0.0
539.583	1.0	go	0.662	Go_O	1.0
542.108	1.0	go	0.0	Go_X	0.0
544.649	1.0	go	0.39	Go_O	1.0
547.173	1.0	go	0.679	Go_X	1.0
549.697	1.0	go	0.379	Go_O	1.0
552.221	1.0	go	0.492	Go_O	1.0
554.745	1.0	go	0.0	Go_X	0.0
557.27	0.2	stop	0.355	Go_X	0.0
559.811	1.0	go	0.772	Go_X	1.0
562.335	1.0	go	0.521	Go_O	1.0
564.876	1.0	go	0.0	Go_O	0.0
567.417	1.0	go	0.352	Go_X	1.0
569.958	0.15	stop	0.413	Go_O	0.0
572.498	1.0	go	0.55	Go_O	1.0
575.023	0.1	stop	0.0	Go_X	1.0
577.564	1.0	go	0.314	Go_X	1.0
580.121	1.0	go	0.466	Go_O	1.0
582.665	0.15	stop	0.0	Go_O	1.0
585.22	1.0	go	0.0	Go_X	0.0
587.761	1.0	go	0.0	Go_X	0.0
590.285	1.0	go	0.356	Go_O	1.0
592.809	1.0	go	0.36	Go_O	1.0
595.333	1.0	go	0.393	Go_X	1.0
597.858	1.0	go	0.418	Go_X	1.0
600.382	1.0	go	0.971	Go_O	1.0
602.906	1.0	go	0.417	Go_X	1.0
605.43	1.0	go	0.404	Go_O	1.0
607.954	1.0	go	0.0	Go_X	0.0
610.479	0.2	stop	0.0	Go_X	1.0
613.02	1.0	go	0.323	Go_O	1.0
615.561	1.0	go	0.335	Go_O	1.0
618.101	0.25	stop	0.0	Go_O	1.0
620.626	1.0	go	0.0	Go_X	0.0
623.167	0.3	stop	0.968	Go_X	0.0
625.708	1.0	go	0.421	Go_O	1.0
628.232	1.0	go	0.418	Go_X	1.0
630.773	0.25	stop	0.0	Go_O	1.0
633.314	1.0	go	0.548	Go_O	1.0
635.838	0.3	stop	0.38	Go_X	0.0
638.362	1.0	go	0.656	Go_X	1.0
640.886	1.0	go	0.0	Go_O	0.0
643.41	1.0	go	0.436	Go_X	1.0
645.951	0.25	stop	0.414	Go_O	0.0
648.476	1.0	go	0.606	Go_X	1.0
651.017	1.0	go	0.41	Go_O	1.0
653.541	1.0	go	0.291	Go_O	1.0
656.065	1.0	go	0.436	Go_X	1.0
658.589	0.2	stop	0.432	Go_X	0.0
661.13	1.0	go	0.451	Go_O	1.0
663.654	1.0	go	0.373	Go_X	1.0
666.179	0.15	stop	0.282	Go_O	0.0
668.719	1.0	go	0.467	Go_O	1.0
671.26	1.0	go	0.377	Go_X	1.0
673.785	1.0	go	0.409	Go_X	1.0
676.309	1.0	go	0.44	Go_O	1.0
678.833	0.1	stop	0.0	Go_X	1.0
681.357	1.0	go	0.863	Go_O	1.0
683.882	0.15	stop	0.0	Go_O	1.0
686.406	1.0	go	0.552	Go_X	1.0
688.93	1.0	go	0.425	Go_X	1.0
691.454	0.2	stop	0.354	Go_X	0.0
693.978	1.0	go	0.402	Go_O	1.0
696.503	1.0	go	0.694	Go_O	1.0
699.027	1.0	go	0.421	Go_X	1.0
701.551	1.0	go	0.583	Go_O	1.0
704.075	0.15	stop	0.0	Go_O	1.0
706.616	1.0	go	0.819	Go_X	1.0
709.14	0.2	stop	0.0	Go_X	1.0
711.665	1.0	go	0.388	Go_O	1.0
714.189	1.0	go	0.544	Go_X	1.0
716.73	1.0	go	0.433	Go_O	1.0
719.254	1.0	go	0.454	Go_X	1.0
721.778	1.0	go	0.473	Go_O	1.0
724.302	1.0	go	0.564	Go_X	1.0
726.827	0.25	stop	0.388	Go_O	0.0
729.351	1.0	go	0.474	Go_O	1.0
731.875	1.0	go	0.402	Go_X	1.0
734.399	0.2	stop	0.372	Go_X	0.0
736.923	1.0	go	0.501	Go_O	1.0
739.448	1.0	go	0.401	Go_X	1.0
741.972	0.15	stop	0.0	Go_O	1.0
744.496	1.0	go	0.542	Go_X	1.0
747.037	1.0	go	0.742	Go_O	1.0
749.578	1.0	go	0.335	Go_X	1.0
752.102	1.0	go	0.466	Go_O	1.0
754.626	0.2	stop	0.0	Go_X	1.0
757.151	1.0	go	0.529	Go_O	1.0
759.675	0.25	stop	0.0	Go_O	1.0
762.216	1.0	go	0.582	Go_X	1.0
764.74	1.0	go	0.0	Go_X	0.0
767.264	1.0	go	0.306	Go_O	1.0
769.788	1.0	go	0.52	Go_O	1.0
772.313	1.0	go	0.496	Go_X	1.0
774.837	0.3	stop	0.0	Go_X	1.0
777.378	1.0	go	0.479	Go_O	1.0
779.902	1.0	go	0.897	Go_X	1.0
782.426	0.35	stop	0.33	Go_O	0.0
784.967	0.3	stop	0.438	Go_X	0.0
787.508	1.0	go	0.591	Go_X	1.0
790.032	1.0	go	0.615	Go_O	1.0
792.556	1.0	go	0.409	Go_X	1.0
795.081	1.0	go	0.566	Go_O	1.0
797.622	0.25	stop	0.0	Go_O	1.0
800.162	1.0	go	0.424	Go_O	1.0
