onset	duration	trial_type	response_time	stim_file	accuracy
169.199	1.0	go	0.753	Go_X	1.0
171.724	1.0	go	0.698	Go_O	1.0
174.248	1.0	go	0.738	Go_X	1.0
176.772	1.0	go	0.755	Go_O	1.0
179.296	1.0	go	0.708	Go_X	1.0
181.82	1.0	go	0.762	Go_O	1.0
184.344	0.25	stop	0.0	Go_O	1.0
186.869	1.0	go	0.547	Go_X	1.0
189.393	0.3	stop	0.0	Go_X	1.0
191.917	1.0	go	0.669	Go_O	1.0
194.441	1.0	go	0.71	Go_X	1.0
196.965	1.0	go	0.949	Go_O	1.0
199.49	0.35	stop	0.0	Go_O	1.0
202.014	1.0	go	0.549	Go_X	1.0
204.538	1.0	go	0.0	Go_O	0.0
207.062	0.4	stop	0.479	Go_X	0.0
209.586	0.35	stop	0.0	Go_O	1.0
212.11	1.0	go	0.601	Go_O	1.0
214.635	1.0	go	0.649	Go_X	1.0
217.159	0.4	stop	0.0	Go_X	1.0
219.683	1.0	go	0.594	Go_X	1.0
222.207	1.0	go	0.787	Go_O	1.0
224.731	0.45	stop	0.0	Go_O	1.0
227.256	1.0	go	0.0	Go_O	0.0
229.78	1.0	go	0.606	Go_X	1.0
232.304	0.5	stop	0.0	Go_X	1.0
234.828	1.0	go	0.746	Go_O	1.0
237.352	1.0	go	0.952	Go_X	1.0
239.876	0.55	stop	0.686	Go_O	0.0
242.401	1.0	go	0.691	Go_X	1.0
244.925	1.0	go	0.885	Go_O	1.0
247.449	1.0	go	0.0	Go_X	0.0
249.973	1.0	go	0.622	Go_O	1.0
252.497	1.0	go	0.415	Go_X	1.0
255.022	0.5	stop	0.0	Go_X	1.0
257.546	1.0	go	0.0	Go_O	0.0
260.07	1.0	go	0.631	Go_X	1.0
262.594	1.0	go	0.798	Go_O	1.0
265.118	1.0	go	0.865	Go_O	1.0
267.642	1.0	go	0.7	Go_X	1.0
270.167	0.55	stop	0.0	Go_O	1.0
272.691	1.0	go	0.665	Go_X	1.0
275.215	1.0	go	0.817	Go_O	1.0
277.739	1.0	go	0.533	Go_X	1.0
280.263	1.0	go	0.578	Go_O	1.0
282.788	1.0	go	0.636	Go_X	1.0
285.312	1.0	go	0.862	Go_O	1.0
287.836	0.6	stop	0.479	Go_X	0.0
290.36	1.0	go	0.781	Go_O	1.0
292.884	1.0	go	0.552	Go_X	1.0
295.408	0.55	stop	0.584	Go_O	0.0
297.933	1.0	go	0.0	Go_O	0.0
300.457	0.5	stop	0.576	Go_X	0.0
302.981	0.45	stop	0.0	Go_O	1.0
305.505	1.0	go	0.623	Go_X	1.0
308.029	1.0	go	0.679	Go_O	1.0
310.554	1.0	go	0.798	Go_X	1.0
313.078	1.0	go	0.794	Go_O	1.0
315.602	0.5	stop	0.532	Go_X	0.0
318.126	1.0	go	0.75	Go_X	1.0
320.65	0.45	stop	0.0	Go_O	1.0
323.174	1.0	go	0.699	Go_X	1.0
325.699	1.0	go	0.846	Go_O	1.0
328.223	1.0	go	0.757	Go_X	1.0
330.747	1.0	go	0.805	Go_O	1.0
333.271	1.0	go	0.529	Go_X	1.0
335.795	1.0	go	0.686	Go_O	1.0
338.32	1.0	go	0.789	Go_X	1.0
340.844	1.0	go	0.851	Go_O	1.0
343.368	1.0	go	0.0	Go_O	0.0
345.892	0.5	stop	0.0	Go_X	1.0
348.416	1.0	go	0.611	Go_X	1.0
350.94	1.0	go	0.709	Go_O	1.0
353.465	1.0	go	0.799	Go_X	1.0
355.989	0.55	stop	0.622	Go_O	0.0
358.513	1.0	go	0.824	Go_X	1.0
361.037	1.0	go	0.906	Go_O	1.0
363.561	1.0	go	0.676	Go_X	1.0
366.086	1.0	go	0.0	Go_O	0.0
368.61	1.0	go	0.667	Go_O	1.0
371.134	1.0	go	0.777	Go_X	1.0
373.658	0.5	stop	0.0	Go_X	1.0
376.182	1.0	go	0.654	Go_X	1.0
378.706	1.0	go	0.834	Go_O	1.0
381.231	0.55	stop	0.0	Go_O	1.0
383.755	1.0	go	0.678	Go_O	1.0
386.279	1.0	go	0.79	Go_X	1.0
388.803	0.6	stop	0.783	Go_X	0.0
391.327	1.0	go	0.682	Go_X	1.0
393.852	0.55	stop	0.725	Go_O	0.0
396.376	1.0	go	0.813	Go_O	1.0
398.9	1.0	go	0.822	Go_O	1.0
401.424	1.0	go	0.953	Go_X	1.0
403.948	1.0	go	0.5	Go_O	1.0
406.472	1.0	go	0.812	Go_X	1.0
408.997	0.5	stop	0.0	Go_X	1.0
411.521	0.55	stop	0.0	Go_O	1.0
414.045	1.0	go	0.618	Go_O	1.0
416.569	1.0	go	0.905	Go_X	1.0
419.093	0.6	stop	0.0	Go_X	1.0
421.618	1.0	go	0.758	Go_O	1.0
424.142	1.0	go	0.0	Go_X	0.0
426.666	1.0	go	0.55	Go_X	1.0
429.19	1.0	go	0.718	Go_O	1.0
431.714	1.0	go	0.482	Go_O	0.0
434.239	1.0	go	0.557	Go_X	0.0
436.763	0.65	stop	0.547	Go_O	0.0
439.287	1.0	go	0.65	Go_X	0.0
441.811	1.0	go	0.72	Go_O	1.0
444.335	1.0	go	0.574	Go_X	1.0
446.859	1.0	go	0.845	Go_O	1.0
449.384	1.0	go	0.622	Go_X	1.0
451.908	0.6	stop	0.562	Go_X	0.0
454.432	1.0	go	0.606	Go_O	1.0
456.956	1.0	go	0.988	Go_X	1.0
459.48	1.0	go	0.533	Go_O	1.0
462.004	1.0	go	0.525	Go_X	1.0
464.529	0.55	stop	0.0	Go_O	1.0
467.053	1.0	go	0.724	Go_O	1.0
469.577	1.0	go	0.749	Go_O	0.0
472.101	0.6	stop	0.0	Go_X	1.0
474.625	1.0	go	0.418	Go_X	1.0
477.15	0.65	stop	0.745	Go_O	0.0
479.674	1.0	go	0.912	Go_X	1.0
482.198	1.0	go	0.964	Go_O	1.0
484.722	1.0	go	0.659	Go_O	1.0
487.246	1.0	go	0.408	Go_X	1.0
489.771	1.0	go	0.59	Go_X	1.0
492.295	1.0	go	0.853	Go_O	1.0
494.819	1.0	go	0.81	Go_O	1.0
497.343	0.6	stop	0.683	Go_X	0.0
499.867	1.0	go	0.732	Go_X	1.0
502.391	1.0	go	0.968	Go_O	1.0
504.916	1.0	go	0.858	Go_X	1.0
507.44	0.55	stop	0.0	Go_O	1.0
509.964	1.0	go	0.705	Go_X	1.0
512.488	1.0	go	0.833	Go_O	1.0
515.012	1.0	go	0.882	Go_X	1.0
517.537	1.0	go	0.0	Go_O	0.0
520.061	0.6	stop	0.711	Go_X	0.0
522.585	1.0	go	0.657	Go_O	1.0
525.109	1.0	go	0.481	Go_X	1.0
527.633	0.55	stop	0.603	Go_O	0.0
530.157	1.0	go	0.526	Go_X	1.0
532.682	1.0	go	0.689	Go_O	1.0
535.206	0.5	stop	0.587	Go_X	0.0
537.73	1.0	go	0.529	Go_O	0.0
540.254	1.0	go	0.494	Go_X	1.0
542.778	0.45	stop	0.519	Go_O	0.0
545.303	1.0	go	0.883	Go_O	1.0
547.827	1.0	go	0.93	Go_X	1.0
550.351	1.0	go	0.901	Go_X	0.0
552.875	1.0	go	0.793	Go_O	1.0
555.399	1.0	go	0.475	Go_O	1.0
557.923	1.0	go	0.562	Go_X	1.0
560.448	0.4	stop	0.0	Go_X	1.0
562.972	1.0	go	0.482	Go_O	1.0
565.496	0.45	stop	0.0	Go_O	1.0
568.02	1.0	go	0.654	Go_X	1.0
570.544	1.0	go	0.793	Go_O	1.0
573.069	1.0	go	0.875	Go_X	1.0
575.593	1.0	go	0.838	Go_O	1.0
578.117	1.0	go	0.48	Go_X	1.0
580.641	0.5	stop	0.58	Go_X	0.0
583.165	1.0	go	0.978	Go_O	1.0
585.689	1.0	go	0.614	Go_X	1.0
588.214	1.0	go	0.542	Go_O	1.0
590.738	0.45	stop	0.0	Go_O	1.0
593.262	0.5	stop	0.599	Go_X	0.0
595.786	0.45	stop	0.531	Go_O	0.0
598.31	1.0	go	0.893	Go_X	1.0
600.835	0.4	stop	0.0	Go_X	1.0
603.359	1.0	go	0.604	Go_O	1.0
605.883	1.0	go	0.98	Go_X	1.0
608.407	1.0	go	0.964	Go_O	1.0
610.931	1.0	go	0.753	Go_X	1.0
613.455	1.0	go	0.793	Go_X	1.0
615.98	1.0	go	0.541	Go_O	0.0
618.504	1.0	go	0.528	Go_O	1.0
621.028	1.0	go	0.737	Go_X	1.0
623.552	0.45	stop	0.585	Go_O	0.0
626.076	1.0	go	0.631	Go_O	1.0
628.601	1.0	go	0.707	Go_X	1.0
631.125	0.4	stop	0.0	Go_X	1.0
633.649	1.0	go	0.731	Go_X	1.0
636.173	1.0	go	0.0	Go_O	0.0
638.697	1.0	go	0.547	Go_O	0.0
641.221	1.0	go	0.399	Go_X	1.0
643.746	1.0	go	0.765	Go_O	1.0
646.27	0.45	stop	0.279	Go_O	0.0
648.794	1.0	go	0.849	Go_X	0.0
651.318	1.0	go	0.421	Go_O	1.0
653.842	1.0	go	0.553	Go_X	1.0
656.367	0.4	stop	0.0	Go_X	1.0
658.891	1.0	go	0.465	Go_O	1.0
661.415	0.45	stop	0.632	Go_O	0.0
663.939	1.0	go	0.935	Go_X	1.0
666.463	1.0	go	0.957	Go_O	1.0
668.987	1.0	go	0.657	Go_X	1.0
671.512	1.0	go	0.96	Go_O	1.0
674.036	1.0	go	0.688	Go_X	1.0
676.56	1.0	go	0.829	Go_O	1.0
679.084	1.0	go	0.601	Go_X	1.0
681.608	0.4	stop	0.0	Go_X	1.0
684.133	1.0	go	0.909	Go_X	1.0
686.657	1.0	go	0.788	Go_O	1.0
689.181	1.0	go	0.789	Go_O	1.0
691.705	1.0	go	0.781	Go_X	1.0
694.229	0.45	stop	0.0	Go_O	1.0
696.753	1.0	go	0.581	Go_O	1.0
699.278	0.5	stop	0.0	Go_X	1.0
701.802	1.0	go	0.624	Go_X	1.0
704.326	1.0	go	0.801	Go_O	1.0
706.85	0.55	stop	0.0	Go_O	1.0
709.374	1.0	go	0.817	Go_X	1.0
711.899	1.0	go	0.435	Go_O	1.0
714.423	1.0	go	0.693	Go_X	1.0
716.947	1.0	go	0.0	Go_X	0.0
719.471	1.0	go	0.842	Go_O	1.0
721.995	1.0	go	0.618	Go_O	1.0
724.519	1.0	go	0.743	Go_X	1.0
727.044	1.0	go	0.89	Go_O	1.0
729.568	1.0	go	0.849	Go_X	1.0
732.092	1.0	go	0.72	Go_O	1.0
734.616	0.6	stop	0.723	Go_X	0.0
737.14	1.0	go	0.693	Go_X	1.0
739.665	1.0	go	0.667	Go_X	1.0
742.189	0.55	stop	0.493	Go_O	0.0
744.713	1.0	go	0.793	Go_O	1.0
747.237	0.5	stop	0.0	Go_X	1.0
749.761	1.0	go	0.0	Go_X	0.0
752.286	1.0	go	0.5	Go_O	1.0
754.81	0.55	stop	0.631	Go_O	0.0
757.334	1.0	go	0.8	Go_O	1.0
759.858	0.5	stop	0.482	Go_X	0.0
762.382	1.0	go	0.514	Go_X	1.0
764.906	1.0	go	0.626	Go_X	1.0
767.431	1.0	go	0.651	Go_O	1.0
769.955	0.45	stop	0.0	Go_O	1.0
772.479	1.0	go	0.0	Go_O	0.0
775.003	1.0	go	0.745	Go_X	1.0
777.527	1.0	go	0.556	Go_O	1.0
780.052	1.0	go	0.593	Go_X	1.0
782.576	0.5	stop	0.0	Go_X	1.0
785.1	1.0	go	0.889	Go_O	1.0
787.624	1.0	go	0.647	Go_X	1.0
790.148	0.55	stop	0.0	Go_O	1.0
792.672	1.0	go	0.71	Go_X	1.0
795.197	1.0	go	0.829	Go_O	1.0
797.721	1.0	go	0.0	Go_X	0.0
800.245	1.0	go	0.832	Go_O	1.0
802.769	0.6	stop	0.679	Go_X	0.0
805.293	1.0	go	0.737	Go_X	1.0
807.818	0.55	stop	0.394	Go_O	0.0
810.342	1.0	go	0.542	Go_O	0.0
812.866	1.0	go	0.475	Go_X	1.0
815.39	0.5	stop	0.0	Go_X	1.0
817.914	1.0	go	0.577	Go_O	1.0
820.438	1.0	go	0.795	Go_O	0.0
822.963	1.0	go	0.63	Go_X	1.0
825.487	1.0	go	0.744	Go_X	0.0
828.011	0.55	stop	0.689	Go_O	0.0
830.535	1.0	go	0.618	Go_O	1.0
833.059	0.5	stop	0.497	Go_X	0.0
835.584	1.0	go	0.701	Go_O	1.0
838.108	1.0	go	0.835	Go_X	1.0
840.632	1.0	go	0.622	Go_X	1.0
843.156	1.0	go	0.0	Go_O	0.0
845.68	1.0	go	0.852	Go_X	1.0
848.204	1.0	go	0.746	Go_O	1.0
850.729	0.45	stop	0.0	Go_O	1.0
853.253	1.0	go	0.75	Go_X	1.0
855.777	1.0	go	0.739	Go_O	1.0
858.301	0.5	stop	0.655	Go_X	0.0
860.825	1.0	go	0.663	Go_X	1.0
863.35	1.0	go	0.804	Go_O	1.0
865.874	0.45	stop	0.0	Go_O	1.0
868.398	1.0	go	0.696	Go_X	1.0
870.922	1.0	go	0.642	Go_O	1.0
873.446	1.0	go	0.0	Go_X	0.0
875.97	1.0	go	0.671	Go_O	1.0
878.495	0.5	stop	0.575	Go_X	0.0
881.019	1.0	go	0.596	Go_O	1.0
883.543	0.45	stop	0.0	Go_O	1.0
886.067	1.0	go	0.0	Go_X	0.0
888.591	1.0	go	0.806	Go_X	1.0
891.116	1.0	go	0.813	Go_O	1.0
893.64	1.0	go	0.77	Go_O	0.0
896.164	1.0	go	0.645	Go_X	0.0
898.688	0.5	stop	0.748	Go_X	0.0
901.212	1.0	go	0.565	Go_O	1.0
903.736	1.0	go	0.703	Go_X	1.0
906.261	0.45	stop	0.0	Go_O	1.0
908.785	0.5	stop	0.0	Go_X	1.0
911.309	1.0	go	0.853	Go_O	0.0
913.833	1.0	go	0.69	Go_X	1.0
916.357	1.0	go	0.955	Go_O	1.0
918.882	1.0	go	0.538	Go_X	1.0
921.406	0.55	stop	0.0	Go_O	1.0
923.93	1.0	go	0.741	Go_O	1.0
