onset	duration	trial_type	response_time	stim_file	accuracy
226.962	1.0	go	0.387	Go_X	0.0
229.487	1.0	go	0.313	Go_O	1.0
232.011	1.0	go	0.364	Go_O	0.0
234.535	1.0	go	0.317	Go_X	1.0
237.059	1.0	go	0.368	Go_X	1.0
239.583	1.0	go	0.295	Go_O	1.0
242.107	0.25	stop	0.0	Go_O	1.0
244.632	1.0	go	0.268	Go_X	1.0
247.156	0.3	stop	0.375	Go_X	0.0
249.68	1.0	go	0.337	Go_O	1.0
252.204	1.0	go	0.361	Go_X	1.0
254.728	1.0	go	0.312	Go_O	1.0
257.252	0.25	stop	0.259	Go_O	0.0
259.776	1.0	go	0.446	Go_O	1.0
262.301	1.0	go	0.333	Go_X	1.0
264.825	0.2	stop	0.0	Go_X	1.0
267.349	0.25	stop	0.343	Go_O	0.0
269.873	1.0	go	0.32	Go_X	1.0
272.397	1.0	go	0.494	Go_O	1.0
274.921	0.2	stop	0.376	Go_X	0.0
277.446	1.0	go	0.583	Go_O	1.0
279.97	1.0	go	0.432	Go_X	1.0
282.494	0.15	stop	0.0	Go_O	1.0
285.018	1.0	go	0.26	Go_X	1.0
287.542	1.0	go	0.345	Go_O	1.0
290.066	0.2	stop	0.0	Go_X	1.0
292.591	1.0	go	0.502	Go_X	1.0
295.115	1.0	go	0.431	Go_O	1.0
297.639	0.25	stop	0.0	Go_O	1.0
300.163	1.0	go	0.442	Go_O	1.0
302.687	1.0	go	0.42	Go_X	1.0
305.211	1.0	go	0.409	Go_X	1.0
307.736	1.0	go	0.416	Go_O	1.0
310.26	1.0	go	0.419	Go_X	1.0
312.784	0.3	stop	0.407	Go_X	0.0
315.308	1.0	go	0.299	Go_O	1.0
317.832	1.0	go	0.471	Go_O	1.0
320.356	1.0	go	0.386	Go_X	1.0
322.881	1.0	go	0.387	Go_X	0.0
325.405	1.0	go	0.54	Go_O	1.0
327.929	0.25	stop	0.0	Go_O	1.0
330.453	1.0	go	0.272	Go_X	1.0
332.977	1.0	go	0.408	Go_O	1.0
335.501	1.0	go	0.348	Go_X	1.0
338.025	1.0	go	0.539	Go_O	1.0
340.55	1.0	go	0.465	Go_O	1.0
343.074	1.0	go	0.302	Go_X	1.0
345.598	0.3	stop	0.453	Go_X	0.0
348.122	1.0	go	0.344	Go_O	1.0
350.646	1.0	go	0.309	Go_X	1.0
353.17	0.25	stop	0.433	Go_O	0.0
355.695	1.0	go	0.31	Go_X	1.0
358.219	0.2	stop	0.0	Go_X	1.0
360.743	0.25	stop	0.459	Go_O	0.0
363.267	1.0	go	0.643	Go_O	0.0
365.791	1.0	go	0.456	Go_X	1.0
368.315	1.0	go	0.372	Go_O	1.0
370.84	1.0	go	0.406	Go_O	1.0
373.364	0.2	stop	0.0	Go_X	1.0
375.888	1.0	go	0.697	Go_X	1.0
378.412	0.25	stop	0.0	Go_O	1.0
380.936	1.0	go	0.587	Go_O	1.0
383.46	1.0	go	0.556	Go_X	1.0
385.985	1.0	go	0.505	Go_O	1.0
388.509	1.0	go	0.306	Go_X	1.0
391.033	1.0	go	0.607	Go_X	0.0
393.557	1.0	go	0.447	Go_O	1.0
396.081	1.0	go	0.514	Go_X	1.0
398.605	1.0	go	0.473	Go_O	1.0
401.129	1.0	go	0.785	Go_X	1.0
403.654	0.3	stop	0.0	Go_X	1.0
406.178	1.0	go	0.75	Go_O	1.0
408.702	1.0	go	0.5	Go_X	1.0
411.226	1.0	go	0.432	Go_O	1.0
413.75	0.35	stop	0.0	Go_O	1.0
416.274	1.0	go	0.36	Go_X	1.0
418.799	1.0	go	0.436	Go_O	1.0
421.323	1.0	go	0.448	Go_O	1.0
423.847	1.0	go	0.506	Go_X	1.0
426.371	1.0	go	0.316	Go_X	0.0
428.895	1.0	go	0.568	Go_O	1.0
431.419	0.4	stop	0.486	Go_X	0.0
433.944	1.0	go	0.377	Go_O	1.0
436.468	1.0	go	0.315	Go_X	1.0
438.992	0.35	stop	0.439	Go_O	0.0
441.516	1.0	go	0.565	Go_O	0.0
444.04	1.0	go	0.463	Go_X	1.0
446.564	0.3	stop	0.32	Go_X	0.0
449.089	1.0	go	0.549	Go_X	1.0
451.613	0.25	stop	0.0	Go_O	1.0
454.137	1.0	go	0.596	Go_O	1.0
456.661	1.0	go	0.543	Go_X	1.0
459.185	1.0	go	0.807	Go_O	1.0
461.709	1.0	go	0.407	Go_O	1.0
464.234	1.0	go	0.4	Go_X	1.0
466.758	0.3	stop	0.0	Go_X	1.0
469.282	0.35	stop	0.464	Go_O	0.0
471.806	1.0	go	0.0	Go_X	0.0
474.33	1.0	go	0.551	Go_O	1.0
476.854	0.3	stop	0.302	Go_X	0.0
479.378	1.0	go	0.524	Go_O	1.0
481.903	1.0	go	0.316	Go_X	1.0
484.427	1.0	go	0.381	Go_X	0.0
486.951	1.0	go	0.458	Go_O	1.0
489.475	1.0	go	0.271	Go_O	1.0
491.999	1.0	go	0.347	Go_X	1.0
494.523	0.25	stop	0.0	Go_O	1.0
497.048	1.0	go	0.498	Go_X	1.0
499.572	1.0	go	0.496	Go_O	1.0
502.096	1.0	go	0.791	Go_O	1.0
504.62	1.0	go	0.598	Go_X	1.0
507.144	1.0	go	0.525	Go_O	1.0
509.668	0.3	stop	0.0	Go_X	1.0
512.193	1.0	go	0.355	Go_X	1.0
514.717	1.0	go	0.479	Go_O	1.0
517.241	1.0	go	0.359	Go_X	1.0
519.765	1.0	go	0.584	Go_X	1.0
522.289	0.35	stop	0.452	Go_O	0.0
524.813	1.0	go	0.408	Go_O	1.0
527.338	1.0	go	0.478	Go_X	1.0
529.862	0.3	stop	0.613	Go_X	0.0
532.403	1.0	go	0.485	Go_O	1.0
534.927	0.25	stop	0.0	Go_O	1.0
537.451	1.0	go	0.0	Go_X	0.0
539.975	1.0	go	0.399	Go_O	1.0
542.499	1.0	go	0.423	Go_X	1.0
545.023	1.0	go	0.351	Go_O	1.0
547.548	1.0	go	0.541	Go_O	1.0
550.072	1.0	go	0.93	Go_X	1.0
552.596	1.0	go	0.4	Go_X	1.0
555.12	0.3	stop	0.411	Go_X	0.0
557.644	1.0	go	0.493	Go_O	1.0
560.168	1.0	go	0.386	Go_O	1.0
562.693	1.0	go	0.403	Go_X	1.0
565.217	0.25	stop	0.0	Go_O	1.0
567.741	1.0	go	0.508	Go_O	1.0
570.265	1.0	go	0.606	Go_X	0.0
572.789	1.0	go	0.404	Go_O	1.0
575.313	1.0	go	0.467	Go_X	1.0
577.837	0.3	stop	0.0	Go_X	1.0
580.362	1.0	go	0.931	Go_O	1.0
582.886	1.0	go	0.492	Go_X	1.0
585.41	0.35	stop	0.567	Go_O	0.0
587.934	1.0	go	0.304	Go_X	1.0
590.458	1.0	go	0.419	Go_O	1.0
592.982	0.3	stop	0.0	Go_X	1.0
595.507	1.0	go	0.467	Go_X	1.0
598.031	1.0	go	0.49	Go_O	1.0
600.555	0.35	stop	0.69	Go_O	0.0
603.079	1.0	go	0.567	Go_O	1.0
605.603	1.0	go	0.456	Go_X	1.0
608.127	1.0	go	0.707	Go_X	1.0
610.652	1.0	go	0.384	Go_O	1.0
613.176	1.0	go	0.399	Go_X	1.0
615.7	1.0	go	0.326	Go_O	1.0
618.224	0.3	stop	0.289	Go_X	0.0
620.748	1.0	go	0.264	Go_O	1.0
623.272	0.25	stop	0.366	Go_O	0.0
625.797	1.0	go	0.349	Go_X	1.0
628.321	1.0	go	0.591	Go_X	1.0
630.845	1.0	go	0.391	Go_O	1.0
633.369	1.0	go	0.296	Go_O	1.0
635.893	1.0	go	0.308	Go_X	1.0
638.417	0.2	stop	0.258	Go_X	0.0
640.941	1.0	go	0.286	Go_O	1.0
643.466	1.0	go	0.316	Go_X	1.0
645.99	1.0	go	0.362	Go_O	1.0
648.514	0.15	stop	0.0	Go_O	1.0
651.038	0.2	stop	0.302	Go_X	0.0
653.562	0.15	stop	0.0	Go_O	1.0
656.086	1.0	go	0.523	Go_X	1.0
658.611	0.2	stop	0.0	Go_X	1.0
661.135	1.0	go	0.662	Go_O	1.0
663.659	1.0	go	0.539	Go_X	1.0
666.183	1.0	go	0.422	Go_O	1.0
668.707	1.0	go	0.903	Go_X	0.0
671.231	1.0	go	0.489	Go_X	1.0
673.756	1.0	go	0.373	Go_O	1.0
676.28	1.0	go	0.365	Go_X	1.0
678.804	1.0	go	0.346	Go_O	1.0
681.328	0.25	stop	0.0	Go_O	1.0
683.852	1.0	go	0.0	Go_X	0.0
686.376	1.0	go	0.335	Go_O	1.0
688.901	0.3	stop	0.355	Go_X	0.0
691.425	1.0	go	0.329	Go_X	0.0
693.949	1.0	go	0.511	Go_O	1.0
696.473	1.0	go	0.429	Go_X	1.0
698.997	1.0	go	0.57	Go_O	1.0
701.521	1.0	go	0.341	Go_O	0.0
704.046	0.25	stop	0.0	Go_O	1.0
706.57	1.0	go	0.409	Go_X	1.0
709.094	1.0	go	0.438	Go_X	1.0
711.618	1.0	go	0.677	Go_O	1.0
714.142	0.3	stop	0.425	Go_X	0.0
716.666	1.0	go	0.482	Go_O	1.0
719.19	0.25	stop	0.0	Go_O	1.0
721.715	1.0	go	0.954	Go_X	1.0
724.239	1.0	go	0.354	Go_O	1.0
726.763	1.0	go	0.665	Go_X	0.0
729.287	1.0	go	0.766	Go_X	1.0
731.811	1.0	go	0.446	Go_O	1.0
734.335	1.0	go	0.455	Go_O	1.0
736.86	1.0	go	0.43	Go_X	1.0
739.384	0.3	stop	0.528	Go_X	0.0
741.908	1.0	go	0.397	Go_O	1.0
744.432	1.0	go	0.36	Go_X	1.0
746.956	1.0	go	0.286	Go_X	0.0
749.48	1.0	go	0.429	Go_O	1.0
752.005	0.25	stop	0.363	Go_O	0.0
754.529	1.0	go	0.377	Go_X	1.0
757.053	0.2	stop	0.601	Go_X	0.0
759.577	1.0	go	0.58	Go_O	1.0
762.101	1.0	go	0.788	Go_X	1.0
764.625	0.15	stop	0.0	Go_O	1.0
767.15	1.0	go	0.434	Go_O	1.0
769.674	1.0	go	0.499	Go_X	1.0
772.198	1.0	go	0.675	Go_O	1.0
774.722	1.0	go	0.412	Go_O	1.0
777.246	1.0	go	0.516	Go_X	1.0
779.77	1.0	go	0.465	Go_O	0.0
782.295	1.0	go	0.459	Go_X	1.0
784.819	1.0	go	0.497	Go_O	1.0
787.343	1.0	go	0.653	Go_X	1.0
789.867	1.0	go	0.336	Go_X	1.0
792.391	0.2	stop	0.449	Go_X	0.0
794.915	1.0	go	0.56	Go_O	1.0
797.439	1.0	go	0.36	Go_X	1.0
799.964	0.15	stop	0.0	Go_O	1.0
802.488	1.0	go	0.607	Go_O	1.0
805.012	0.2	stop	0.32	Go_X	0.0
807.536	1.0	go	0.604	Go_X	1.0
810.06	1.0	go	0.544	Go_O	1.0
812.584	0.15	stop	0.0	Go_O	1.0
815.109	1.0	go	0.895	Go_X	1.0
817.633	0.2	stop	0.0	Go_X	1.0
820.157	1.0	go	0.434	Go_O	1.0
822.681	1.0	go	0.257	Go_O	0.0
825.205	1.0	go	0.4	Go_X	1.0
827.729	0.25	stop	0.29	Go_O	0.0
830.254	1.0	go	0.269	Go_X	1.0
832.778	1.0	go	0.482	Go_O	1.0
835.302	1.0	go	0.519	Go_X	1.0
837.826	1.0	go	0.0	Go_O	0.0
840.35	0.2	stop	0.0	Go_X	1.0
842.874	1.0	go	0.427	Go_O	1.0
845.399	1.0	go	0.516	Go_X	1.0
847.923	0.25	stop	0.484	Go_O	0.0
850.447	1.0	go	0.875	Go_O	1.0
852.971	1.0	go	0.559	Go_X	1.0
855.495	1.0	go	0.746	Go_O	1.0
858.019	1.0	go	0.522	Go_X	1.0
860.543	0.2	stop	0.0	Go_X	1.0
863.068	1.0	go	0.0	Go_X	0.0
865.592	0.25	stop	0.284	Go_O	0.0
868.116	1.0	go	0.405	Go_O	1.0
870.64	1.0	go	0.483	Go_O	1.0
873.164	0.2	stop	0.352	Go_X	0.0
875.688	1.0	go	0.41	Go_X	1.0
878.213	1.0	go	0.44	Go_O	1.0
880.737	1.0	go	0.478	Go_X	1.0
883.261	1.0	go	0.537	Go_O	1.0
885.785	0.15	stop	0.0	Go_O	1.0
888.309	1.0	go	0.0	Go_X	0.0
890.833	0.2	stop	0.469	Go_X	0.0
893.358	1.0	go	0.767	Go_X	1.0
895.882	1.0	go	0.811	Go_O	1.0
898.406	1.0	go	0.762	Go_O	0.0
900.93	1.0	go	0.261	Go_X	1.0
903.454	1.0	go	0.554	Go_O	1.0
905.978	1.0	go	0.459	Go_X	1.0
908.503	0.15	stop	0.0	Go_O	1.0
911.027	1.0	go	0.541	Go_X	1.0
913.551	1.0	go	0.462	Go_O	1.0
916.075	0.2	stop	0.0	Go_X	1.0
918.599	1.0	go	0.631	Go_X	1.0
921.123	1.0	go	0.781	Go_O	1.0
923.648	0.25	stop	0.374	Go_O	0.0
926.172	1.0	go	0.632	Go_O	1.0
928.696	1.0	go	0.431	Go_X	1.0
931.22	1.0	go	0.33	Go_O	1.0
933.744	1.0	go	0.366	Go_X	1.0
936.268	0.2	stop	0.0	Go_X	1.0
938.792	1.0	go	0.528	Go_X	1.0
941.317	0.25	stop	0.0	Go_O	1.0
943.841	1.0	go	0.887	Go_O	1.0
946.365	1.0	go	0.391	Go_O	1.0
948.889	1.0	go	0.603	Go_X	1.0
951.413	1.0	go	0.415	Go_O	1.0
953.937	1.0	go	0.362	Go_X	1.0
956.462	0.3	stop	0.426	Go_X	0.0
958.986	1.0	go	0.375	Go_O	1.0
961.51	1.0	go	0.367	Go_X	1.0
964.034	0.25	stop	0.277	Go_O	0.0
966.558	0.2	stop	0.0	Go_X	1.0
969.082	1.0	go	0.554	Go_O	1.0
971.607	1.0	go	0.492	Go_X	1.0
974.131	1.0	go	0.33	Go_X	0.0
976.655	1.0	go	0.429	Go_O	1.0
979.179	0.25	stop	0.477	Go_O	0.0
981.703	1.0	go	0.301	Go_X	1.0
