onset	duration	trial_type	response_time	stim_file	accuracy
41.046	1.0	go	0.0	Go_X	0.0
43.579	1.0	go	0.433	Go_O	1.0
46.112	1.0	go	0.389	Go_O	1.0
48.645	1.0	go	0.537	Go_X	1.0
51.179	1.0	go	0.469	Go_O	1.0
53.712	1.0	go	0.512	Go_X	1.0
56.245	0.25	stopsuccess	0.0	Go_O	1.0
58.779	1.0	go	0.269	Go_X	1.0
61.328	0.3	stopfail	0.333	Go_X	0.0
63.862	1.0	go	0.309	Go_O	1.0
66.395	1.0	go	0.404	Go_O	1.0
68.928	1.0	go	0.396	Go_X	1.0
71.462	0.25	stopsuccess	0.0	Go_O	1.0
73.995	1.0	go	0.488	Go_O	1.0
76.528	1.0	go	0.316	Go_X	1.0
79.061	0.3	stopfail	0.298	Go_X	0.0
81.595	0.25	stopfail	0.317	Go_O	0.0
84.128	1.0	go	0.596	Go_O	1.0
86.661	1.0	go	0.5	Go_X	1.0
89.194	0.2	stopsuccess	0.0	Go_X	1.0
91.728	1.0	go	0.365	Go_X	1.0
94.261	1.0	go	0.393	Go_O	1.0
96.794	0.25	stopsuccess	0.0	Go_O	1.0
99.328	1.0	go	0.576	Go_O	1.0
101.861	1.0	go	0.639	Go_X	1.0
104.394	0.3	stopfail	0.401	Go_X	0.0
106.927	1.0	go	0.453	Go_O	1.0
109.461	1.0	go	0.659	Go_X	1.0
111.994	0.25	stopsuccess	0.0	Go_O	1.0
114.527	1.0	go	0.35	Go_X	1.0
117.061	1.0	go	0.493	Go_O	1.0
119.61	1.0	go	0.642	Go_O	1.0
122.144	1.0	go	0.643	Go_X	1.0
124.677	1.0	go	0.531	Go_X	1.0
127.21	0.3	stopsuccess	0.0	Go_X	1.0
129.744	1.0	go	0.321	Go_O	1.0
132.293	1.0	go	0.614	Go_O	1.0
134.827	1.0	go	0.397	Go_X	1.0
137.36	1.0	go	0.482	Go_O	1.0
139.893	1.0	go	0.362	Go_X	1.0
142.427	0.35	stopsuccess	0.0	Go_O	1.0
144.96	1.0	go	0.0	Go_X	0.0
147.493	1.0	go	0.416	Go_O	1.0
150.026	1.0	go	0.299	Go_X	1.0
152.56	1.0	go	0.42	Go_O	1.0
155.093	1.0	go	0.299	Go_X	1.0
157.626	1.0	go	0.513	Go_O	1.0
160.159	0.4	stopsuccess	0.0	Go_X	1.0
162.709	1.0	go	0.71	Go_O	1.0
165.243	1.0	go	0.0	Go_X	0.0
167.776	0.45	stopfail	0.342	Go_O	0.0
170.309	1.0	go	0.526	Go_O	1.0
172.843	0.4	stopfail	0.682	Go_X	0.0
175.392	0.35	stopfail	0.586	Go_O	0.0
177.926	1.0	go	0.47	Go_X	1.0
180.459	1.0	go	0.512	Go_X	1.0
182.992	1.0	go	0.539	Go_O	1.0
185.526	1.0	go	0.564	Go_X	1.0
188.059	0.3	stopsuccess	0.0	Go_X	1.0
190.592	1.0	go	0.571	Go_O	1.0
193.125	0.35	stopsuccess	0.0	Go_O	1.0
195.659	1.0	go	0.479	Go_O	1.0
198.192	1.0	go	0.346	Go_X	1.0
200.725	1.0	go	0.0	Go_O	0.0
203.258	1.0	go	0.314	Go_X	1.0
205.792	1.0	go	0.591	Go_O	1.0
208.325	1.0	go	0.78	Go_X	1.0
210.858	1.0	go	0.511	Go_O	1.0
213.392	1.0	go	0.711	Go_X	1.0
215.925	1.0	go	0.445	Go_X	1.0
218.458	0.4	stopfail	0.546	Go_X	0.0
220.991	1.0	go	0.529	Go_O	1.0
223.525	1.0	go	0.483	Go_O	1.0
226.058	1.0	go	0.698	Go_X	1.0
228.591	0.35	stopsuccess	0.0	Go_O	1.0
231.125	1.0	go	0.709	Go_X	1.0
233.674	1.0	go	0.569	Go_O	1.0
236.208	1.0	go	0.662	Go_X	1.0
238.741	1.0	go	0.547	Go_O	1.0
241.274	1.0	go	0.425	Go_X	1.0
243.808	1.0	go	0.66	Go_O	1.0
246.341	0.4	stopfail	0.422	Go_X	0.0
248.874	1.0	go	0.736	Go_X	1.0
251.407	1.0	go	0.57	Go_O	1.0
253.941	0.35	stopsuccess	0.0	Go_O	1.0
256.474	1.0	go	0.54	Go_X	1.0
259.007	1.0	go	0.0	Go_O	0.0
261.54	0.4	stopfail	0.309	Go_X	0.0
264.074	1.0	go	0.634	Go_X	1.0
266.607	0.35	stopsuccess	0.0	Go_O	1.0
269.14	1.0	go	0.588	Go_O	1.0
271.674	1.0	go	0.473	Go_X	1.0
274.207	1.0	go	0.815	Go_O	1.0
276.74	1.0	go	0.775	Go_O	1.0
279.273	1.0	go	0.573	Go_X	1.0
281.807	0.4	stopfail	0.472	Go_X	0.0
284.34	0.35	stopfail	0.417	Go_O	0.0
286.873	1.0	go	0.341	Go_X	1.0
289.407	1.0	go	0.259	Go_O	1.0
291.956	0.3	stopfail	0.214	Go_X	0.0
294.49	1.0	go	0.216	Go_O	1.0
297.023	1.0	go	0.279	Go_X	1.0
299.556	1.0	go	0.384	Go_O	1.0
302.09	1.0	go	0.55	Go_X	1.0
304.639	1.0	go	0.508	Go_O	1.0
307.173	1.0	go	0.617	Go_X	1.0
309.706	0.25	stopsuccess	0.0	Go_O	1.0
312.239	1.0	go	0.288	Go_X	1.0
314.773	1.0	go	0.565	Go_O	1.0
317.306	1.0	go	0.65	Go_O	1.0
319.839	1.0	go	0.57	Go_X	1.0
322.372	1.0	go	0.45	Go_O	1.0
324.906	0.3	stopsuccess	0.0	Go_X	1.0
327.439	1.0	go	0.53	Go_X	1.0
329.972	1.0	go	0.818	Go_O	1.0
332.505	1.0	go	0.702	Go_X	1.0
335.039	1.0	go	0.662	Go_O	1.0
337.572	0.35	stopsuccess	0.0	Go_O	1.0
340.105	1.0	go	0.631	Go_X	1.0
342.639	1.0	go	0.757	Go_X	1.0
345.172	0.4	stopsuccess	0.0	Go_X	1.0
347.705	1.0	go	0.743	Go_O	1.0
350.238	0.45	stopsuccess	0.0	Go_O	1.0
352.772	1.0	go	0.535	Go_X	1.0
355.305	1.0	go	0.865	Go_O	1.0
357.838	1.0	go	0.733	Go_X	1.0
360.372	1.0	go	0.669	Go_O	1.0
362.921	1.0	go	0.668	Go_X	1.0
365.455	1.0	go	0.689	Go_O	1.0
367.988	1.0	go	0.0	Go_X	0.0
370.521	0.5	stopfail	0.426	Go_X	0.0
373.055	1.0	go	0.825	Go_O	1.0
375.588	1.0	go	0.611	Go_X	1.0
378.121	1.0	go	0.541	Go_O	1.0
380.654	0.45	stopfail	0.528	Go_O	0.0
383.188	1.0	go	0.618	Go_O	1.0
385.721	1.0	go	0.682	Go_X	1.0
388.254	1.0	go	0.543	Go_O	1.0
390.787	1.0	go	0.505	Go_X	1.0
393.321	0.4	stopsuccess	0.0	Go_X	1.0
395.854	1.0	go	0.538	Go_O	1.0
398.387	1.0	go	0.746	Go_X	1.0
400.921	0.45	stopfail	0.462	Go_O	0.0
403.454	1.0	go	0.718	Go_O	1.0
405.987	1.0	go	0.654	Go_X	1.0
408.52	0.4	stopsuccess	0.0	Go_X	1.0
411.054	1.0	go	0.63	Go_X	1.0
413.587	1.0	go	0.823	Go_O	1.0
416.12	0.45	stopsuccess	0.0	Go_O	1.0
418.653	1.0	go	0.619	Go_O	1.0
421.187	1.0	go	0.602	Go_X	1.0
423.72	1.0	go	0.66	Go_X	1.0
426.253	1.0	go	0.638	Go_O	1.0
428.787	1.0	go	0.611	Go_X	1.0
431.32	1.0	go	0.0	Go_O	0.0
433.853	0.5	stopfail	0.523	Go_X	0.0
436.386	1.0	go	0.628	Go_X	1.0
438.92	0.45	stopsuccess	0.0	Go_O	1.0
441.453	1.0	go	0.866	Go_O	1.0
443.986	1.0	go	0.0	Go_O	0.0
446.52	1.0	go	0.346	Go_X	1.0
449.069	1.0	go	0.417	Go_X	1.0
451.603	1.0	go	0.353	Go_O	1.0
454.136	0.5	stopfail	0.509	Go_X	0.0
456.669	1.0	go	0.468	Go_X	1.0
459.203	1.0	go	0.497	Go_O	1.0
461.752	1.0	go	0.539	Go_O	1.0
464.286	0.45	stopsuccess	0.0	Go_O	1.0
466.819	0.5	stopfail	0.416	Go_X	0.0
469.352	0.45	stopsuccess	0.0	Go_O	1.0
471.886	1.0	go	0.436	Go_X	1.0
474.419	0.5	stopsuccess	0.0	Go_X	1.0
476.952	1.0	go	0.454	Go_O	1.0
479.485	1.0	go	0.59	Go_X	1.0
482.019	1.0	go	0.688	Go_X	1.0
484.552	1.0	go	0.389	Go_O	1.0
487.085	1.0	go	0.618	Go_O	1.0
489.618	1.0	go	0.526	Go_X	1.0
492.152	1.0	go	0.477	Go_O	1.0
494.685	1.0	go	0.528	Go_X	1.0
497.218	0.55	stopfail	0.448	Go_O	0.0
499.752	1.0	go	0.775	Go_X	1.0
502.285	1.0	go	0.578	Go_O	1.0
504.818	0.5	stopfail	0.557	Go_X	0.0
507.351	1.0	go	0.545	Go_O	1.0
509.885	1.0	go	0.486	Go_X	1.0
512.418	1.0	go	0.599	Go_O	1.0
514.951	1.0	go	0.554	Go_X	1.0
517.485	1.0	go	0.62	Go_O	1.0
520.034	0.45	stopfail	0.454	Go_O	0.0
522.568	1.0	go	0.472	Go_X	1.0
525.101	1.0	go	0.51	Go_O	1.0
527.634	1.0	go	0.513	Go_X	1.0
530.168	0.4	stopfail	0.444	Go_X	0.0
532.701	1.0	go	0.651	Go_O	1.0
535.234	0.35	stopfail	0.689	Go_O	0.0
537.767	1.0	go	0.534	Go_X	1.0
540.301	1.0	go	0.311	Go_O	1.0
542.834	1.0	go	0.461	Go_X	1.0
545.367	1.0	go	0.663	Go_X	1.0
547.9	1.0	go	0.593	Go_O	1.0
550.434	1.0	go	0.563	Go_X	1.0
552.967	1.0	go	0.497	Go_O	1.0
555.5	0.3	stopsuccess	0.0	Go_X	1.0
558.034	1.0	go	0.529	Go_X	1.0
560.567	1.0	go	0.497	Go_O	1.0
563.1	1.0	go	0.486	Go_X	1.0
565.633	1.0	go	0.531	Go_O	1.0
568.167	0.35	stopsuccess	0.0	Go_O	1.0
570.7	1.0	go	0.525	Go_O	1.0
573.233	0.4	stopsuccess	0.0	Go_X	1.0
575.766	1.0	go	0.461	Go_X	1.0
578.3	1.0	go	0.455	Go_O	1.0
580.833	0.45	stopfail	0.589	Go_O	0.0
583.366	1.0	go	0.812	Go_X	1.0
585.9	1.0	go	0.476	Go_O	1.0
588.433	1.0	go	0.734	Go_X	1.0
590.966	1.0	go	0.57	Go_O	1.0
593.499	1.0	go	0.865	Go_X	1.0
596.033	1.0	go	0.99	Go_O	1.0
598.566	1.0	go	0.55	Go_X	1.0
601.099	1.0	go	0.667	Go_O	1.0
603.633	1.0	go	0.883	Go_X	1.0
606.182	1.0	go	0.0	Go_X	0.0
608.716	0.4	stopsuccess	0.0	Go_X	1.0
611.249	1.0	go	0.664	Go_O	1.0
613.782	1.0	go	0.545	Go_O	1.0
616.316	0.45	stopfail	0.429	Go_O	0.0
618.849	1.0	go	0.476	Go_X	1.0
621.382	0.4	stopfail	0.429	Go_X	0.0
623.915	1.0	go	0.671	Go_X	1.0
626.449	1.0	go	0.378	Go_O	1.0
628.982	0.35	stopfail	0.461	Go_O	0.0
631.515	1.0	go	0.485	Go_X	1.0
634.048	0.3	stopfail	0.439	Go_X	0.0
636.582	1.0	go	0.396	Go_O	1.0
639.115	1.0	go	0.44	Go_O	1.0
641.648	1.0	go	0.363	Go_X	1.0
644.182	0.25	stopfail	0.43	Go_O	0.0
646.715	1.0	go	0.606	Go_X	1.0
649.248	1.0	go	0.274	Go_O	1.0
651.781	1.0	go	0.417	Go_O	1.0
654.315	1.0	go	0.536	Go_X	1.0
656.848	0.2	stopsuccess	0.0	Go_X	1.0
659.381	1.0	go	0.437	Go_O	1.0
661.914	1.0	go	0.877	Go_X	1.0
664.448	0.25	stopsuccess	0.0	Go_O	1.0
666.981	1.0	go	0.741	Go_O	1.0
669.514	1.0	go	0.581	Go_X	1.0
672.048	1.0	go	0.54	Go_O	1.0
674.581	1.0	go	0.0	Go_X	0.0
677.114	0.3	stopfail	0.411	Go_X	0.0
679.647	1.0	go	0.325	Go_O	1.0
682.181	0.25	stopsuccess	0.0	Go_O	1.0
684.714	1.0	go	0.553	Go_X	1.0
687.247	1.0	go	0.0	Go_O	0.0
689.781	0.3	stopsuccess	0.0	Go_X	1.0
692.33	1.0	go	0.447	Go_X	1.0
694.864	1.0	go	0.907	Go_O	1.0
697.397	1.0	go	0.372	Go_X	1.0
699.93	1.0	go	0.399	Go_O	1.0
702.464	0.35	stopfail	0.402	Go_O	0.0
705.013	1.0	go	0.851	Go_X	1.0
707.547	0.3	stopfail	0.462	Go_X	0.0
710.08	1.0	go	0.315	Go_O	1.0
712.613	1.0	go	0.562	Go_X	1.0
715.147	1.0	go	0.725	Go_X	1.0
717.68	1.0	go	0.576	Go_O	1.0
720.213	1.0	go	0.389	Go_O	1.0
722.746	1.0	go	0.45	Go_X	1.0
725.28	0.25	stopfail	0.409	Go_O	0.0
727.813	1.0	go	0.521	Go_X	1.0
730.346	1.0	go	0.608	Go_O	1.0
732.88	0.2	stopsuccess	0.0	Go_X	1.0
735.429	1.0	go	0.469	Go_X	1.0
737.963	1.0	go	0.663	Go_O	1.0
740.496	0.25	stopsuccess	0.0	Go_O	1.0
743.029	1.0	go	0.681	Go_X	1.0
745.563	1.0	go	0.904	Go_O	1.0
748.112	1.0	go	0.673	Go_O	1.0
750.646	1.0	go	0.631	Go_X	1.0
753.179	0.3	stopfail	0.582	Go_X	0.0
755.712	1.0	go	0.456	Go_X	1.0
758.246	0.25	stopsuccess	0.0	Go_O	1.0
760.779	1.0	go	0.361	Go_O	1.0
763.312	1.0	go	0.48	Go_O	1.0
765.845	1.0	go	0.386	Go_X	1.0
768.379	1.0	go	0.589	Go_O	1.0
770.912	1.0	go	0.823	Go_X	1.0
773.445	0.3	stopsuccess	0.0	Go_X	1.0
775.978	1.0	go	0.649	Go_X	1.0
778.512	1.0	go	0.63	Go_O	1.0
781.045	0.35	stopsuccess	0.0	Go_O	1.0
783.578	0.4	stopsuccess	0.0	Go_X	1.0
786.112	1.0	go	0.564	Go_O	1.0
788.645	1.0	go	0.791	Go_X	1.0
791.178	1.0	go	0.803	Go_X	1.0
793.711	1.0	go	0.918	Go_O	1.0
796.245	0.45	stopsuccess	0.0	Go_O	1.0
798.778	1.0	go	0.536	Go_X	1.0
