onset	duration	trial_type	response_time	stim_file	accuracy
231.539	1.0	go	0.808	Go_X	1.0
234.063	1.0	go	0.569	Go_O	1.0
236.604	1.0	go	0.543	Go_O	1.0
239.128	1.0	go	0.787	Go_X	1.0
241.652	1.0	go	0.727	Go_O	1.0
244.176	1.0	go	0.731	Go_X	1.0
246.701	0.25	stopsuccess	0.0	Go_O	1.0
249.225	1.0	go	0.455	Go_X	1.0
251.749	0.3	stopfail	0.5	Go_X	0.0
254.273	1.0	go	0.756	Go_O	1.0
256.798	1.0	go	0.916	Go_X	1.0
259.322	1.0	go	0.421	Go_O	1.0
261.846	0.25	stopsuccess	0.0	Go_O	1.0
264.37	1.0	go	0.518	Go_O	1.0
266.894	1.0	go	0.588	Go_X	1.0
269.419	0.3	stopsuccess	0.0	Go_X	1.0
271.96	0.35	stopfail	0.405	Go_O	0.0
274.501	1.0	go	0.506	Go_X	1.0
277.025	1.0	go	0.628	Go_O	1.0
279.549	0.3	stopsuccess	0.0	Go_X	1.0
282.073	1.0	go	0.614	Go_X	1.0
284.597	1.0	go	0.665	Go_O	1.0
287.122	0.35	stopfail	0.487	Go_O	0.0
289.646	1.0	go	0.646	Go_O	1.0
292.187	1.0	go	0.779	Go_X	1.0
294.711	0.3	stopsuccess	0.0	Go_X	1.0
297.235	1.0	go	0.41	Go_X	1.0
299.76	1.0	go	0.469	Go_O	1.0
302.284	0.35	stopsuccess	0.0	Go_O	1.0
304.808	1.0	go	0.601	Go_X	1.0
307.332	1.0	go	0.645	Go_O	1.0
309.856	1.0	go	0.517	Go_X	1.0
312.381	1.0	go	0.604	Go_O	1.0
314.905	1.0	go	0.539	Go_O	1.0
317.429	0.4	stopfail	0.661	Go_X	0.0
319.953	1.0	go	0.477	Go_X	1.0
322.478	1.0	go	0.466	Go_X	1.0
325.002	1.0	go	0.453	Go_O	1.0
327.526	1.0	go	0.0	Go_X	0.0
330.067	1.0	go	0.0	Go_O	0.0
332.591	0.35	stopfail	0.505	Go_O	0.0
335.115	1.0	go	0.464	Go_O	1.0
337.64	1.0	go	0.456	Go_X	1.0
340.164	1.0	go	0.652	Go_X	1.0
342.688	1.0	go	0.663	Go_O	1.0
345.212	1.0	go	0.651	Go_O	1.0
347.737	1.0	go	0.471	Go_X	1.0
350.261	0.3	stopsuccess	0.0	Go_X	1.0
352.802	1.0	go	0.481	Go_X	1.0
355.326	1.0	go	0.538	Go_O	1.0
357.85	0.35	stopfail	0.56	Go_O	0.0
360.374	1.0	go	0.268	Go_O	1.0
362.899	0.3	stopfail	0.328	Go_X	0.0
365.423	0.25	stopsuccess	0.0	Go_O	1.0
367.964	1.0	go	0.419	Go_X	1.0
370.488	1.0	go	0.579	Go_X	1.0
373.012	1.0	go	0.487	Go_O	1.0
375.536	1.0	go	0.556	Go_O	1.0
378.061	0.3	stopsuccess	0.0	Go_X	1.0
380.602	1.0	go	0.613	Go_X	1.0
383.143	0.35	stopfail	0.441	Go_O	0.0
385.667	1.0	go	0.639	Go_O	1.0
388.191	1.0	go	0.603	Go_X	1.0
390.715	1.0	go	0.787	Go_O	1.0
393.239	1.0	go	0.44	Go_X	1.0
395.764	1.0	go	0.359	Go_O	1.0
398.288	1.0	go	0.509	Go_X	1.0
400.812	1.0	go	0.583	Go_X	1.0
403.336	1.0	go	0.685	Go_O	1.0
405.861	1.0	go	0.583	Go_O	1.0
408.401	0.3	stopsuccess	0.0	Go_X	1.0
410.926	1.0	go	0.456	Go_X	1.0
413.45	1.0	go	0.454	Go_X	1.0
415.974	1.0	go	0.317	Go_O	1.0
418.498	0.35	stopfail	0.646	Go_O	0.0
421.039	1.0	go	0.815	Go_O	1.0
423.564	1.0	go	0.424	Go_X	1.0
426.088	1.0	go	0.529	Go_O	1.0
428.612	1.0	go	0.558	Go_X	1.0
431.136	1.0	go	0.529	Go_X	1.0
433.66	1.0	go	0.491	Go_O	1.0
436.185	0.3	stopfail	0.373	Go_X	0.0
438.726	1.0	go	0.645	Go_X	1.0
441.25	1.0	go	0.424	Go_O	1.0
443.774	0.25	stopsuccess	0.0	Go_O	1.0
446.315	1.0	go	0.578	Go_X	1.0
448.839	1.0	go	0.422	Go_O	1.0
451.366	0.3	stopsuccess	0.0	Go_X	1.0
453.921	1.0	go	0.459	Go_X	1.0
456.445	0.35	stopsuccess	0.0	Go_O	1.0
458.986	1.0	go	0.618	Go_O	1.0
461.51	1.0	go	0.57	Go_O	1.0
464.051	1.0	go	0.611	Go_X	1.0
466.576	1.0	go	0.544	Go_X	1.0
469.1	1.0	go	0.587	Go_O	1.0
471.624	0.4	stopfail	0.585	Go_X	0.0
474.165	0.35	stopfail	0.485	Go_O	0.0
476.689	1.0	go	0.475	Go_O	1.0
479.213	1.0	go	0.681	Go_X	1.0
481.738	0.3	stopsuccess	0.0	Go_X	1.0
484.262	1.0	go	0.561	Go_O	1.0
486.786	1.0	go	0.712	Go_X	1.0
489.31	1.0	go	0.68	Go_O	1.0
491.835	1.0	go	0.762	Go_X	1.0
494.359	1.0	go	0.537	Go_O	1.0
496.883	1.0	go	0.554	Go_X	1.0
499.407	0.35	stopsuccess	0.0	Go_O	1.0
501.932	1.0	go	0.478	Go_O	1.0
504.456	1.0	go	0.658	Go_X	1.0
506.98	1.0	go	0.673	Go_X	1.0
509.504	1.0	go	0.513	Go_O	1.0
512.028	1.0	go	0.711	Go_O	1.0
514.554	0.4	stopfail	0.727	Go_X	0.0
517.077	1.0	go	0.539	Go_X	1.0
519.618	1.0	go	0.489	Go_X	1.0
522.142	1.0	go	0.471	Go_O	1.0
524.666	1.0	go	0.812	Go_X	1.0
527.191	0.35	stopfail	0.582	Go_O	0.0
529.731	1.0	go	0.464	Go_O	1.0
532.259	1.0	go	0.493	Go_X	1.0
534.78	0.3	stopsuccess	0.0	Go_X	1.0
537.321	1.0	go	0.634	Go_O	0.0
539.862	0.35	stopfail	0.66	Go_O	0.0
542.386	1.0	go	0.79	Go_X	1.0
544.91	1.0	go	0.517	Go_O	1.0
547.434	1.0	go	0.638	Go_X	0.0
549.959	1.0	go	0.902	Go_O	1.0
552.483	1.0	go	0.414	Go_X	1.0
555.007	1.0	go	0.628	Go_O	1.0
557.531	1.0	go	0.644	Go_X	0.0
560.072	0.3	stopsuccess	0.0	Go_X	1.0
562.596	1.0	go	0.525	Go_O	1.0
565.121	1.0	go	0.474	Go_X	1.0
567.645	1.0	go	0.541	Go_O	1.0
570.169	0.35	stopfail	0.503	Go_O	0.0
572.693	1.0	go	0.654	Go_O	0.0
575.218	1.0	go	0.0	Go_X	0.0
577.759	1.0	go	0.731	Go_X	1.0
580.283	1.0	go	0.558	Go_O	1.0
582.807	0.3	stopfail	0.256	Go_X	0.0
585.331	1.0	go	0.53	Go_X	1.0
587.855	1.0	go	0.51	Go_O	1.0
590.38	0.25	stopsuccess	0.0	Go_O	1.0
592.904	1.0	go	0.467	Go_O	1.0
595.428	1.0	go	0.45	Go_X	1.0
597.952	0.3	stopfail	0.489	Go_X	0.0
600.477	1.0	go	0.569	Go_X	1.0
603.001	1.0	go	0.564	Go_O	1.0
605.525	0.25	stopsuccess	0.0	Go_O	1.0
608.049	1.0	go	0.456	Go_X	1.0
610.574	1.0	go	0.505	Go_O	1.0
613.098	1.0	go	0.64	Go_X	1.0
615.622	1.0	go	0.51	Go_O	1.0
618.146	1.0	go	0.476	Go_O	0.0
620.67	1.0	go	0.474	Go_X	1.0
623.195	0.3	stopfail	0.565	Go_X	0.0
625.719	1.0	go	0.565	Go_X	1.0
628.26	0.25	stopsuccess	0.0	Go_O	1.0
630.784	1.0	go	0.852	Go_O	1.0
633.325	1.0	go	0.615	Go_O	1.0
635.849	1.0	go	0.691	Go_X	1.0
638.373	1.0	go	0.0	Go_O	0.0
640.898	1.0	go	0.546	Go_X	1.0
643.439	0.3	stopfail	0.425	Go_X	0.0
645.98	1.0	go	0.354	Go_X	1.0
648.504	1.0	go	0.359	Go_O	1.0
651.028	1.0	go	0.37	Go_X	1.0
653.552	0.25	stopfail	0.496	Go_O	0.0
656.076	0.2	stopfail	0.419	Go_X	0.0
658.601	0.15	stopsuccess	0.0	Go_O	1.0
661.125	1.0	go	0.506	Go_O	1.0
663.666	0.2	stopfail	0.312	Go_X	0.0
666.19	1.0	go	0.587	Go_X	1.0
668.714	1.0	go	0.569	Go_O	1.0
671.238	1.0	go	0.515	Go_X	1.0
673.763	1.0	go	0.426	Go_O	1.0
676.287	1.0	go	0.475	Go_X	1.0
678.811	1.0	go	0.342	Go_O	1.0
681.335	1.0	go	0.731	Go_X	1.0
683.86	1.0	go	0.872	Go_O	1.0
686.401	0.15	stopsuccess	0.0	Go_O	1.0
688.941	1.0	go	0.622	Go_O	1.0
691.466	1.0	go	0.289	Go_X	1.0
694.007	0.2	stopsuccess	0.0	Go_X	1.0
696.531	1.0	go	0.47	Go_O	1.0
699.055	1.0	go	0.317	Go_X	1.0
701.579	1.0	go	0.269	Go_O	1.0
704.104	1.0	go	0.336	Go_X	1.0
706.628	1.0	go	0.254	Go_X	1.0
709.152	0.25	stopfail	0.402	Go_O	0.0
711.676	1.0	go	0.577	Go_O	1.0
714.2	1.0	go	0.552	Go_X	1.0
716.725	1.0	go	0.487	Go_O	1.0
719.249	0.2	stopsuccess	0.0	Go_X	1.0
721.773	1.0	go	0.72	Go_O	1.0
724.297	0.25	stopsuccess	0.0	Go_O	1.0
726.822	1.0	go	0.471	Go_X	1.0
729.346	1.0	go	0.617	Go_O	1.0
731.887	1.0	go	0.576	Go_X	1.0
734.411	1.0	go	0.447	Go_X	1.0
736.935	1.0	go	0.596	Go_O	1.0
739.459	1.0	go	0.751	Go_O	1.0
741.984	1.0	go	0.762	Go_X	0.0
744.508	0.3	stopsuccess	0.0	Go_X	1.0
747.032	1.0	go	0.324	Go_X	1.0
749.556	1.0	go	0.467	Go_O	1.0
752.081	1.0	go	0.579	Go_O	1.0
754.621	1.0	go	0.6	Go_X	1.0
757.146	0.35	stopfail	0.343	Go_O	0.0
759.67	1.0	go	0.252	Go_X	1.0
762.211	0.3	stopfail	0.477	Go_X	0.0
764.735	1.0	go	0.618	Go_O	1.0
767.259	1.0	go	0.74	Go_O	1.0
769.784	0.25	stopsuccess	0.0	Go_O	1.0
772.308	1.0	go	0.27	Go_X	1.0
774.832	1.0	go	0.536	Go_O	1.0
777.356	1.0	go	0.593	Go_X	1.0
779.88	1.0	go	0.545	Go_X	1.0
782.405	1.0	go	0.616	Go_O	1.0
784.929	1.0	go	0.6	Go_X	1.0
787.453	1.0	go	0.833	Go_O	1.0
789.977	1.0	go	0.604	Go_O	1.0
792.502	1.0	go	0.564	Go_X	1.0
795.043	1.0	go	0.782	Go_O	1.0
797.567	0.3	stopfail	0.581	Go_X	0.0
800.091	1.0	go	0.697	Go_X	1.0
802.615	1.0	go	0.5	Go_X	1.0
805.139	0.25	stopfail	0.31	Go_O	0.0
807.664	1.0	go	0.469	Go_O	1.0
810.188	0.2	stopfail	0.414	Go_X	0.0
812.729	1.0	go	0.496	Go_O	1.0
815.27	1.0	go	0.494	Go_X	1.0
817.811	0.15	stopsuccess	0.0	Go_O	1.0
820.335	1.0	go	0.602	Go_X	1.0
822.861	0.2	stopsuccess	0.0	Go_X	1.0
825.4	1.0	go	0.395	Go_O	1.0
827.924	1.0	go	0.612	Go_O	1.0
830.449	1.0	go	0.737	Go_X	1.0
832.973	0.25	stopsuccess	0.0	Go_O	1.0
835.497	1.0	go	0.545	Go_X	1.0
838.021	1.0	go	0.586	Go_O	1.0
840.545	1.0	go	0.42	Go_O	0.0
843.07	1.0	go	0.333	Go_X	1.0
845.594	0.3	stopsuccess	0.0	Go_X	1.0
848.118	1.0	go	0.0	Go_X	0.0
850.642	1.0	go	0.793	Go_O	0.0
853.167	0.35	stopfail	0.467	Go_O	0.0
855.707	1.0	go	0.529	Go_X	1.0
858.232	1.0	go	0.614	Go_O	1.0
860.773	1.0	go	0.542	Go_O	1.0
863.297	1.0	go	0.539	Go_X	1.0
865.821	0.3	stopfail	0.589	Go_X	0.0
868.345	1.0	go	0.479	Go_O	1.0
870.87	0.25	stopsuccess	0.0	Go_O	1.0
873.41	1.0	go	0.681	Go_X	0.0
875.935	1.0	go	0.461	Go_X	1.0
878.459	0.3	stopfail	0.557	Go_X	0.0
880.983	1.0	go	0.502	Go_O	1.0
883.507	1.0	go	0.0	Go_X	0.0
886.032	1.0	go	0.764	Go_O	1.0
888.556	1.0	go	0.687	Go_O	1.0
891.08	0.25	stopsuccess	0.0	Go_O	1.0
893.621	1.0	go	0.26	Go_X	1.0
896.145	0.3	stopfail	0.273	Go_X	0.0
898.686	1.0	go	0.428	Go_X	1.0
901.227	1.0	go	0.344	Go_O	1.0
903.751	1.0	go	0.413	Go_O	1.0
906.276	1.0	go	0.531	Go_X	1.0
908.817	1.0	go	0.927	Go_X	1.0
911.341	1.0	go	0.282	Go_O	1.0
913.882	0.25	stopsuccess	0.0	Go_O	1.0
916.406	1.0	go	0.514	Go_O	1.0
918.93	1.0	go	0.706	Go_X	1.0
921.454	0.3	stopfail	0.521	Go_X	0.0
923.979	1.0	go	0.568	Go_X	1.0
926.503	1.0	go	0.653	Go_O	1.0
929.027	0.25	stopsuccess	0.0	Go_O	1.0
931.551	1.0	go	0.673	Go_O	1.0
934.076	1.0	go	0.513	Go_X	1.0
936.6	1.0	go	0.67	Go_O	1.0
939.141	1.0	go	0.545	Go_X	1.0
941.682	0.3	stopfail	0.521	Go_X	0.0
944.206	1.0	go	0.577	Go_O	1.0
946.73	0.25	stopsuccess	0.0	Go_O	1.0
949.271	1.0	go	0.616	Go_X	1.0
951.795	1.0	go	0.54	Go_X	1.0
954.319	1.0	go	0.656	Go_O	1.0
956.844	1.0	go	0.572	Go_X	1.0
959.368	1.0	go	0.383	Go_O	1.0
961.892	0.3	stopsuccess	0.0	Go_X	1.0
964.433	1.0	go	0.461	Go_O	1.0
966.957	1.0	go	0.593	Go_X	1.0
969.481	0.35	stopfail	0.583	Go_O	0.0
972.006	0.3	stopfail	0.455	Go_X	0.0
974.547	1.0	go	0.544	Go_O	1.0
977.088	1.0	go	0.319	Go_X	1.0
979.612	1.0	go	0.763	Go_X	1.0
982.136	1.0	go	0.548	Go_O	1.0
984.66	0.25	stopsuccess	0.0	Go_O	1.0
987.184	1.0	go	0.525	Go_X	1.0
