onset	duration	trial_type	response_time	stim_file	accuracy
78.994	1.0	go	0.464	Go_O	1.0
81.518	1.0	go	0.423	Go_X	1.0
84.042	1.0	go	0.499	Go_X	1.0
86.566	1.0	go	0.238	Go_O	1.0
89.09	1.0	go	0.469	Go_O	1.0
91.615	1.0	go	0.231	Go_X	1.0
94.139	0.25	stopfail	0.212	Go_O	0.0
96.663	1.0	go	0.303	Go_X	1.0
99.187	0.2	stopfail	0.534	Go_X	0.0
101.711	1.0	go	0.319	Go_O	1.0
104.236	1.0	go	0.273	Go_X	1.0
106.76	1.0	go	0.263	Go_O	1.0
109.284	0.15	stopsuccess	0.0	Go_O	1.0
111.808	1.0	go	0.465	Go_O	1.0
114.333	1.0	go	0.4	Go_X	1.0
116.857	0.2	stopsuccess	0.0	Go_X	1.0
119.381	0.25	stopfail	0.352	Go_O	0.0
121.905	1.0	go	0.305	Go_O	1.0
124.429	1.0	go	0.248	Go_X	1.0
126.954	0.2	stopfail	0.283	Go_X	0.0
129.478	1.0	go	0.371	Go_O	1.0
132.002	1.0	go	0.406	Go_X	1.0
134.526	0.15	stopsuccess	0.0	Go_O	1.0
137.05	1.0	go	0.457	Go_X	1.0
139.575	1.0	go	0.43	Go_O	1.0
142.099	0.2	stopsuccess	0.0	Go_X	1.0
144.623	1.0	go	0.393	Go_O	1.0
147.147	1.0	go	0.842	Go_X	1.0
149.672	0.25	stopfail	0.277	Go_O	0.0
152.212	1.0	go	0.385	Go_X	1.0
154.737	1.0	go	0.373	Go_O	1.0
157.261	1.0	go	0.603	Go_X	1.0
159.785	1.0	go	0.429	Go_O	1.0
162.309	1.0	go	0.655	Go_O	1.0
164.834	0.2	stopsuccess	0.0	Go_X	1.0
167.358	1.0	go	0.396	Go_X	1.0
169.882	1.0	go	0.483	Go_X	1.0
172.406	1.0	go	0.509	Go_O	1.0
174.93	1.0	go	0.554	Go_O	1.0
177.455	1.0	go	0.52	Go_X	1.0
179.979	0.25	stopsuccess	0.0	Go_O	1.0
182.503	1.0	go	0.565	Go_X	1.0
185.027	1.0	go	0.457	Go_O	1.0
187.551	1.0	go	0.333	Go_X	1.0
190.076	1.0	go	0.35	Go_O	1.0
192.6	1.0	go	0.337	Go_X	1.0
195.124	1.0	go	0.684	Go_O	1.0
197.648	0.3	stopfail	0.444	Go_X	0.0
200.173	1.0	go	0.497	Go_O	1.0
202.697	1.0	go	0.769	Go_X	1.0
205.238	0.25	stopfail	0.486	Go_O	0.0
207.762	1.0	go	0.527	Go_X	1.0
210.286	0.2	stopsuccess	0.0	Go_X	1.0
212.81	0.25	stopfail	0.524	Go_O	0.0
215.335	1.0	go	0.986	Go_O	1.0
217.859	1.0	go	0.355	Go_O	0.0
220.383	1.0	go	0.46	Go_X	1.0
222.907	1.0	go	0.405	Go_O	1.0
225.431	0.2	stopsuccess	0.0	Go_X	1.0
227.956	1.0	go	0.445	Go_X	1.0
230.48	0.25	stopsuccess	0.0	Go_O	1.0
233.004	1.0	go	0.496	Go_O	1.0
235.528	1.0	go	0.466	Go_X	1.0
238.052	1.0	go	0.485	Go_X	1.0
240.577	1.0	go	0.687	Go_O	1.0
243.101	1.0	go	0.775	Go_X	0.0
245.625	1.0	go	0.484	Go_O	1.0
248.149	1.0	go	0.593	Go_O	1.0
250.674	1.0	go	0.702	Go_X	0.0
253.198	1.0	go	0.526	Go_X	1.0
255.722	0.3	stopfail	0.421	Go_X	0.0
258.246	1.0	go	0.521	Go_O	1.0
260.77	1.0	go	0.743	Go_X	1.0
263.295	1.0	go	0.334	Go_O	1.0
265.819	0.25	stopfail	0.49	Go_O	0.0
268.343	1.0	go	0.354	Go_X	1.0
270.867	1.0	go	0.542	Go_O	1.0
273.391	1.0	go	0.517	Go_X	1.0
275.916	1.0	go	0.535	Go_O	1.0
278.44	1.0	go	0.381	Go_X	1.0
280.964	1.0	go	0.389	Go_O	1.0
283.488	0.2	stopsuccess	0.0	Go_X	1.0
286.013	1.0	go	0.433	Go_O	1.0
288.537	1.0	go	0.523	Go_X	1.0
291.061	0.25	stopfail	0.468	Go_O	0.0
293.585	1.0	go	0.593	Go_O	1.0
296.109	1.0	go	0.91	Go_X	1.0
298.634	0.2	stopsuccess	0.0	Go_X	1.0
301.158	1.0	go	0.548	Go_X	1.0
303.682	0.25	stopfail	0.615	Go_O	0.0
306.206	1.0	go	0.564	Go_O	1.0
308.73	1.0	go	0.879	Go_O	1.0
311.255	1.0	go	0.54	Go_X	1.0
313.779	1.0	go	0.683	Go_O	1.0
316.303	1.0	go	0.824	Go_X	1.0
318.827	0.2	stopfail	0.677	Go_X	0.0
321.352	0.15	stopsuccess	0.0	Go_O	1.0
323.876	1.0	go	0.871	Go_X	1.0
326.4	1.0	go	0.521	Go_O	1.0
328.924	0.2	stopsuccess	0.0	Go_X	1.0
331.448	1.0	go	0.0	Go_X	0.0
333.973	1.0	go	0.522	Go_O	1.0
336.497	1.0	go	0.582	Go_O	1.0
339.021	1.0	go	0.298	Go_X	1.0
341.545	1.0	go	0.64	Go_X	1.0
344.069	1.0	go	0.353	Go_O	1.0
346.594	0.25	stopsuccess	0.0	Go_O	1.0
349.118	1.0	go	0.423	Go_X	0.0
351.642	1.0	go	0.379	Go_O	1.0
354.166	1.0	go	0.562	Go_O	1.0
356.691	1.0	go	0.584	Go_X	1.0
359.215	1.0	go	0.842	Go_X	1.0
361.739	0.3	stopsuccess	0.0	Go_X	1.0
364.263	1.0	go	0.504	Go_O	1.0
366.787	1.0	go	0.546	Go_O	1.0
369.312	1.0	go	0.547	Go_X	1.0
371.836	1.0	go	0.733	Go_X	1.0
374.36	0.35	stopfail	0.494	Go_O	0.0
376.884	1.0	go	0.392	Go_O	1.0
379.408	1.0	go	0.509	Go_X	1.0
381.933	0.3	stopsuccess	0.0	Go_X	1.0
384.457	1.0	go	0.428	Go_O	1.0
386.981	0.35	stopsuccess	0.0	Go_O	1.0
389.505	1.0	go	0.0	Go_O	0.0
392.03	1.0	go	0.588	Go_X	1.0
394.554	1.0	go	0.587	Go_X	1.0
397.078	1.0	go	0.506	Go_O	1.0
399.602	1.0	go	0.615	Go_O	1.0
402.126	1.0	go	0.677	Go_X	1.0
404.651	1.0	go	0.882	Go_X	0.0
407.175	0.4	stopfail	0.587	Go_X	0.0
409.699	1.0	go	0.323	Go_O	1.0
412.223	1.0	go	0.417	Go_X	1.0
414.747	1.0	go	0.584	Go_O	1.0
417.272	0.35	stopfail	0.428	Go_O	0.0
419.813	1.0	go	0.535	Go_O	1.0
422.337	1.0	go	0.456	Go_X	1.0
424.861	1.0	go	0.447	Go_X	1.0
427.385	1.0	go	0.424	Go_O	1.0
429.909	0.3	stopfail	0.587	Go_X	0.0
432.434	1.0	go	0.573	Go_O	1.0
434.958	1.0	go	0.395	Go_X	1.0
437.482	0.25	stopsuccess	0.0	Go_O	1.0
440.006	1.0	go	0.579	Go_O	1.0
442.531	1.0	go	0.521	Go_X	1.0
445.055	0.3	stopfail	0.336	Go_X	0.0
447.579	1.0	go	0.442	Go_X	0.0
450.103	1.0	go	0.46	Go_O	1.0
452.627	0.25	stopsuccess	0.0	Go_O	1.0
455.152	1.0	go	0.449	Go_O	1.0
457.676	1.0	go	0.651	Go_X	1.0
460.2	1.0	go	0.944	Go_X	1.0
462.724	1.0	go	0.611	Go_O	1.0
465.248	1.0	go	0.0	Go_X	0.0
467.773	1.0	go	0.429	Go_O	1.0
470.297	0.3	stopfail	0.509	Go_X	0.0
472.821	1.0	go	0.472	Go_X	1.0
475.345	0.25	stopfail	0.64	Go_O	0.0
477.87	1.0	go	0.438	Go_O	1.0
480.394	1.0	go	0.522	Go_O	1.0
482.918	1.0	go	0.615	Go_X	1.0
485.442	1.0	go	0.437	Go_O	1.0
487.966	1.0	go	0.359	Go_X	1.0
490.491	0.2	stopsuccess	0.0	Go_X	1.0
493.032	1.0	go	0.802	Go_X	1.0
495.556	1.0	go	0.686	Go_O	1.0
498.08	1.0	go	0.541	Go_O	1.0
500.604	0.25	stopfail	0.444	Go_O	0.0
503.128	0.2	stopsuccess	0.0	Go_X	1.0
505.653	0.25	stopfail	0.57	Go_O	0.0
508.177	1.0	go	0.392	Go_X	1.0
510.701	0.2	stopfail	0.388	Go_X	0.0
513.225	1.0	go	0.463	Go_O	1.0
515.749	1.0	go	0.586	Go_X	1.0
518.274	1.0	go	0.694	Go_X	0.0
520.798	1.0	go	0.851	Go_O	0.0
523.322	1.0	go	0.709	Go_X	1.0
525.846	1.0	go	0.606	Go_O	1.0
528.387	1.0	go	0.506	Go_X	1.0
530.911	1.0	go	0.324	Go_O	1.0
533.436	0.15	stopsuccess	0.0	Go_O	1.0
535.977	1.0	go	0.511	Go_O	1.0
538.501	1.0	go	0.449	Go_X	1.0
541.025	0.2	stopfail	0.342	Go_X	0.0
543.549	1.0	go	0.838	Go_X	1.0
546.073	1.0	go	0.693	Go_O	1.0
548.598	1.0	go	0.848	Go_O	1.0
551.122	1.0	go	0.476	Go_X	1.0
553.646	1.0	go	0.479	Go_X	1.0
556.17	0.15	stopsuccess	0.0	Go_O	1.0
558.695	1.0	go	0.682	Go_O	1.0
561.219	1.0	go	0.319	Go_X	1.0
563.743	1.0	go	0.561	Go_O	1.0
566.267	0.2	stopsuccess	0.0	Go_X	1.0
568.791	1.0	go	0.673	Go_X	1.0
571.316	0.25	stopsuccess	0.0	Go_O	1.0
573.857	1.0	go	0.642	Go_O	1.0
576.381	1.0	go	0.582	Go_X	1.0
578.905	1.0	go	0.589	Go_O	0.0
581.429	1.0	go	0.446	Go_X	0.0
583.953	1.0	go	0.77	Go_O	1.0
586.478	1.0	go	0.463	Go_O	1.0
589.002	1.0	go	0.738	Go_X	1.0
591.526	0.3	stopfail	0.392	Go_X	0.0
594.05	1.0	go	0.61	Go_X	1.0
596.574	1.0	go	0.587	Go_O	1.0
599.099	1.0	go	0.707	Go_O	1.0
601.623	1.0	go	0.84	Go_X	1.0
604.147	0.25	stopsuccess	0.0	Go_O	1.0
606.671	1.0	go	0.542	Go_O	1.0
609.195	0.3	stopfail	0.456	Go_X	0.0
611.72	1.0	go	0.615	Go_X	1.0
614.244	1.0	go	0.931	Go_O	1.0
616.768	0.25	stopsuccess	0.0	Go_O	1.0
619.292	1.0	go	0.573	Go_X	1.0
621.817	1.0	go	0.576	Go_O	1.0
624.341	1.0	go	0.493	Go_X	1.0
626.865	1.0	go	0.469	Go_X	1.0
629.389	1.0	go	0.0	Go_O	0.0
631.913	1.0	go	0.0	Go_X	0.0
634.438	1.0	go	0.663	Go_O	1.0
636.962	1.0	go	0.679	Go_O	1.0
639.486	1.0	go	0.471	Go_X	1.0
642.01	1.0	go	0.756	Go_O	1.0
644.534	0.3	stopfail	0.454	Go_X	0.0
647.059	1.0	go	0.822	Go_X	0.0
649.583	1.0	go	0.568	Go_O	1.0
652.107	0.25	stopsuccess	0.0	Go_O	1.0
654.631	1.0	go	0.505	Go_X	1.0
657.156	0.3	stopfail	0.469	Go_X	0.0
659.68	1.0	go	0.419	Go_O	1.0
662.204	1.0	go	0.527	Go_X	1.0
664.728	0.25	stopsuccess	0.0	Go_O	1.0
667.252	1.0	go	0.589	Go_X	1.0
669.777	0.3	stopfail	0.575	Go_X	0.0
672.301	1.0	go	0.739	Go_O	1.0
674.825	1.0	go	0.498	Go_O	1.0
677.349	1.0	go	0.323	Go_X	1.0
679.873	0.25	stopsuccess	0.0	Go_O	1.0
682.398	1.0	go	0.419	Go_O	1.0
684.922	1.0	go	0.799	Go_X	1.0
687.446	1.0	go	0.539	Go_O	1.0
689.97	1.0	go	0.484	Go_X	1.0
692.495	0.3	stopsuccess	0.0	Go_X	1.0
695.019	1.0	go	0.694	Go_X	1.0
697.543	1.0	go	0.6	Go_O	1.0
700.067	0.35	stopfail	0.39	Go_O	0.0
702.591	1.0	go	0.487	Go_O	1.0
705.116	1.0	go	0.482	Go_X	1.0
707.64	1.0	go	0.364	Go_O	1.0
710.164	1.0	go	0.424	Go_X	1.0
712.688	0.3	stopsuccess	0.0	Go_X	1.0
715.212	1.0	go	0.488	Go_O	1.0
717.737	0.35	stopsuccess	0.0	Go_O	1.0
720.278	1.0	go	0.0	Go_X	0.0
722.802	1.0	go	0.74	Go_O	1.0
725.326	0.4	stopfail	0.581	Go_X	0.0
727.85	1.0	go	0.778	Go_X	1.0
730.374	1.0	go	0.579	Go_X	1.0
732.899	1.0	go	0.852	Go_O	1.0
735.423	1.0	go	0.0	Go_O	0.0
737.947	0.35	stopfail	0.612	Go_O	0.0
740.471	1.0	go	0.415	Go_X	1.0
742.996	0.3	stopfail	0.379	Go_X	0.0
745.52	1.0	go	0.512	Go_X	1.0
748.044	1.0	go	0.514	Go_O	1.0
750.585	1.0	go	0.528	Go_O	1.0
753.109	1.0	go	0.389	Go_X	1.0
755.633	1.0	go	0.521	Go_O	1.0
758.158	1.0	go	0.683	Go_X	0.0
760.682	0.25	stopsuccess	0.0	Go_O	1.0
763.223	1.0	go	0.445	Go_X	1.0
765.747	1.0	go	0.599	Go_O	1.0
768.271	0.3	stopfail	0.603	Go_X	0.0
770.795	1.0	go	0.446	Go_X	1.0
773.32	1.0	go	0.656	Go_O	0.0
775.844	0.25	stopsuccess	0.0	Go_O	1.0
778.368	1.0	go	0.939	Go_X	1.0
780.892	1.0	go	0.667	Go_O	1.0
783.416	1.0	go	0.529	Go_X	1.0
785.941	1.0	go	0.704	Go_O	1.0
788.465	0.3	stopsuccess	0.0	Go_X	1.0
790.989	1.0	go	0.539	Go_X	1.0
793.513	0.35	stopsuccess	0.0	Go_O	1.0
796.037	1.0	go	0.431	Go_O	1.0
798.562	1.0	go	0.674	Go_O	1.0
801.086	1.0	go	0.785	Go_X	0.0
803.61	1.0	go	0.0	Go_O	0.0
806.134	1.0	go	0.362	Go_X	1.0
808.659	0.4	stopfail	0.539	Go_X	0.0
811.183	1.0	go	0.0	Go_X	0.0
813.707	1.0	go	0.453	Go_O	1.0
816.231	0.35	stopfail	0.375	Go_O	0.0
818.755	0.3	stopfail	0.476	Go_X	0.0
821.28	1.0	go	0.0	Go_X	0.0
823.804	1.0	go	0.429	Go_O	1.0
826.328	1.0	go	0.69	Go_X	1.0
828.852	1.0	go	0.0	Go_O	0.0
831.376	0.25	stopfail	0.379	Go_O	0.0
833.901	1.0	go	0.688	Go_X	1.0
