onset	duration	trial_type	response_time	stim_file	accuracy
521.352	1.0	go	0.889	Go_X	1.0
523.926	1.0	go	0.344	Go_O	1.0
526.45	1.0	go	0.298	Go_X	1.0
528.975	1.0	go	0.362	Go_O	1.0
531.499	1.0	go	0.314	Go_O	1.0
534.023	1.0	go	0.273	Go_X	1.0
536.547	0.25	stop	0.312	Go_O	0.0
539.071	1.0	go	0.279	Go_X	1.0
541.595	0.2	stop	0.245	Go_X	0.0
544.12	1.0	go	0.3	Go_O	1.0
546.644	1.0	go	0.259	Go_X	1.0
549.168	1.0	go	0.326	Go_O	1.0
551.692	0.15	stop	0.0	Go_O	1.0
554.216	1.0	go	0.353	Go_O	1.0
556.74	1.0	go	0.256	Go_X	1.0
559.265	0.2	stop	0.0	Go_X	1.0
561.789	0.25	stop	0.276	Go_O	0.0
564.313	1.0	go	0.356	Go_O	1.0
566.837	1.0	go	0.232	Go_X	1.0
569.361	0.2	stop	0.0	Go_X	1.0
571.885	1.0	go	0.31	Go_O	1.0
574.409	1.0	go	0.274	Go_X	1.0
576.934	0.25	stop	0.356	Go_O	0.0
579.458	1.0	go	0.255	Go_X	1.0
581.982	1.0	go	0.443	Go_O	1.0
584.506	0.2	stop	0.292	Go_X	0.0
587.03	1.0	go	0.559	Go_X	1.0
589.554	1.0	go	0.228	Go_O	1.0
592.079	0.15	stop	0.0	Go_O	1.0
594.603	1.0	go	0.365	Go_O	1.0
597.127	1.0	go	0.219	Go_X	1.0
599.651	1.0	go	0.229	Go_O	1.0
602.175	1.0	go	0.269	Go_X	1.0
604.699	1.0	go	0.262	Go_X	1.0
607.224	0.2	stop	0.418	Go_X	0.0
609.748	1.0	go	0.345	Go_O	1.0
612.272	1.0	go	0.453	Go_X	1.0
614.796	1.0	go	0.401	Go_O	1.0
617.32	1.0	go	0.414	Go_O	1.0
619.844	1.0	go	0.241	Go_X	1.0
622.369	0.15	stop	0.0	Go_O	1.0
624.893	1.0	go	0.367	Go_O	1.0
627.417	1.0	go	0.247	Go_X	1.0
629.941	1.0	go	0.412	Go_X	1.0
632.465	1.0	go	0.562	Go_O	1.0
634.989	1.0	go	0.435	Go_X	1.0
637.514	1.0	go	0.543	Go_O	1.0
640.038	0.2	stop	0.0	Go_X	1.0
642.562	1.0	go	0.438	Go_O	1.0
645.086	1.0	go	0.405	Go_X	1.0
647.61	0.25	stop	0.351	Go_O	0.0
650.134	1.0	go	0.416	Go_O	1.0
652.658	0.2	stop	0.352	Go_X	0.0
655.183	0.15	stop	0.28	Go_O	0.0
657.707	1.0	go	0.199	Go_X	1.0
660.231	1.0	go	0.366	Go_X	1.0
662.755	1.0	go	0.255	Go_O	1.0
665.279	1.0	go	0.209	Go_X	1.0
667.803	0.1	stop	0.0	Go_X	1.0
670.328	1.0	go	0.417	Go_O	1.0
672.852	0.15	stop	0.263	Go_O	0.0
675.376	1.0	go	0.461	Go_O	1.0
677.9	1.0	go	0.339	Go_X	1.0
680.424	1.0	go	0.395	Go_O	1.0
682.948	1.0	go	0.337	Go_X	1.0
685.473	1.0	go	0.261	Go_O	0.0
688.013	1.0	go	0.34	Go_X	1.0
690.538	1.0	go	0.268	Go_O	1.0
693.062	1.0	go	0.345	Go_X	1.0
695.586	1.0	go	0.35	Go_X	1.0
698.11	0.1	stop	0.0	Go_X	1.0
700.634	1.0	go	0.289	Go_O	1.0
703.158	1.0	go	0.285	Go_X	1.0
705.683	1.0	go	0.309	Go_O	1.0
708.207	0.15	stop	0.398	Go_O	0.0
710.731	1.0	go	0.355	Go_O	0.0
713.255	1.0	go	0.302	Go_X	1.0
715.779	1.0	go	0.362	Go_X	1.0
718.303	1.0	go	0.283	Go_O	1.0
720.828	1.0	go	0.338	Go_X	1.0
723.352	1.0	go	0.358	Go_O	1.0
725.876	0.1	stop	0.259	Go_X	0.0
728.4	1.0	go	0.419	Go_O	1.0
730.924	1.0	go	0.351	Go_X	1.0
733.448	0.05	stop	0.0	Go_O	1.0
735.972	1.0	go	0.332	Go_X	1.0
738.497	1.0	go	0.396	Go_O	1.0
741.021	0.1	stop	0.0	Go_X	1.0
743.545	1.0	go	0.295	Go_X	1.0
746.069	0.15	stop	0.313	Go_O	0.0
748.593	1.0	go	0.355	Go_O	1.0
751.117	1.0	go	0.406	Go_O	1.0
753.642	1.0	go	0.368	Go_X	1.0
756.166	1.0	go	0.333	Go_O	1.0
758.69	1.0	go	0.33	Go_X	1.0
761.214	0.1	stop	0.0	Go_X	1.0
763.738	0.15	stop	0.0	Go_O	1.0
766.262	1.0	go	0.295	Go_O	1.0
768.787	1.0	go	0.232	Go_X	1.0
771.311	0.2	stop	0.0	Go_X	1.0
773.835	1.0	go	0.285	Go_O	1.0
776.359	1.0	go	0.365	Go_X	1.0
778.883	1.0	go	0.32	Go_O	1.0
781.407	1.0	go	0.276	Go_X	1.0
783.932	1.0	go	0.361	Go_X	1.0
786.456	1.0	go	0.354	Go_O	1.0
788.98	0.25	stop	0.403	Go_O	0.0
791.504	1.0	go	0.432	Go_O	1.0
794.028	1.0	go	0.3	Go_X	1.0
796.552	1.0	go	0.344	Go_X	1.0
799.077	1.0	go	0.384	Go_O	1.0
801.601	1.0	go	0.306	Go_X	1.0
804.125	0.2	stop	0.309	Go_X	0.0
806.649	1.0	go	0.372	Go_O	1.0
809.173	1.0	go	0.391	Go_O	1.0
811.697	1.0	go	0.422	Go_X	1.0
814.221	1.0	go	0.496	Go_O	1.0
816.746	0.15	stop	0.0	Go_O	1.0
819.27	1.0	go	0.307	Go_X	1.0
821.794	1.0	go	0.494	Go_X	1.0
824.318	0.2	stop	0.0	Go_X	1.0
826.842	1.0	go	0.317	Go_O	1.0
829.366	0.25	stop	0.0	Go_O	1.0
831.891	1.0	go	0.351	Go_X	1.0
834.415	1.0	go	0.588	Go_O	1.0
836.939	1.0	go	0.429	Go_O	1.0
839.463	1.0	go	0.406	Go_X	1.0
841.987	1.0	go	0.43	Go_O	1.0
844.511	1.0	go	0.475	Go_X	1.0
847.036	1.0	go	0.666	Go_X	1.0
849.56	0.3	stop	0.368	Go_X	0.0
852.084	1.0	go	0.398	Go_O	1.0
854.608	1.0	go	0.513	Go_O	1.0
857.132	1.0	go	0.41	Go_X	1.0
859.656	0.25	stop	0.455	Go_O	0.0
862.181	1.0	go	0.389	Go_O	1.0
864.705	1.0	go	0.402	Go_X	1.0
867.229	1.0	go	0.529	Go_X	1.0
869.753	1.0	go	0.397	Go_O	1.0
872.277	0.2	stop	0.336	Go_X	0.0
874.801	1.0	go	0.418	Go_X	1.0
877.326	1.0	go	0.302	Go_O	1.0
879.85	0.15	stop	0.0	Go_O	1.0
882.374	1.0	go	0.462	Go_O	1.0
884.898	1.0	go	0.282	Go_X	1.0
887.422	0.2	stop	0.0	Go_X	1.0
889.946	1.0	go	0.272	Go_O	1.0
892.47	1.0	go	0.408	Go_X	1.0
894.995	0.25	stop	0.286	Go_O	0.0
897.519	1.0	go	0.285	Go_X	1.0
900.043	1.0	go	0.324	Go_O	1.0
902.567	1.0	go	0.452	Go_O	1.0
905.091	1.0	go	0.296	Go_X	1.0
907.615	1.0	go	0.271	Go_O	1.0
910.14	1.0	go	0.333	Go_X	1.0
912.664	0.2	stop	0.0	Go_X	1.0
915.188	1.0	go	0.471	Go_O	1.0
917.712	0.25	stop	0.453	Go_O	0.0
920.236	1.0	go	0.295	Go_X	1.0
922.76	1.0	go	0.421	Go_X	1.0
925.285	1.0	go	0.401	Go_O	1.0
927.809	1.0	go	0.29	Go_X	1.0
930.333	1.0	go	0.467	Go_O	1.0
932.857	0.2	stop	0.372	Go_X	0.0
935.381	1.0	go	0.429	Go_X	1.0
937.905	1.0	go	0.443	Go_O	1.0
940.43	1.0	go	0.431	Go_X	1.0
942.954	0.15	stop	0.0	Go_O	1.0
945.478	0.2	stop	0.0	Go_X	1.0
948.002	0.25	stop	0.0	Go_O	1.0
950.526	1.0	go	0.425	Go_O	1.0
953.05	0.3	stop	0.561	Go_X	0.0
955.575	1.0	go	0.34	Go_X	1.0
958.099	1.0	go	0.355	Go_O	1.0
960.623	1.0	go	0.456	Go_O	1.0
963.147	1.0	go	0.46	Go_X	1.0
965.671	1.0	go	0.444	Go_X	1.0
968.195	1.0	go	0.418	Go_O	1.0
970.719	1.0	go	0.456	Go_O	1.0
973.244	1.0	go	0.531	Go_X	1.0
975.768	0.25	stop	0.365	Go_O	0.0
978.292	1.0	go	0.293	Go_X	1.0
980.816	1.0	go	0.286	Go_O	1.0
983.34	0.2	stop	0.202	Go_X	0.0
985.864	1.0	go	0.292	Go_O	1.0
988.389	1.0	go	0.416	Go_X	1.0
990.913	1.0	go	0.368	Go_O	1.0
993.437	1.0	go	0.486	Go_X	1.0
995.961	1.0	go	0.384	Go_O	1.0
998.485	0.15	stop	0.0	Go_O	1.0
1001.009	1.0	go	0.362	Go_X	1.0
1003.534	1.0	go	0.513	Go_X	1.0
1006.058	1.0	go	0.577	Go_O	1.0
1008.582	0.2	stop	0.46	Go_X	0.0
1011.106	1.0	go	0.379	Go_X	1.0
1013.63	0.15	stop	0.0	Go_O	1.0
1016.154	1.0	go	0.405	Go_O	1.0
1018.679	1.0	go	0.471	Go_X	1.0
1021.203	1.0	go	0.29	Go_O	1.0
1023.727	1.0	go	0.346	Go_O	1.0
1026.251	1.0	go	0.327	Go_X	1.0
1028.775	1.0	go	0.413	Go_X	1.0
1031.299	1.0	go	0.43	Go_O	1.0
1033.823	0.2	stop	0.0	Go_X	1.0
1036.348	1.0	go	0.347	Go_O	1.0
1038.872	1.0	go	0.536	Go_X	1.0
1041.396	1.0	go	0.623	Go_O	1.0
1043.92	1.0	go	0.722	Go_X	1.0
1046.444	0.25	stop	0.0	Go_O	1.0
1048.968	1.0	go	0.485	Go_O	1.0
1051.493	0.3	stop	0.492	Go_X	0.0
1054.017	1.0	go	0.402	Go_X	1.0
1056.541	1.0	go	0.486	Go_O	1.0
1059.065	0.25	stop	0.0	Go_O	1.0
1061.589	1.0	go	0.369	Go_X	1.0
1064.113	1.0	go	0.463	Go_X	1.0
1066.638	1.0	go	0.37	Go_O	1.0
1069.162	1.0	go	0.481	Go_O	1.0
1071.686	1.0	go	0.396	Go_X	1.0
1074.21	1.0	go	0.424	Go_O	1.0
1076.734	1.0	go	0.441	Go_X	1.0
1079.258	1.0	go	0.479	Go_X	1.0
1081.783	1.0	go	0.438	Go_O	1.0
1084.307	1.0	go	0.549	Go_O	1.0
1086.831	0.3	stop	0.552	Go_X	0.0
1089.355	1.0	go	0.384	Go_X	1.0
1091.879	1.0	go	0.51	Go_O	1.0
1094.403	0.25	stop	0.0	Go_O	1.0
1096.928	1.0	go	0.314	Go_X	1.0
1099.452	0.3	stop	0.379	Go_X	0.0
1101.976	1.0	go	0.404	Go_X	1.0
1104.5	1.0	go	0.352	Go_O	1.0
1107.024	0.25	stop	0.0	Go_O	1.0
1109.548	1.0	go	0.431	Go_X	1.0
1112.072	0.3	stop	0.431	Go_X	0.0
1114.597	1.0	go	0.51	Go_O	1.0
1117.121	1.0	go	0.38	Go_X	1.0
1119.645	1.0	go	0.482	Go_O	1.0
1122.169	0.25	stop	0.422	Go_O	0.0
1124.693	1.0	go	0.346	Go_X	1.0
1127.217	1.0	go	0.497	Go_O	1.0
1129.742	1.0	go	0.0	Go_X	0.0
1132.266	1.0	go	0.287	Go_O	1.0
1134.79	0.2	stop	0.371	Go_X	0.0
1137.314	1.0	go	0.333	Go_X	1.0
1139.838	1.0	go	0.292	Go_O	1.0
1142.362	0.15	stop	0.0	Go_O	1.0
1144.887	1.0	go	0.355	Go_X	1.0
1147.411	1.0	go	0.272	Go_O	1.0
1149.935	1.0	go	0.441	Go_O	1.0
1152.459	1.0	go	0.396	Go_X	1.0
1154.983	0.2	stop	0.464	Go_X	0.0
1157.507	1.0	go	0.378	Go_O	1.0
1160.032	0.15	stop	0.0	Go_O	1.0
1162.556	1.0	go	0.402	Go_X	1.0
1165.08	1.0	go	0.362	Go_O	1.0
1167.604	0.2	stop	0.289	Go_X	0.0
1170.128	1.0	go	0.401	Go_X	1.0
1172.652	1.0	go	0.392	Go_O	1.0
1175.176	1.0	go	0.266	Go_X	1.0
1177.701	1.0	go	0.422	Go_X	1.0
1180.225	0.15	stop	0.0	Go_O	1.0
1182.749	1.0	go	0.584	Go_O	1.0
1185.273	0.2	stop	0.0	Go_X	1.0
1187.797	1.0	go	0.52	Go_O	1.0
1190.321	1.0	go	0.288	Go_X	1.0
1192.846	1.0	go	0.489	Go_X	1.0
1195.37	1.0	go	0.414	Go_O	1.0
1197.894	1.0	go	0.493	Go_O	1.0
1200.418	1.0	go	0.37	Go_X	1.0
1202.942	0.25	stop	0.444	Go_O	0.0
1205.466	1.0	go	0.21	Go_X	1.0
1207.991	1.0	go	0.351	Go_O	1.0
1210.515	0.2	stop	0.0	Go_X	1.0
1213.039	1.0	go	0.469	Go_X	1.0
1215.563	1.0	go	0.404	Go_O	1.0
1218.087	0.25	stop	0.0	Go_O	1.0
1220.611	1.0	go	0.34	Go_X	1.0
1223.136	1.0	go	0.531	Go_O	1.0
1225.66	1.0	go	0.49	Go_O	1.0
1228.184	1.0	go	0.402	Go_X	1.0
1230.708	0.3	stop	0.419	Go_X	0.0
1233.232	1.0	go	0.594	Go_O	1.0
1235.756	0.25	stop	0.0	Go_O	1.0
1238.281	1.0	go	0.585	Go_X	1.0
1240.805	1.0	go	0.526	Go_X	1.0
1243.329	1.0	go	0.433	Go_O	1.0
1245.853	1.0	go	0.486	Go_X	1.0
1248.377	1.0	go	0.399	Go_O	1.0
1250.901	0.3	stop	0.578	Go_X	0.0
1253.425	1.0	go	0.445	Go_X	1.0
1255.95	1.0	go	0.428	Go_O	1.0
1258.474	0.25	stop	0.0	Go_O	1.0
1260.998	0.3	stop	0.293	Go_X	0.0
1263.522	1.0	go	0.375	Go_O	1.0
1266.046	1.0	go	0.295	Go_X	1.0
1268.57	1.0	go	0.425	Go_X	1.0
1271.095	1.0	go	0.677	Go_O	1.0
1273.619	0.25	stop	0.437	Go_O	0.0
1276.143	1.0	go	0.376	Go_O	1.0
