onset	duration	trial_type	response_time	stim_file	accuracy
59.879	1.0	go	0.97	Go_X	1.0
62.403	1.0	go	0.506	Go_O	1.0
64.927	1.0	go	0.259	Go_O	0.0
67.451	1.0	go	0.467	Go_X	1.0
69.975	1.0	go	0.371	Go_X	1.0
72.5	1.0	go	0.389	Go_O	1.0
75.024	0.25	stopsuccess	0.0	Go_O	1.0
77.548	1.0	go	0.302	Go_X	1.0
80.072	0.3	stopfail	0.351	Go_X	0.0
82.596	1.0	go	0.253	Go_O	1.0
85.121	1.0	go	0.445	Go_X	1.0
87.645	1.0	go	0.364	Go_O	1.0
90.169	0.25	stopsuccess	0.0	Go_O	1.0
92.693	1.0	go	0.266	Go_X	1.0
95.217	1.0	go	0.239	Go_O	1.0
97.741	0.3	stopfail	0.374	Go_X	0.0
100.266	0.25	stopfail	0.277	Go_O	0.0
102.79	1.0	go	0.317	Go_X	1.0
105.314	1.0	go	0.339	Go_O	1.0
107.838	0.2	stopsuccess	0.0	Go_X	1.0
110.362	1.0	go	0.223	Go_O	1.0
112.887	1.0	go	0.274	Go_X	1.0
115.411	0.25	stopsuccess	0.0	Go_O	1.0
117.935	1.0	go	0.224	Go_X	1.0
120.459	1.0	go	0.333	Go_O	1.0
122.983	0.3	stopfail	0.378	Go_X	0.0
125.508	1.0	go	0.679	Go_X	1.0
128.032	1.0	go	0.336	Go_O	1.0
130.556	0.25	stopsuccess	0.0	Go_O	1.0
133.08	1.0	go	0.249	Go_X	1.0
135.604	1.0	go	0.371	Go_O	1.0
138.129	1.0	go	0.471	Go_O	1.0
140.653	1.0	go	0.338	Go_X	1.0
143.177	1.0	go	0.451	Go_O	1.0
145.701	0.3	stopfail	0.431	Go_X	0.0
148.225	1.0	go	0.507	Go_X	1.0
150.749	1.0	go	0.426	Go_O	1.0
153.274	1.0	go	0.467	Go_X	1.0
155.798	1.0	go	0.345	Go_O	1.0
158.322	1.0	go	0.305	Go_X	1.0
160.846	0.25	stopsuccess	0.0	Go_O	1.0
163.37	1.0	go	0.313	Go_O	1.0
165.895	1.0	go	0.439	Go_X	1.0
168.419	1.0	go	0.557	Go_X	1.0
170.943	1.0	go	0.318	Go_O	1.0
173.467	1.0	go	0.258	Go_X	1.0
175.991	1.0	go	0.503	Go_O	1.0
178.516	0.3	stopfail	0.572	Go_X	0.0
181.04	1.0	go	0.399	Go_X	1.0
183.564	1.0	go	0.267	Go_O	1.0
186.088	0.25	stopsuccess	0.0	Go_O	1.0
188.612	1.0	go	0.356	Go_O	1.0
191.137	0.3	stopfail	0.425	Go_X	0.0
193.661	0.25	stopsuccess	0.0	Go_O	1.0
196.185	1.0	go	0.394	Go_X	1.0
198.709	1.0	go	0.44	Go_O	1.0
201.233	1.0	go	0.288	Go_X	1.0
203.758	1.0	go	0.5	Go_X	1.0
206.282	0.3	stopsuccess	0.0	Go_X	1.0
208.806	1.0	go	0.284	Go_O	1.0
211.33	0.35	stopsuccess	0.0	Go_O	1.0
213.854	1.0	go	0.381	Go_X	1.0
216.378	1.0	go	0.742	Go_O	1.0
218.903	1.0	go	0.649	Go_O	1.0
221.427	1.0	go	0.63	Go_X	1.0
223.951	1.0	go	0.33	Go_O	1.0
226.475	1.0	go	0.381	Go_X	1.0
228.999	1.0	go	0.574	Go_O	1.0
231.524	1.0	go	0.389	Go_X	1.0
234.048	1.0	go	0.694	Go_O	1.0
236.572	0.4	stopsuccess	0.0	Go_X	1.0
239.096	1.0	go	0.465	Go_X	1.0
241.62	1.0	go	0.301	Go_O	1.0
244.145	1.0	go	0.447	Go_X	1.0
246.669	0.45	stopfail	0.289	Go_O	0.0
249.193	1.0	go	0.195	Go_X	1.0
251.717	1.0	go	0.244	Go_O	1.0
254.241	1.0	go	0.503	Go_X	1.0
256.766	1.0	go	0.31	Go_O	1.0
259.29	1.0	go	0.327	Go_O	1.0
261.814	1.0	go	0.366	Go_X	1.0
264.338	0.4	stopfail	0.406	Go_X	0.0
266.862	1.0	go	0.365	Go_X	1.0
269.387	1.0	go	0.422	Go_O	1.0
271.911	0.35	stopfail	0.393	Go_O	0.0
274.435	1.0	go	0.476	Go_X	1.0
276.959	1.0	go	0.357	Go_O	1.0
279.483	0.3	stopfail	0.399	Go_X	0.0
282.008	1.0	go	0.315	Go_O	1.0
284.532	0.25	stopfail	0.278	Go_O	0.0
287.056	1.0	go	0.362	Go_X	1.0
289.58	1.0	go	0.361	Go_X	1.0
292.104	1.0	go	0.407	Go_O	1.0
294.628	1.0	go	0.46	Go_X	1.0
297.153	1.0	go	0.445	Go_O	1.0
299.677	0.2	stopsuccess	0.0	Go_X	1.0
302.201	0.25	stopfail	0.284	Go_O	0.0
304.725	1.0	go	0.425	Go_O	1.0
307.249	1.0	go	0.409	Go_X	1.0
309.774	0.2	stopsuccess	0.0	Go_X	1.0
312.298	1.0	go	0.326	Go_O	1.0
314.822	1.0	go	0.362	Go_X	1.0
317.346	1.0	go	0.395	Go_O	1.0
319.87	1.0	go	0.374	Go_X	1.0
322.395	1.0	go	0.38	Go_X	1.0
324.919	1.0	go	0.319	Go_O	1.0
327.443	0.25	stopsuccess	0.0	Go_O	1.0
329.967	1.0	go	0.34	Go_X	1.0
332.491	1.0	go	0.374	Go_O	1.0
335.016	1.0	go	0.588	Go_X	1.0
337.54	1.0	go	0.247	Go_O	1.0
340.064	1.0	go	0.435	Go_X	1.0
342.588	0.3	stopsuccess	0.0	Go_X	1.0
345.112	1.0	go	0.519	Go_O	1.0
347.636	1.0	go	0.516	Go_X	0.0
350.161	1.0	go	0.339	Go_O	1.0
352.685	1.0	go	0.39	Go_O	1.0
355.209	0.35	stopfail	0.371	Go_O	0.0
357.733	1.0	go	0.372	Go_X	1.0
360.257	1.0	go	0.332	Go_O	1.0
362.782	0.3	stopfail	0.304	Go_X	0.0
365.306	1.0	go	0.442	Go_X	1.0
367.83	0.25	stopsuccess	0.0	Go_O	1.0
370.354	1.0	go	0.382	Go_X	1.0
372.878	1.0	go	0.471	Go_O	1.0
375.403	1.0	go	0.395	Go_X	1.0
377.927	1.0	go	0.373	Go_O	1.0
380.451	1.0	go	0.397	Go_X	1.0
382.975	1.0	go	0.466	Go_O	1.0
385.499	1.0	go	0.735	Go_X	1.0
388.024	0.3	stopfail	0.378	Go_X	0.0
390.548	1.0	go	0.305	Go_O	1.0
393.072	1.0	go	0.56	Go_X	1.0
395.596	1.0	go	0.403	Go_O	1.0
398.12	0.25	stopfail	0.368	Go_O	0.0
400.645	1.0	go	0.334	Go_O	1.0
403.169	1.0	go	0.477	Go_X	1.0
405.693	1.0	go	0.525	Go_X	1.0
408.217	1.0	go	0.354	Go_O	1.0
410.741	0.2	stopsuccess	0.0	Go_X	1.0
413.265	1.0	go	0.598	Go_X	1.0
415.79	1.0	go	0.239	Go_O	1.0
418.314	0.25	stopfail	0.375	Go_O	0.0
420.838	1.0	go	0.324	Go_O	1.0
423.362	1.0	go	0.331	Go_X	1.0
425.886	0.2	stopfail	0.292	Go_X	0.0
428.411	1.0	go	0.381	Go_X	1.0
430.935	1.0	go	0.303	Go_O	1.0
433.459	0.15	stopsuccess	0.0	Go_O	1.0
435.983	1.0	go	0.414	Go_X	1.0
438.507	1.0	go	0.436	Go_O	1.0
441.032	1.0	go	0.426	Go_O	1.0
443.556	1.0	go	0.521	Go_X	1.0
446.08	1.0	go	0.228	Go_O	1.0
448.604	1.0	go	0.371	Go_X	1.0
451.128	0.2	stopsuccess	0.0	Go_X	1.0
453.653	1.0	go	0.355	Go_O	1.0
456.177	0.25	stopsuccess	0.0	Go_O	1.0
458.701	1.0	go	0.252	Go_X	1.0
461.225	1.0	go	0.254	Go_O	1.0
463.749	1.0	go	0.432	Go_X	1.0
466.274	1.0	go	0.553	Go_X	1.0
468.798	1.0	go	0.404	Go_O	1.0
471.322	0.3	stopfail	0.403	Go_X	0.0
473.846	1.0	go	0.195	Go_O	1.0
476.37	1.0	go	0.241	Go_X	1.0
478.895	1.0	go	0.238	Go_O	1.0
481.419	0.25	stopfail	0.376	Go_O	0.0
483.943	0.2	stopsuccess	0.0	Go_X	1.0
486.467	0.25	stopfail	0.393	Go_O	0.0
488.991	1.0	go	0.479	Go_X	1.0
491.515	0.2	stopfail	0.244	Go_X	0.0
494.04	1.0	go	0.23	Go_O	1.0
496.564	1.0	go	0.502	Go_X	1.0
499.088	1.0	go	0.486	Go_X	1.0
501.612	1.0	go	0.275	Go_O	1.0
504.136	1.0	go	0.456	Go_O	1.0
506.661	1.0	go	0.211	Go_X	1.0
509.185	1.0	go	0.387	Go_X	1.0
511.709	1.0	go	0.244	Go_O	1.0
514.233	0.15	stopsuccess	0.0	Go_O	1.0
516.757	1.0	go	0.41	Go_X	1.0
519.282	1.0	go	0.314	Go_O	1.0
521.806	0.2	stopsuccess	0.0	Go_X	1.0
524.33	1.0	go	0.3	Go_O	1.0
526.854	1.0	go	0.297	Go_X	1.0
529.378	1.0	go	0.301	Go_O	1.0
531.903	1.0	go	0.341	Go_X	1.0
534.427	1.0	go	0.319	Go_O	1.0
536.951	0.25	stopsuccess	0.0	Go_O	1.0
539.475	1.0	go	0.549	Go_X	1.0
541.999	1.0	go	0.356	Go_X	1.0
544.524	1.0	go	0.32	Go_O	1.0
547.048	0.3	stopfail	0.34	Go_X	0.0
549.572	1.0	go	0.55	Go_O	1.0
552.096	0.25	stopfail	0.356	Go_O	0.0
554.62	1.0	go	0.309	Go_X	1.0
557.144	1.0	go	0.58	Go_O	1.0
559.669	1.0	go	0.287	Go_X	1.0
562.193	1.0	go	0.5	Go_O	1.0
564.717	1.0	go	0.393	Go_X	1.0
567.241	1.0	go	0.514	Go_X	1.0
569.765	1.0	go	0.498	Go_O	1.0
572.29	0.2	stopsuccess	0.0	Go_X	1.0
574.814	1.0	go	0.236	Go_O	0.0
577.338	1.0	go	0.382	Go_X	1.0
579.862	1.0	go	0.25	Go_O	1.0
582.386	1.0	go	0.383	Go_X	0.0
584.911	0.25	stopsuccess	0.0	Go_O	1.0
587.435	1.0	go	0.6	Go_O	1.0
589.959	0.3	stopsuccess	0.0	Go_X	1.0
592.483	1.0	go	0.448	Go_X	1.0
595.007	1.0	go	0.456	Go_X	1.0
597.532	0.35	stopfail	0.281	Go_O	0.0
600.056	1.0	go	0.403	Go_O	1.0
602.58	1.0	go	0.47	Go_O	1.0
605.104	1.0	go	0.594	Go_X	1.0
607.628	1.0	go	0.302	Go_X	0.0
610.152	1.0	go	0.348	Go_O	1.0
612.677	1.0	go	0.423	Go_X	1.0
615.201	1.0	go	0.232	Go_O	1.0
617.725	1.0	go	0.589	Go_X	1.0
620.249	1.0	go	0.377	Go_O	1.0
622.773	1.0	go	0.412	Go_O	1.0
625.298	0.3	stopfail	0.292	Go_X	0.0
627.822	1.0	go	0.454	Go_X	1.0
630.346	1.0	go	0.368	Go_O	1.0
632.87	0.25	stopfail	0.36	Go_O	0.0
635.394	1.0	go	0.326	Go_X	1.0
637.919	0.2	stopsuccess	0.0	Go_X	1.0
640.443	1.0	go	0.35	Go_O	1.0
642.967	1.0	go	0.463	Go_X	1.0
645.491	0.25	stopsuccess	0.0	Go_O	1.0
648.015	1.0	go	0.384	Go_X	1.0
650.54	0.3	stopsuccess	0.0	Go_X	1.0
653.064	1.0	go	0.383	Go_O	1.0
655.588	1.0	go	0.414	Go_X	1.0
658.112	1.0	go	0.257	Go_O	1.0
660.636	0.35	stopsuccess	0.0	Go_O	1.0
663.161	1.0	go	0.278	Go_X	1.0
665.685	1.0	go	0.37	Go_O	1.0
668.209	1.0	go	0.489	Go_X	1.0
670.733	1.0	go	0.299	Go_O	1.0
673.257	0.4	stopfail	0.287	Go_X	0.0
675.781	1.0	go	0.201	Go_O	1.0
678.306	1.0	go	0.318	Go_X	1.0
680.83	0.35	stopfail	0.229	Go_O	0.0
683.354	1.0	go	0.502	Go_O	1.0
685.878	1.0	go	0.359	Go_X	1.0
688.402	1.0	go	0.364	Go_X	1.0
690.927	1.0	go	0.257	Go_O	1.0
693.451	0.3	stopfail	0.22	Go_X	0.0
695.975	1.0	go	0.221	Go_O	1.0
698.499	0.25	stopfail	0.424	Go_O	0.0
701.023	1.0	go	0.415	Go_X	1.0
703.548	1.0	go	0.487	Go_O	1.0
706.072	0.2	stopsuccess	0.0	Go_X	1.0
708.596	1.0	go	0.342	Go_X	1.0
711.12	1.0	go	0.391	Go_X	1.0
713.644	1.0	go	0.425	Go_O	1.0
716.169	1.0	go	0.414	Go_O	1.0
718.693	0.25	stopsuccess	0.0	Go_O	1.0
721.217	1.0	go	0.38	Go_X	1.0
723.741	0.3	stopfail	0.407	Go_X	0.0
726.265	1.0	go	0.511	Go_X	1.0
728.79	1.0	go	0.358	Go_O	1.0
731.314	1.0	go	0.743	Go_O	1.0
733.838	1.0	go	0.882	Go_X	1.0
736.362	1.0	go	0.394	Go_O	1.0
738.886	1.0	go	0.346	Go_X	1.0
741.41	0.25	stopfail	0.354	Go_O	0.0
743.935	1.0	go	0.518	Go_O	1.0
746.459	1.0	go	0.261	Go_X	1.0
748.983	0.2	stopsuccess	0.0	Go_X	1.0
751.507	1.0	go	0.382	Go_O	1.0
754.031	1.0	go	0.459	Go_X	1.0
756.556	0.25	stopfail	0.38	Go_O	0.0
759.08	1.0	go	0.505	Go_O	1.0
761.604	1.0	go	0.523	Go_X	1.0
764.128	1.0	go	0.505	Go_O	1.0
766.652	1.0	go	0.305	Go_X	1.0
769.177	0.2	stopfail	0.31	Go_X	0.0
771.701	1.0	go	0.355	Go_X	1.0
774.225	0.15	stopsuccess	0.0	Go_O	1.0
776.749	1.0	go	0.233	Go_O	1.0
779.273	1.0	go	0.326	Go_X	1.0
781.798	1.0	go	0.245	Go_O	1.0
784.322	1.0	go	0.395	Go_X	1.0
786.846	1.0	go	0.199	Go_O	1.0
789.37	0.2	stopsuccess	0.0	Go_X	1.0
791.894	1.0	go	0.476	Go_X	0.0
794.419	1.0	go	0.239	Go_O	1.0
796.943	0.25	stopfail	0.355	Go_O	0.0
799.467	0.2	stopfail	0.331	Go_X	0.0
801.991	1.0	go	0.277	Go_O	1.0
804.515	1.0	go	0.385	Go_X	1.0
807.039	1.0	go	0.362	Go_O	1.0
809.564	1.0	go	0.263	Go_X	1.0
812.088	0.15	stopsuccess	0.0	Go_O	1.0
814.612	1.0	go	0.277	Go_X	1.0
