onset	duration	trial_type	response_time	stim_file	accuracy
75.493	1.0	go	0.0	Go_X	0.0
78.026	1.0	go	0.0	Go_O	0.0
80.56	1.0	go	0.176	Go_X	0.0
83.109	1.0	go	0.665	Go_O	0.0
85.643	1.0	go	0.931	Go_X	0.0
88.176	1.0	go	0.602	Go_O	0.0
90.709	0.25	stop	0.447	Go_O	0.0
93.242	1.0	go	0.556	Go_O	0.0
95.776	0.2	stop	0.0	Go_X	1.0
98.309	1.0	go	0.306	Go_X	0.0
100.842	1.0	go	0.821	Go_O	0.0
103.375	1.0	go	0.0	Go_X	0.0
105.909	0.25	stop	0.0	Go_O	1.0
108.442	1.0	go	0.401	Go_O	0.0
110.975	1.0	go	0.722	Go_X	0.0
113.509	0.3	stop	0.0	Go_X	1.0
116.058	0.35	stop	0.537	Go_O	0.0
118.592	1.0	go	0.834	Go_O	0.0
121.125	1.0	go	0.373	Go_X	0.0
123.658	0.3	stop	0.0	Go_X	1.0
126.191	1.0	go	0.836	Go_O	0.0
128.725	1.0	go	0.874	Go_X	0.0
131.258	0.35	stop	0.0	Go_O	1.0
133.791	1.0	go	0.621	Go_O	0.0
136.324	1.0	go	0.816	Go_X	0.0
138.858	0.4	stop	0.0	Go_X	1.0
141.391	1.0	go	0.616	Go_O	0.0
143.924	1.0	go	0.593	Go_X	0.0
146.457	0.45	stop	0.0	Go_O	1.0
148.991	1.0	go	0.874	Go_O	0.0
151.524	1.0	go	0.0	Go_X	0.0
154.057	1.0	go	0.48	Go_X	0.0
156.59	1.0	go	0.0	Go_O	0.0
159.124	1.0	go	0.457	Go_O	0.0
161.657	0.5	stop	0.463	Go_X	0.0
164.19	1.0	go	0.495	Go_X	0.0
166.723	1.0	go	0.459	Go_X	0.0
169.257	1.0	go	0.496	Go_O	0.0
171.79	1.0	go	0.665	Go_O	0.0
174.323	1.0	go	0.972	Go_X	0.0
176.856	0.45	stop	0.329	Go_O	0.0
179.39	1.0	go	0.456	Go_O	0.0
181.923	1.0	go	0.612	Go_X	0.0
184.456	1.0	go	0.0	Go_X	0.0
186.99	1.0	go	0.668	Go_O	0.0
189.539	1.0	go	0.809	Go_O	0.0
192.073	1.0	go	0.539	Go_X	0.0
194.606	0.4	stop	0.0	Go_X	1.0
197.139	1.0	go	0.708	Go_O	0.0
199.672	1.0	go	0.785	Go_X	0.0
202.206	0.45	stop	0.0	Go_O	1.0
204.739	1.0	go	0.87	Go_O	0.0
207.272	0.5	stop	0.476	Go_X	0.0
209.805	0.45	stop	0.392	Go_O	0.0
212.339	1.0	go	0.699	Go_X	0.0
214.872	1.0	go	0.991	Go_O	0.0
217.405	1.0	go	0.605	Go_X	0.0
219.938	1.0	go	0.638	Go_X	0.0
222.472	0.4	stop	0.0	Go_X	1.0
225.005	1.0	go	0.51	Go_O	0.0
227.538	0.45	stop	0.491	Go_O	0.0
230.071	1.0	go	0.755	Go_O	0.0
232.605	1.0	go	0.668	Go_X	0.0
235.138	1.0	go	0.582	Go_X	0.0
237.671	1.0	go	0.862	Go_O	0.0
240.204	1.0	go	0.596	Go_X	0.0
242.738	1.0	go	0.848	Go_O	0.0
245.271	1.0	go	0.715	Go_O	0.0
247.804	1.0	go	0.745	Go_X	0.0
250.337	1.0	go	0.0	Go_O	0.0
252.871	0.4	stop	0.0	Go_X	1.0
255.404	1.0	go	0.515	Go_X	0.0
257.937	1.0	go	0.0	Go_X	0.0
260.47	1.0	go	0.82	Go_O	0.0
263.004	0.45	stop	0.709	Go_O	0.0
265.537	1.0	go	0.593	Go_X	0.0
268.07	1.0	go	0.627	Go_O	0.0
270.604	1.0	go	0.926	Go_X	0.0
273.153	1.0	go	0.443	Go_O	0.0
275.687	1.0	go	0.0	Go_X	0.0
278.22	1.0	go	0.368	Go_O	0.0
280.753	0.4	stop	0.0	Go_X	1.0
283.286	1.0	go	0.529	Go_X	0.0
285.82	1.0	go	0.459	Go_O	0.0
288.353	0.45	stop	0.551	Go_O	0.0
290.886	1.0	go	0.777	Go_O	0.0
293.419	1.0	go	0.737	Go_X	0.0
295.953	0.4	stop	0.0	Go_X	1.0
298.486	1.0	go	0.381	Go_X	0.0
301.019	0.45	stop	0.0	Go_O	1.0
303.552	1.0	go	0.345	Go_O	0.0
306.086	1.0	go	0.49	Go_O	0.0
308.619	1.0	go	0.674	Go_X	0.0
311.152	1.0	go	0.876	Go_O	0.0
313.685	1.0	go	0.956	Go_X	0.0
316.219	0.5	stop	0.68	Go_X	0.0
318.752	0.45	stop	0.0	Go_O	1.0
321.285	1.0	go	0.859	Go_X	0.0
323.818	1.0	go	0.701	Go_O	0.0
326.352	0.5	stop	0.0	Go_X	1.0
328.885	1.0	go	0.37	Go_X	0.0
331.418	1.0	go	0.596	Go_O	0.0
333.951	1.0	go	0.683	Go_X	0.0
336.485	1.0	go	0.747	Go_O	0.0
339.018	1.0	go	0.0	Go_X	0.0
341.551	1.0	go	0.506	Go_O	0.0
344.085	0.55	stop	0.666	Go_O	0.0
346.634	1.0	go	0.624	Go_X	0.0
349.168	1.0	go	0.901	Go_O	0.0
351.701	1.0	go	0.667	Go_O	0.0
354.234	1.0	go	0.767	Go_X	0.0
356.767	1.0	go	0.585	Go_X	0.0
359.301	0.5	stop	0.0	Go_X	1.0
361.834	1.0	go	0.609	Go_O	0.0
364.367	1.0	go	0.444	Go_O	0.0
366.9	1.0	go	0.475	Go_X	0.0
369.434	1.0	go	0.421	Go_X	0.0
371.967	0.55	stop	0.542	Go_O	0.0
374.5	1.0	go	0.467	Go_O	0.0
377.033	1.0	go	0.674	Go_X	0.0
379.567	0.5	stop	0.575	Go_X	0.0
382.1	1.0	go	0.457	Go_O	0.0
384.633	0.45	stop	0.0	Go_O	1.0
387.166	1.0	go	0.569	Go_X	0.0
389.7	1.0	go	0.517	Go_O	0.0
392.233	1.0	go	0.552	Go_O	0.0
394.766	1.0	go	0.836	Go_X	0.0
397.299	1.0	go	0.724	Go_X	1.0
399.833	1.0	go	0.892	Go_O	0.0
402.366	1.0	go	0.549	Go_O	0.0
404.899	0.5	stop	0.379	Go_X	0.0
407.433	1.0	go	0.616	Go_X	0.0
409.982	1.0	go	0.868	Go_O	0.0
412.516	1.0	go	0.843	Go_X	0.0
415.049	0.45	stop	0.0	Go_O	1.0
417.582	1.0	go	0.596	Go_X	0.0
420.115	1.0	go	0.516	Go_O	0.0
422.649	1.0	go	0.995	Go_X	0.0
425.182	1.0	go	0.0	Go_O	0.0
427.715	0.5	stop	0.0	Go_X	1.0
430.248	1.0	go	0.0	Go_X	0.0
432.782	1.0	go	0.676	Go_O	0.0
435.315	0.55	stop	0.622	Go_O	0.0
437.848	1.0	go	0.741	Go_X	0.0
440.381	1.0	go	0.0	Go_O	0.0
442.915	0.5	stop	0.565	Go_X	0.0
445.448	1.0	go	0.955	Go_X	0.0
447.981	1.0	go	0.0	Go_O	0.0
450.514	0.45	stop	0.431	Go_O	0.0
453.048	1.0	go	0.0	Go_X	0.0
455.581	1.0	go	0.424	Go_O	0.0
458.114	1.0	go	0.71	Go_X	0.0
460.647	1.0	go	0.551	Go_O	0.0
463.181	1.0	go	0.676	Go_O	0.0
465.714	1.0	go	0.881	Go_X	0.0
468.247	0.4	stop	0.0	Go_X	1.0
470.78	1.0	go	0.646	Go_X	0.0
473.314	0.45	stop	0.592	Go_O	0.0
475.847	1.0	go	0.372	Go_O	0.0
478.38	1.0	go	0.559	Go_X	0.0
480.913	1.0	go	0.515	Go_O	0.0
483.447	1.0	go	0.775	Go_O	0.0
485.98	1.0	go	0.628	Go_X	0.0
488.513	0.4	stop	0.0	Go_X	1.0
491.046	1.0	go	0.911	Go_O	0.0
493.58	1.0	go	0.698	Go_X	0.0
496.113	1.0	go	0.0	Go_O	0.0
498.646	0.45	stop	0.516	Go_O	0.0
501.18	0.4	stop	0.0	Go_X	1.0
503.729	0.45	stop	0.512	Go_O	0.0
506.263	1.0	go	0.0	Go_X	0.0
508.796	0.4	stop	0.515	Go_X	0.0
511.329	1.0	go	0.97	Go_X	0.0
513.862	1.0	go	0.649	Go_O	0.0
516.396	1.0	go	0.575	Go_O	0.0
518.929	1.0	go	0.611	Go_X	0.0
521.462	1.0	go	0.892	Go_X	0.0
523.995	1.0	go	0.531	Go_O	0.0
526.529	1.0	go	0.363	Go_O	0.0
529.062	1.0	go	0.739	Go_X	0.0
531.595	0.35	stop	0.0	Go_O	1.0
534.128	1.0	go	0.757	Go_X	0.0
536.662	1.0	go	0.872	Go_O	0.0
539.195	0.4	stop	0.0	Go_X	1.0
541.728	1.0	go	0.378	Go_O	0.0
544.261	1.0	go	0.533	Go_X	0.0
546.795	1.0	go	0.643	Go_X	0.0
549.328	1.0	go	0.68	Go_O	0.0
551.861	1.0	go	0.686	Go_O	0.0
554.394	0.45	stop	0.456	Go_O	0.0
556.928	1.0	go	0.779	Go_X	0.0
559.461	1.0	go	0.987	Go_X	0.0
561.994	1.0	go	0.673	Go_O	0.0
564.528	0.4	stop	0.0	Go_X	1.0
567.077	1.0	go	0.473	Go_O	0.0
569.611	0.45	stop	0.0	Go_O	1.0
572.144	1.0	go	0.735	Go_X	0.0
574.677	1.0	go	0.0	Go_O	0.0
577.21	1.0	go	0.642	Go_X	0.0
579.744	1.0	go	0.0	Go_X	0.0
582.277	1.0	go	0.442	Go_O	0.0
584.81	1.0	go	0.627	Go_O	0.0
587.343	1.0	go	0.58	Go_X	0.0
589.877	0.5	stop	0.0	Go_X	1.0
592.41	1.0	go	0.7	Go_O	0.0
594.943	1.0	go	0.684	Go_X	0.0
597.476	1.0	go	0.0	Go_X	0.0
600.01	1.0	go	0.452	Go_O	0.0
602.543	0.55	stop	0.543	Go_O	0.0
605.076	1.0	go	0.672	Go_O	0.0
607.609	0.5	stop	0.583	Go_X	0.0
610.143	1.0	go	0.769	Go_X	0.0
612.676	1.0	go	0.0	Go_O	0.0
615.209	0.45	stop	0.522	Go_O	0.0
617.742	1.0	go	0.935	Go_X	0.0
620.276	1.0	go	0.744	Go_X	0.0
622.809	1.0	go	0.958	Go_O	0.0
625.342	1.0	go	0.717	Go_X	0.0
627.875	1.0	go	0.281	Go_O	0.0
630.409	1.0	go	0.579	Go_X	0.0
632.942	1.0	go	0.746	Go_O	0.0
635.475	1.0	go	0.807	Go_O	0.0
638.008	1.0	go	0.839	Go_X	0.0
640.542	1.0	go	0.886	Go_X	0.0
643.075	0.4	stop	0.0	Go_X	1.0
645.608	1.0	go	0.672	Go_O	0.0
648.142	1.0	go	0.914	Go_X	0.0
650.691	0.45	stop	0.0	Go_O	1.0
653.225	1.0	go	0.899	Go_O	0.0
655.758	0.5	stop	0.491	Go_X	0.0
658.291	1.0	go	0.657	Go_O	0.0
660.824	1.0	go	0.741	Go_X	0.0
663.358	0.45	stop	0.423	Go_O	0.0
665.891	1.0	go	0.62	Go_X	0.0
668.424	0.4	stop	0.0	Go_X	1.0
670.957	1.0	go	0.494	Go_O	0.0
673.491	1.0	go	0.505	Go_O	0.0
676.024	1.0	go	0.0	Go_X	0.0
678.557	0.45	stop	0.0	Go_O	1.0
681.09	1.0	go	0.487	Go_O	0.0
683.624	1.0	go	0.688	Go_X	0.0
686.157	1.0	go	0.467	Go_O	0.0
688.69	1.0	go	0.64	Go_X	0.0
691.223	0.5	stop	0.0	Go_X	1.0
693.757	1.0	go	0.498	Go_O	0.0
696.29	1.0	go	0.0	Go_X	0.0
698.823	0.55	stop	0.51	Go_O	0.0
701.356	1.0	go	0.0	Go_O	0.0
703.89	1.0	go	0.0	Go_X	0.0
706.423	1.0	go	0.459	Go_X	0.0
708.956	1.0	go	0.486	Go_O	0.0
711.489	0.5	stop	0.0	Go_X	1.0
714.023	1.0	go	0.511	Go_O	0.0
716.556	0.55	stop	0.0	Go_O	1.0
719.089	1.0	go	0.646	Go_X	0.0
721.622	1.0	go	0.356	Go_X	0.0
724.156	0.6	stop	0.0	Go_X	1.0
726.689	1.0	go	0.573	Go_O	0.0
729.222	1.0	go	0.926	Go_O	0.0
731.756	1.0	go	0.949	Go_X	0.0
734.305	1.0	go	0.947	Go_O	0.0
736.839	0.65	stop	0.0	Go_O	1.0
739.372	1.0	go	0.0	Go_X	0.0
741.905	0.7	stop	0.82	Go_X	0.0
744.438	1.0	go	0.799	Go_O	0.0
746.972	1.0	go	0.99	Go_X	0.0
749.505	1.0	go	0.861	Go_O	0.0
752.038	1.0	go	0.437	Go_X	0.0
754.571	1.0	go	0.643	Go_O	0.0
757.105	1.0	go	0.793	Go_X	0.0
759.638	0.65	stop	0.815	Go_O	0.0
762.171	1.0	go	0.0	Go_X	0.0
764.704	1.0	go	0.561	Go_O	0.0
767.238	0.6	stop	0.0	Go_X	1.0
769.771	1.0	go	0.917	Go_X	0.0
772.304	1.0	go	0.922	Go_O	0.0
774.837	0.65	stop	0.656	Go_O	0.0
777.371	1.0	go	0.559	Go_X	0.0
779.904	1.0	go	0.0	Go_O	0.0
782.437	1.0	go	0.497	Go_X	0.0
784.97	1.0	go	0.363	Go_O	0.0
787.504	0.6	stop	0.625	Go_X	0.0
790.037	1.0	go	0.0	Go_X	0.0
792.57	0.55	stop	0.0	Go_O	1.0
795.103	1.0	go	0.621	Go_O	0.0
797.637	1.0	go	0.538	Go_O	0.0
800.17	1.0	go	0.828	Go_X	0.0
802.703	1.0	go	0.725	Go_O	0.0
805.236	1.0	go	0.0	Go_X	0.0
807.77	0.6	stop	0.655	Go_X	0.0
810.303	1.0	go	0.733	Go_X	0.0
812.836	1.0	go	0.757	Go_O	0.0
815.37	0.55	stop	0.438	Go_O	0.0
817.919	0.5	stop	0.0	Go_X	1.0
820.453	1.0	go	0.738	Go_O	0.0
822.986	1.0	go	0.654	Go_X	0.0
825.519	1.0	go	0.592	Go_X	0.0
828.052	1.0	go	0.442	Go_O	0.0
830.586	0.55	stop	0.454	Go_O	0.0
833.119	1.0	go	0.544	Go_O	0.0
