frame	onset	duration	trial_type	event_type	response_type	response_time	stim_file	accuracy
0	76.509		control-reward	ImageDisplay1		0.0		
0	78.481	0.75	control-reward	StartDisplay				
0	79.233		control-reward	ImageDisplay2		0.0		
0	82.493	1.6	control-reward	ChoiceDisplay	1	1.217	1	1
0	83.73	0.383	control-reward	ChosenDisplay		0.0		
0	84.098	0.25	control-reward	TurnDisplay				
0	84.349	0.75	control-reward	OutcomeDisplay				
1	85.101		loss-reward	ImageDisplay1		0.0		
1	87.341	0.75	loss-reward	StartDisplay				
1	88.093		loss-reward	ImageDisplay2		0.0		
1	91.102	1.6	loss-reward	ChoiceDisplay	1	1.068	1	1
1	92.189	0.532	loss-reward	ChosenDisplay		0.0		
1	92.707	0.25	loss-reward	TurnDisplay				
1	92.958	0.75	loss-reward	OutcomeDisplay				
2	93.71		win-reward	ImageDisplay1		0.0		
2	95.95	0.75	win-reward	StartDisplay				
2	96.702		win-reward	ImageDisplay2		0.0		
2	99.711	1.6	win-reward	ChoiceDisplay	1	0.693	1	1
2	100.43	0.907	win-reward	ChosenDisplay		0.0		
2	101.316	0.25	win-reward	TurnDisplay				
2	101.567	0.75	win-reward	OutcomeDisplay				
3	102.319		win-noreward	ImageDisplay1		0.0		
3	104.308	0.75	win-noreward	StartDisplay				
3	105.061		win-noreward	ImageDisplay2		0.0		
3	108.32	1.6	win-noreward	ChoiceDisplay	1	0.986	1	1
3	109.323	0.614	win-noreward	ChosenDisplay		0.0		
3	109.925	0.25	win-noreward	TurnDisplay				
3	110.176	0.75	win-noreward	OutcomeDisplay				
4	110.928		control-noreward	ImageDisplay1		0.0		
4	112.917	0.75	control-noreward	StartDisplay				
4	113.67		control-noreward	ImageDisplay2		0.0		
4	116.929	1.6	control-noreward	ChoiceDisplay	1	0.749	1	1
4	117.698	0.851	control-noreward	ChosenDisplay		0.0		
4	118.534	0.25	control-noreward	TurnDisplay				
4	118.785	0.75	control-noreward	OutcomeDisplay				
5	119.537		win-reward	ImageDisplay1		0.0		
5	121.777	0.75	win-reward	StartDisplay				
5	122.529		win-reward	ImageDisplay2		0.0		
5	125.538	1.6	win-reward	ChoiceDisplay	1	0.754	1	1
5	126.307	0.846	win-reward	ChosenDisplay		0.0		
5	127.143	0.25	win-reward	TurnDisplay				
5	127.394	0.75	win-reward	OutcomeDisplay				
6	128.146		control-reward	ImageDisplay1		0.0		
6	130.135	0.75	control-reward	StartDisplay				
6	130.888		control-reward	ImageDisplay2		0.0		
6	134.147	1.6	control-reward	ChoiceDisplay	1	0.755	1	1
6	134.933	0.845	control-reward	ChosenDisplay		0.0		
6	135.752	0.25	control-reward	TurnDisplay				
6	136.003	0.75	control-reward	OutcomeDisplay				
7	136.755		loss-noreward	ImageDisplay1		0.0		
7	138.995	0.75	loss-noreward	StartDisplay				
7	139.747		loss-noreward	ImageDisplay2		0.0		
7	142.756	1.6	loss-noreward	ChoiceDisplay	1	0.698	1	1
7	143.475	0.902	loss-noreward	ChosenDisplay		0.0		
7	144.361	0.25	loss-noreward	TurnDisplay				
7	144.612	0.75	loss-noreward	OutcomeDisplay				
8	145.364		loss-noreward	ImageDisplay1		0.0		
8	147.604	0.75	loss-noreward	StartDisplay				
8	148.357		loss-noreward	ImageDisplay2		0.0		
8	151.366	1.6	loss-noreward	ChoiceDisplay	1	1.282	1	1
8	152.669	0.318	loss-noreward	ChosenDisplay		0.0		
8	152.97	0.25	loss-noreward	TurnDisplay				
8	153.221	0.75	loss-noreward	OutcomeDisplay				
9	153.973		loss-reward	ImageDisplay1		0.0		
9	156.213	0.75	loss-reward	StartDisplay				
9	156.966		loss-reward	ImageDisplay2		0.0		
9	159.975	1.6	loss-reward	ChoiceDisplay	1	1.35	1	1
9	161.345	0.25	loss-reward	ChosenDisplay		0.0		
9	161.579	0.25	loss-reward	TurnDisplay				
9	161.83	0.75	loss-reward	OutcomeDisplay				
10	162.582		loss-reward	ImageDisplay1		0.0		
10	164.572	0.75	loss-reward	StartDisplay				
10	165.324		loss-reward	ImageDisplay2		0.0		
10	168.584	1.6	loss-reward	ChoiceDisplay	1	1.378	1	1
10	169.988	0.222	loss-reward	ChosenDisplay		0.0		
10	170.188	0.25	loss-reward	TurnDisplay				
10	170.439	0.75	loss-reward	OutcomeDisplay				
11	171.191		control-noreward	ImageDisplay1		0.0		
11	173.181	0.75	control-noreward	StartDisplay				
11	173.933		control-noreward	ImageDisplay2		0.0		
11	177.193	1.6	control-noreward	ChoiceDisplay	1	1.307	1	1
11	178.513	0.293	control-noreward	ChosenDisplay		0.0		
11	178.797	0.25	control-noreward	TurnDisplay				
11	179.048	0.75	control-noreward	OutcomeDisplay				
12	179.8		control-reward	ImageDisplay1		0.0		
12	182.04	0.75	control-reward	StartDisplay				
12	182.793		control-reward	ImageDisplay2		0.0		
12	185.802	1.6	control-reward	ChoiceDisplay	1	1.105	1	1
12	186.922	0.495	control-reward	ChosenDisplay		0.0		
12	187.406	0.25	control-reward	TurnDisplay				
12	187.657	0.75	control-reward	OutcomeDisplay				
13	188.409		win-reward	ImageDisplay1		0.0		
13	190.649	0.75	win-reward	StartDisplay				
13	191.402		win-reward	ImageDisplay2		0.0		
13	194.411	1.6	win-reward	ChoiceDisplay	1	1.149	1	1
13	195.581	0.451	win-reward	ChosenDisplay		0.0		
13	196.015	0.25	win-reward	TurnDisplay				
13	196.266	0.75	win-reward	OutcomeDisplay				
14	197.018		win-reward	ImageDisplay1		0.0		
14	199.008	0.75	win-reward	StartDisplay				
14	199.76		win-reward	ImageDisplay2		0.0		
14	203.02	1.6	win-reward	ChoiceDisplay	1	1.162	1	1
14	204.207	0.438	win-reward	ChosenDisplay		0.0		
14	204.624	0.25	win-reward	TurnDisplay				
14	204.875	0.75	win-reward	OutcomeDisplay				
15	205.627		win-reward	ImageDisplay1		0.0		
15	207.617	0.75	win-reward	StartDisplay				
15	208.369		win-reward	ImageDisplay2		0.0		
15	211.629	1.6	win-reward	ChoiceDisplay		0.0		
15	213.217	0.0	win-reward	ChosenDisplay		0.0		
15	213.234	0.25	win-reward	TurnDisplay				
15	213.468	0.75	win-reward	OutcomeDisplay				
16	214.22		win-noreward	ImageDisplay1		0.0		
16	216.477	0.75	win-noreward	StartDisplay				
16	217.229		win-noreward	ImageDisplay2		0.0		
16	220.221	1.6	win-noreward	ChoiceDisplay	1	0.696	1	1
16	220.94	0.904	win-noreward	ChosenDisplay		0.0		
16	221.826	0.25	win-noreward	TurnDisplay				
16	222.077	0.75	win-noreward	OutcomeDisplay				
17	222.829		win-reward	ImageDisplay1		0.0		
17	225.069	0.75	win-reward	StartDisplay				
17	225.821		win-reward	ImageDisplay2		0.0		
17	228.83	1.6	win-reward	ChoiceDisplay	1	0.994	1	1
17	229.85	0.606	win-reward	ChosenDisplay		0.0		
17	230.435	0.25	win-reward	TurnDisplay				
17	230.686	0.75	win-reward	OutcomeDisplay				
18	231.438		control-reward	ImageDisplay1		0.0		
18	233.678	0.75	control-reward	StartDisplay				
18	234.43		control-reward	ImageDisplay2		0.0		
18	237.439	1.6	control-reward	ChoiceDisplay	1	0.967	1	1
18	238.425	0.633	control-reward	ChosenDisplay		0.0		
18	239.044	0.25	control-reward	TurnDisplay				
18	239.295	0.75	control-reward	OutcomeDisplay				
19	240.047		control-reward	ImageDisplay1		0.0		
19	242.036	0.75	control-reward	StartDisplay				
19	242.788		control-reward	ImageDisplay2		0.0		
19	246.048	1.6	control-reward	ChoiceDisplay	1	0.979	1	1
19	247.051	0.621	control-reward	ChosenDisplay		0.0		
19	247.653	0.25	control-reward	TurnDisplay				
19	247.904	0.75	control-reward	OutcomeDisplay				
20	248.656		loss-noreward	ImageDisplay1		0.0		
20	250.896	0.75	loss-noreward	StartDisplay				
20	251.648		loss-noreward	ImageDisplay2		0.0		
20	254.657	1.6	loss-noreward	ChoiceDisplay	1	0.746	1	1
20	255.426	0.854	loss-noreward	ChosenDisplay		0.0		
20	256.262	0.25	loss-noreward	TurnDisplay				
20	256.513	0.75	loss-noreward	OutcomeDisplay				
21	257.265		win-reward	ImageDisplay1		0.0		
21	259.254	0.75	win-reward	StartDisplay				
21	260.007		win-reward	ImageDisplay2		0.0		
21	263.266	1.6	win-reward	ChoiceDisplay	1	0.898	1	1
21	264.186	0.702	win-reward	ChosenDisplay		0.0		
21	264.871	0.25	win-reward	TurnDisplay				
21	265.122	0.75	win-reward	OutcomeDisplay				
22	265.874		loss-noreward	ImageDisplay1		0.0		
22	267.863	0.75	loss-noreward	StartDisplay				
22	268.616		loss-noreward	ImageDisplay2		0.0		
22	271.875	1.6	loss-noreward	ChoiceDisplay	1	0.879	1	1
22	272.778	0.721	loss-noreward	ChosenDisplay		0.0		
22	273.48	0.25	loss-noreward	TurnDisplay				
22	273.731	0.75	loss-noreward	OutcomeDisplay				
23	274.483		control-reward	ImageDisplay1		0.0		
23	276.472	0.75	control-reward	StartDisplay				
23	277.225		control-reward	ImageDisplay2		0.0		
23	280.484	1.6	control-reward	ChoiceDisplay	1	1.178	1	1
23	281.688	0.422	control-reward	ChosenDisplay		0.0		
23	282.089	0.25	control-reward	TurnDisplay				
23	282.34	0.75	control-reward	OutcomeDisplay				
24	283.092		loss-reward	ImageDisplay1		0.0		
24	285.081	0.75	loss-reward	StartDisplay				
24	285.835		loss-reward	ImageDisplay2		0.0		
24	289.093	1.6	loss-reward	ChoiceDisplay	1	1.227	1	1
24	290.347	0.373	loss-reward	ChosenDisplay		0.0		
24	290.698	0.25	loss-reward	TurnDisplay				
24	290.949	0.75	loss-reward	OutcomeDisplay				
25	291.701		win-noreward	ImageDisplay1		0.0		
25	293.941	0.75	win-noreward	StartDisplay				
25	294.693		win-noreward	ImageDisplay2		0.0		
25	297.702	1.6	win-noreward	ChoiceDisplay	1	1.077	1	1
25	298.806	0.523	win-noreward	ChosenDisplay		0.0		
25	299.307	0.25	win-noreward	TurnDisplay				
25	299.558	0.75	win-noreward	OutcomeDisplay				
26	300.31		loss-reward	ImageDisplay1		0.0		
26	302.55	0.75	loss-reward	StartDisplay				
26	303.302		loss-reward	ImageDisplay2		0.0		
26	306.311	1.6	loss-reward	ChoiceDisplay	1	1.271	1	1
26	307.599	0.329	loss-reward	ChosenDisplay		0.0		
26	307.916	0.25	loss-reward	TurnDisplay				
26	308.167	0.75	loss-reward	OutcomeDisplay				
27	308.919		control-reward	ImageDisplay1		0.0		
27	310.908	0.75	control-reward	StartDisplay				
27	311.661		control-reward	ImageDisplay2		0.0		
27	314.92	1.6	control-reward	ChoiceDisplay		0.0		
27	316.509	0.0	control-reward	ChosenDisplay		0.0		
27	316.525	0.25	control-reward	TurnDisplay				
27	316.759	0.75	control-reward	OutcomeDisplay				
28	317.512		control-noreward	ImageDisplay1		0.0		
28	319.768	0.75	control-noreward	StartDisplay				
28	320.521		control-noreward	ImageDisplay2		0.0		
28	323.513	1.6	control-noreward	ChoiceDisplay	1	0.894	1	1
28	324.432	0.706	control-noreward	ChosenDisplay		0.0		
28	325.118	0.25	control-noreward	TurnDisplay				
28	325.368	0.75	control-noreward	OutcomeDisplay				
29	326.121		loss-reward	ImageDisplay1		0.0		
29	328.11	0.75	loss-reward	StartDisplay				
29	328.862		loss-reward	ImageDisplay2		0.0		
29	332.122	1.6	loss-reward	ChoiceDisplay	1	1.104	1	1
29	333.242	0.496	loss-reward	ChosenDisplay		0.0		
29	333.727	0.25	loss-reward	TurnDisplay				
29	333.977	0.75	loss-reward	OutcomeDisplay				
30	334.73		loss-reward	ImageDisplay1		0.0		
30	336.97	0.75	loss-reward	StartDisplay				
30	337.722		loss-reward	ImageDisplay2		0.0		
30	340.731	1.6	loss-reward	ChoiceDisplay	1	0.986	1	1
30	341.734	0.614	loss-reward	ChosenDisplay		0.0		
30	342.336	0.25	loss-reward	TurnDisplay				
30	342.586	0.75	loss-reward	OutcomeDisplay				
31	343.339		control-reward	ImageDisplay1		0.0		
31	345.345	0.75	control-reward	StartDisplay				
31	346.08		control-reward	ImageDisplay2		0.0		
31	349.34	1.6	control-reward	ChoiceDisplay	1	0.958	1	1
31	350.326	0.642	control-reward	ChosenDisplay		0.0		
31	350.945	0.25	control-reward	TurnDisplay				
31	351.196	0.75	control-reward	OutcomeDisplay				
32	351.948		control-reward	ImageDisplay1		0.0		
32	354.188	0.75	control-reward	StartDisplay				
32	354.94		control-reward	ImageDisplay2		0.0		
32	357.949	1.6	control-reward	ChoiceDisplay	1	1.098	1	1
32	359.069	0.502	control-reward	ChosenDisplay		0.0		
32	359.554	0.25	control-reward	TurnDisplay				
32	359.804	0.75	control-reward	OutcomeDisplay				
33	360.557		control-reward	ImageDisplay1		0.0		
33	362.546	0.75	control-reward	StartDisplay				
33	363.298		control-reward	ImageDisplay2		0.0		
33	366.558	1.6	control-reward	ChoiceDisplay	1	1.019	1	1
33	367.594	0.581	control-reward	ChosenDisplay		0.0		
33	368.163	0.25	control-reward	TurnDisplay				
33	368.413	0.75	control-reward	OutcomeDisplay				
34	369.166		control-reward	ImageDisplay1		0.0		
34	371.406	0.75	control-reward	StartDisplay				
34	372.158		control-reward	ImageDisplay2		0.0		
34	375.167	1.6	control-reward	ChoiceDisplay	1	1.012	1	1
34	376.203	0.588	control-reward	ChosenDisplay		0.0		
34	376.772	0.25	control-reward	TurnDisplay				
34	377.023	0.75	control-reward	OutcomeDisplay				
35	377.775		win-reward	ImageDisplay1		0.0		
35	379.764	0.75	win-reward	StartDisplay				
35	380.516		win-reward	ImageDisplay2		0.0		
35	383.776	1.6	win-reward	ChoiceDisplay	1	1.075	1	1
35	384.863	0.525	win-reward	ChosenDisplay		0.0		
35	385.381	0.25	win-reward	TurnDisplay				
35	385.632	0.75	win-reward	OutcomeDisplay				
36	386.384		win-reward	ImageDisplay1		0.0		
36	388.373	0.75	win-reward	StartDisplay				
36	389.125		win-reward	ImageDisplay2		0.0		
36	392.385	1.6	win-reward	ChoiceDisplay	1	1.14	1	1
36	393.539	0.46	win-reward	ChosenDisplay		0.0		
36	393.99	0.25	win-reward	TurnDisplay				
36	394.241	0.75	win-reward	OutcomeDisplay				
37	394.993		control-noreward	ImageDisplay1		0.0		
37	397.233	0.75	control-noreward	StartDisplay				
37	397.985		control-noreward	ImageDisplay2		0.0		
37	400.994	1.6	control-noreward	ChoiceDisplay	1	1.107	1	1
37	402.131	0.493	control-noreward	ChosenDisplay		0.0		
37	402.599	0.25	control-noreward	TurnDisplay				
37	402.85	0.75	control-noreward	OutcomeDisplay				
38	403.602		win-noreward	ImageDisplay1		0.0		
38	405.842	0.75	win-noreward	StartDisplay				
38	406.594		win-noreward	ImageDisplay2		0.0		
38	409.603	1.6	win-noreward	ChoiceDisplay	1	1.08	1	1
38	410.706	0.52	win-noreward	ChosenDisplay		0.0		
38	411.208	0.25	win-noreward	TurnDisplay				
38	411.459	0.75	win-noreward	OutcomeDisplay				
39	412.211		control-noreward	ImageDisplay1		0.0		
39	414.2	0.75	control-noreward	StartDisplay				
39	414.969		control-noreward	ImageDisplay2		0.0		
39	418.212	1.6	control-noreward	ChoiceDisplay	1	1.565	1	1
39	419.784	0.0	control-noreward	ChosenDisplay		0.0		
39	419.817	0.25	control-noreward	TurnDisplay				
39	420.034	0.75	control-noreward	OutcomeDisplay				
40	420.787		control-reward	ImageDisplay1		0.0		
40	423.027	0.75	control-reward	StartDisplay				
40	423.779		control-reward	ImageDisplay2		0.0		
40	426.788	1.6	control-reward	ChoiceDisplay	1	1.033	1	1
40	427.841	0.567	control-reward	ChosenDisplay		0.0		
40	428.393	0.25	control-reward	TurnDisplay				
40	428.643	0.75	control-reward	OutcomeDisplay				
41	429.396		win-noreward	ImageDisplay1		0.0		
41	431.385	0.75	win-noreward	StartDisplay				
41	432.137		win-noreward	ImageDisplay2		0.0		
41	435.397	1.6	win-noreward	ChoiceDisplay	1	0.92	1	1
41	436.333	0.68	win-noreward	ChosenDisplay		0.0		
41	437.002	0.25	win-noreward	TurnDisplay				
41	437.252	0.75	win-noreward	OutcomeDisplay				
42	438.005		loss-reward	ImageDisplay1		0.0		
42	440.245	0.75	loss-reward	StartDisplay				
42	440.997		loss-reward	ImageDisplay2		0.0		
42	444.006	1.6	loss-reward	ChoiceDisplay	1	1.108	1	1
42	445.143	0.492	loss-reward	ChosenDisplay		0.0		
42	445.611	0.25	loss-reward	TurnDisplay				
42	445.861	0.75	loss-reward	OutcomeDisplay				
43	446.614		control-reward	ImageDisplay1		0.0		
43	448.854	0.75	control-reward	StartDisplay				
43	449.606		control-reward	ImageDisplay2		0.0		
43	452.615	1.6	control-reward	ChoiceDisplay	1	0.809	1	1
43	453.451	0.791	control-reward	ChosenDisplay		0.0		
43	454.22	0.25	control-reward	TurnDisplay				
43	454.47	0.75	control-reward	OutcomeDisplay				
44	455.223		loss-reward	ImageDisplay1		0.0		
44	457.212	0.75	loss-reward	StartDisplay				
44	457.964		loss-reward	ImageDisplay2		0.0		
44	461.224	1.6	loss-reward	ChoiceDisplay	1	1.348	1	1
44	462.595	0.252	loss-reward	ChosenDisplay		0.0		
44	462.829	0.25	loss-reward	TurnDisplay				
44	463.079	0.75	loss-reward	OutcomeDisplay				
45	463.832		control-noreward	ImageDisplay1		0.0		
45	465.821	0.75	control-noreward	StartDisplay				
45	466.573		control-noreward	ImageDisplay2		0.0		
45	469.833	1.6	control-noreward	ChoiceDisplay	1	1.264	1	1
45	471.12	0.336	control-noreward	ChosenDisplay		0.0		
45	471.438	0.25	control-noreward	TurnDisplay				
45	471.689	0.75	control-noreward	OutcomeDisplay				
46	472.441		win-noreward	ImageDisplay1		0.0		
46	474.43	0.75	win-noreward	StartDisplay				
46	475.182		win-noreward	ImageDisplay2		0.0		
46	478.442	1.6	win-noreward	ChoiceDisplay	1	1.077	1	1
46	479.545	0.523	win-noreward	ChosenDisplay		0.0		
46	480.047	0.25	win-noreward	TurnDisplay				
46	480.298	0.75	win-noreward	OutcomeDisplay				
47	481.05		win-noreward	ImageDisplay1		0.0		
47	483.29	0.75	win-noreward	StartDisplay				
47	484.042		win-noreward	ImageDisplay2		0.0		
47	487.051	1.6	win-noreward	ChoiceDisplay	1	1.123	1	1
47	488.188	0.477	win-noreward	ChosenDisplay		0.0		
47	488.656	0.25	win-noreward	TurnDisplay				
47	488.907	0.75	win-noreward	OutcomeDisplay				
48	489.659		control-noreward	ImageDisplay1		0.0		
48	491.899	0.75	control-noreward	StartDisplay				
48	492.651		control-noreward	ImageDisplay2		0.0		
48	495.66	1.6	control-noreward	ChoiceDisplay	1	1.434	1	1
48	497.114	0.166	control-noreward	ChosenDisplay		0.0		
48	497.265	0.25	control-noreward	TurnDisplay				
48	497.516	0.75	control-noreward	OutcomeDisplay				
49	498.268		win-noreward	ImageDisplay1		0.0		
49	500.257	0.75	win-noreward	StartDisplay				
49	501.009		win-noreward	ImageDisplay2		0.0		
49	504.269	1.6	win-noreward	ChoiceDisplay	1	1.17	1	1
49	505.456	0.43	win-noreward	ChosenDisplay		0.0		
49	505.874	0.25	win-noreward	TurnDisplay				
49	506.125	0.75	win-noreward	OutcomeDisplay				
50	506.877		win-reward	ImageDisplay1		0.0		
50	508.883	0.75	win-reward	StartDisplay				
50	509.618		win-reward	ImageDisplay2		0.0		
50	512.878	1.6	win-reward	ChoiceDisplay	1	0.601	1	1
50	513.497	0.999	win-reward	ChosenDisplay		0.0		
50	514.483	0.25	win-reward	TurnDisplay				
50	514.734	0.75	win-reward	OutcomeDisplay				
51	515.486		control-noreward	ImageDisplay1		0.0		
51	517.726	0.75	control-noreward	StartDisplay				
51	518.478		control-noreward	ImageDisplay2		0.0		
51	521.487	1.6	control-noreward	ChoiceDisplay	1	1.172	1	1
51	522.674	0.428	control-noreward	ChosenDisplay		0.0		
51	523.092	0.25	control-noreward	TurnDisplay				
51	523.343	0.75	control-noreward	OutcomeDisplay				
52	524.095		win-reward	ImageDisplay1		0.0		
52	526.084	0.75	win-reward	StartDisplay				
52	526.837		win-reward	ImageDisplay2		0.0		
52	530.096	1.6	win-reward	ChoiceDisplay	1	0.853	1	1
52	530.965	0.747	win-reward	ChosenDisplay		0.0		
52	531.701	0.25	win-reward	TurnDisplay				
52	531.952	0.75	win-reward	OutcomeDisplay				
53	532.704		loss-reward	ImageDisplay1		0.0		
53	534.944	0.75	loss-reward	StartDisplay				
53	535.696		loss-reward	ImageDisplay2		0.0		
53	538.705	1.6	loss-reward	ChoiceDisplay	1	0.932	1	1
53	539.658	0.668	loss-reward	ChosenDisplay		0.0		
53	540.31	0.25	loss-reward	TurnDisplay				
53	540.561	0.75	loss-reward	OutcomeDisplay				
54	541.313		win-noreward	ImageDisplay1		0.0		
54	543.553	0.75	win-noreward	StartDisplay				
54	544.305		win-noreward	ImageDisplay2		0.0		
54	547.314	1.6	win-noreward	ChoiceDisplay	1	0.669	1	1
54	548.0	0.931	win-noreward	ChosenDisplay		0.0		
54	548.919	0.25	win-noreward	TurnDisplay				
54	549.17	0.75	win-noreward	OutcomeDisplay				
55	549.922		loss-noreward	ImageDisplay1		0.0		
55	551.911	0.75	loss-noreward	StartDisplay				
55	552.664		loss-noreward	ImageDisplay2		0.0		
55	555.923	1.6	loss-noreward	ChoiceDisplay	1	1.088	1	1
55	557.027	0.512	loss-noreward	ChosenDisplay		0.0		
55	557.528	0.25	loss-noreward	TurnDisplay				
55	557.779	0.75	loss-noreward	OutcomeDisplay				
56	558.531		loss-reward	ImageDisplay1		0.0		
56	560.52	0.75	loss-reward	StartDisplay				
56	561.273		loss-reward	ImageDisplay2		0.0		
56	564.532	1.6	loss-reward	ChoiceDisplay	1	1.114	1	1
56	565.669	0.486	loss-reward	ChosenDisplay		0.0		
56	566.137	0.25	loss-reward	TurnDisplay				
56	566.388	0.75	loss-reward	OutcomeDisplay				
57	567.14		win-reward	ImageDisplay1		0.0		
57	569.129	0.75	win-reward	StartDisplay				
57	569.882		win-reward	ImageDisplay2		0.0		
57	573.141	1.6	win-reward	ChoiceDisplay	1	1.192	1	1
57	574.362	0.408	win-reward	ChosenDisplay		0.0		
57	574.746	0.25	win-reward	TurnDisplay				
57	574.997	0.75	win-reward	OutcomeDisplay				
58	575.749		loss-reward	ImageDisplay1		0.0		
58	577.989	0.75	loss-reward	StartDisplay				
58	578.742		loss-reward	ImageDisplay2		0.0		
58	581.75	1.6	loss-reward	ChoiceDisplay	1	1.063	1	1
58	582.837	0.537	loss-reward	ChosenDisplay		0.0		
58	583.355	0.25	loss-reward	TurnDisplay				
58	583.606	0.75	loss-reward	OutcomeDisplay				
59	584.358		control-noreward	ImageDisplay1		0.0		
59	586.348	0.75	control-noreward	StartDisplay				
59	587.1		control-noreward	ImageDisplay2		0.0		
59	590.36	1.6	control-noreward	ChoiceDisplay	1	1.263	1	1
59	591.647	0.337	control-noreward	ChosenDisplay		0.0		
59	591.964	0.25	control-noreward	TurnDisplay				
59	592.215	0.75	control-noreward	OutcomeDisplay				
60	592.967		win-reward	ImageDisplay1		0.0		
60	594.957	0.75	win-reward	StartDisplay				
60	595.709		win-reward	ImageDisplay2		0.0		
60	598.969	1.6	win-reward	ChoiceDisplay	1	1.199	1	1
60	600.189	0.401	win-reward	ChosenDisplay		0.0		
60	600.573	0.25	win-reward	TurnDisplay				
60	600.824	0.75	win-reward	OutcomeDisplay				
61	601.576		win-noreward	ImageDisplay1		0.0		
61	603.566	0.75	win-noreward	StartDisplay				
61	604.318		win-noreward	ImageDisplay2		0.0		
61	607.578	1.6	win-noreward	ChoiceDisplay	1	1.199	1	1
61	608.798	0.401	win-noreward	ChosenDisplay		0.0		
61	609.182	0.25	win-noreward	TurnDisplay				
61	609.433	0.75	win-noreward	OutcomeDisplay				
62	610.185		loss-reward	ImageDisplay1		0.0		
62	612.175	0.75	loss-reward	StartDisplay				
62	612.927		loss-reward	ImageDisplay2		0.0		
62	616.187	1.6	loss-reward	ChoiceDisplay	1	1.444	1	1
62	617.658	0.156	loss-reward	ChosenDisplay		0.0		
62	617.791	0.25	loss-reward	TurnDisplay				
62	618.042	0.75	loss-reward	OutcomeDisplay				
63	618.794		win-noreward	ImageDisplay1		0.0		
63	620.784	0.75	win-noreward	StartDisplay				
63	621.536		win-noreward	ImageDisplay2		0.0		
63	624.796	1.6	win-noreward	ChoiceDisplay	1	1.259	1	1
63	626.083	0.341	win-noreward	ChosenDisplay		0.0		
63	626.4	0.25	win-noreward	TurnDisplay				
63	626.651	0.75	win-noreward	OutcomeDisplay				
64	627.403		loss-noreward	ImageDisplay1		0.0		
64	629.393	0.75	loss-noreward	StartDisplay				
64	630.145		loss-noreward	ImageDisplay2		0.0		
64	633.405	1.6	loss-noreward	ChoiceDisplay	1	1.257	1	1
64	634.675	0.343	loss-noreward	ChosenDisplay		0.0		
64	635.009	0.25	loss-noreward	TurnDisplay				
64	635.26	0.75	loss-noreward	OutcomeDisplay				
65	636.012		loss-reward	ImageDisplay1		0.0		
65	638.002	0.75	loss-reward	StartDisplay				
65	638.754		loss-reward	ImageDisplay2		0.0		
65	642.014	1.6	loss-reward	ChoiceDisplay	1	1.491	1	1
65	643.518	0.109	loss-reward	ChosenDisplay		0.0		
65	643.635	0.25	loss-reward	TurnDisplay				
65	643.869	0.75	loss-reward	OutcomeDisplay				
66	644.622		loss-noreward	ImageDisplay1		0.0		
66	646.878	0.75	loss-noreward	StartDisplay				
66	647.63		loss-noreward	ImageDisplay2		0.0		
66	650.623	1.6	loss-noreward	ChoiceDisplay	1	1.512	1	1
66	652.144	0.0	loss-noreward	ChosenDisplay		0.0		
66	652.228	0.25	loss-noreward	TurnDisplay				
66	652.395	0.75	loss-noreward	OutcomeDisplay				
67	653.147		control-noreward	ImageDisplay1		0.0		
67	655.387	0.75	control-noreward	StartDisplay				
67	656.139		control-noreward	ImageDisplay2		0.0		
67	659.148	1.6	control-noreward	ChoiceDisplay	1	1.274	1	1
67	660.435	0.326	control-noreward	ChosenDisplay		0.0		
67	660.753	0.25	control-noreward	TurnDisplay				
67	661.004	0.75	control-noreward	OutcomeDisplay				
68	661.756		control-noreward	ImageDisplay1		0.0		
68	663.996	0.75	control-noreward	StartDisplay				
68	664.748		control-noreward	ImageDisplay2		0.0		
68	667.757	1.6	control-noreward	ChoiceDisplay	1	1.053	1	1
68	668.827	0.547	control-noreward	ChosenDisplay		0.0		
68	669.362	0.25	control-noreward	TurnDisplay				
68	669.613	0.75	control-noreward	OutcomeDisplay				
69	670.365		loss-noreward	ImageDisplay1		0.0		
69	672.354	0.75	loss-noreward	StartDisplay				
69	673.107		loss-noreward	ImageDisplay2		0.0		
69	676.366	1.6	loss-noreward	ChoiceDisplay	1	1.137	1	1
69	677.52	0.463	loss-noreward	ChosenDisplay		0.0		
69	677.971	0.25	loss-noreward	TurnDisplay				
69	678.222	0.75	loss-noreward	OutcomeDisplay				
70	678.974		loss-reward	ImageDisplay1		0.0		
70	680.963	0.75	loss-reward	StartDisplay				
70	681.716		loss-reward	ImageDisplay2		0.0		
70	684.975	1.6	loss-reward	ChoiceDisplay	1	0.907	1	1
70	685.911	0.693	loss-reward	ChosenDisplay		0.0		
70	686.58	0.25	loss-reward	TurnDisplay				
70	686.848	0.75	loss-reward	OutcomeDisplay				
71	687.583		loss-noreward	ImageDisplay1		0.0		
71	689.823	0.75	loss-noreward	StartDisplay				
71	690.575		loss-noreward	ImageDisplay2		0.0		
71	693.584	1.6	loss-noreward	ChoiceDisplay	1	1.146	1	1
71	694.755	0.454	loss-noreward	ChosenDisplay		0.0		
71	695.189	0.25	loss-noreward	TurnDisplay				
71	695.44	0.75	loss-noreward	OutcomeDisplay				
72	696.192		win-noreward	ImageDisplay1		0.0		
72	698.432	0.75	win-noreward	StartDisplay				
72	699.184		win-noreward	ImageDisplay2		0.0		
72	702.193	1.6	win-noreward	ChoiceDisplay	1	1.247	1	1
72	703.464	0.353	win-noreward	ChosenDisplay		0.0		
72	703.798	0.25	win-noreward	TurnDisplay				
72	704.049	0.75	win-noreward	OutcomeDisplay				
73	704.801		loss-noreward	ImageDisplay1		0.0		
73	707.041	0.75	loss-noreward	StartDisplay				
73	707.793		loss-noreward	ImageDisplay2		0.0		
73	710.802	1.6	loss-noreward	ChoiceDisplay	1	1.295	1	1
73	712.123	0.305	loss-noreward	ChosenDisplay		0.0		
73	712.407	0.25	loss-noreward	TurnDisplay				
73	712.658	0.75	loss-noreward	OutcomeDisplay				
74	713.41		loss-reward	ImageDisplay1		0.0		
74	715.399	0.75	loss-reward	StartDisplay				
74	716.152		loss-reward	ImageDisplay2		0.0		
74	719.411	1.6	loss-reward	ChoiceDisplay	1	1.443	1	1
74	720.883	0.157	loss-reward	ChosenDisplay		0.0		
74	721.016	0.25	loss-reward	TurnDisplay				
74	721.267	0.75	loss-reward	OutcomeDisplay				
75	722.019		control-reward	ImageDisplay1		0.0		
75	724.259	0.75	control-reward	StartDisplay				
75	725.012		control-reward	ImageDisplay2		0.0		
75	728.02	1.6	control-reward	ChoiceDisplay	1	0.962	1	1
75	729.007	0.638	control-reward	ChosenDisplay		0.0		
75	729.625	0.25	control-reward	TurnDisplay				
75	729.876	0.75	control-reward	OutcomeDisplay				
76	730.628		win-reward	ImageDisplay1		0.0		
76	732.868	0.75	win-reward	StartDisplay				
76	733.623		win-reward	ImageDisplay2		0.0		
76	736.63	1.6	win-reward	ChoiceDisplay	1	1.157	1	1
76	737.8	0.443	win-reward	ChosenDisplay		0.0		
76	738.234	0.25	win-reward	TurnDisplay				
76	738.485	0.75	win-reward	OutcomeDisplay				
77	739.237		control-noreward	ImageDisplay1		0.0		
77	741.227	0.75	control-noreward	StartDisplay				
77	741.979		control-noreward	ImageDisplay2		0.0		
77	745.239	1.6	control-noreward	ChoiceDisplay	1	1.156	1	1
77	746.409	0.444	control-noreward	ChosenDisplay		0.0		
77	746.843	0.25	control-noreward	TurnDisplay				
77	747.094	0.75	control-noreward	OutcomeDisplay				
78	747.846		win-reward	ImageDisplay1		0.0		
78	750.086	0.75	win-reward	StartDisplay				
78	750.839		win-reward	ImageDisplay2		0.0		
78	753.848	1.6	win-reward	ChoiceDisplay	1	1.254	1	1
78	755.118	0.346	win-reward	ChosenDisplay		0.0		
78	755.452	0.25	win-reward	TurnDisplay				
78	755.703	0.75	win-reward	OutcomeDisplay				
79	756.455		win-noreward	ImageDisplay1		0.0		
79	758.695	0.75	win-noreward	StartDisplay				
79	759.448		win-noreward	ImageDisplay2		0.0		
79	762.457	1.6	win-noreward	ChoiceDisplay	1	1.412	1	1
79	763.894	0.188	win-noreward	ChosenDisplay		0.0		
79	764.061	0.25	win-noreward	TurnDisplay				
79	764.312	0.75	win-noreward	OutcomeDisplay				
80	765.064		win-reward	ImageDisplay1		0.0		
80	767.304	0.75	win-reward	StartDisplay				
80	768.057		win-reward	ImageDisplay2		0.0		
80	771.066	1.6	win-reward	ChoiceDisplay	1	1.186	1	1
80	772.269	0.414	win-reward	ChosenDisplay		0.0		
80	772.67	0.25	win-reward	TurnDisplay				
80	772.921	0.75	win-reward	OutcomeDisplay				
81	773.674		control-noreward	ImageDisplay1		0.0		
81	775.663	0.75	control-noreward	StartDisplay				
81	776.415		control-noreward	ImageDisplay2		0.0		
81	779.675	1.6	control-noreward	ChoiceDisplay	1	1.245	1	1
81	780.945	0.355	control-noreward	ChosenDisplay		0.0		
81	781.28	0.25	control-noreward	TurnDisplay				
81	781.53	0.75	control-noreward	OutcomeDisplay				
82	782.283		win-noreward	ImageDisplay1		0.0		
82	784.272	0.75	win-noreward	StartDisplay				
82	785.041		win-noreward	ImageDisplay2		0.0		
82	788.284	1.6	win-noreward	ChoiceDisplay	1	1.092	1	1
82	789.404	0.508	win-noreward	ChosenDisplay		0.0		
82	789.889	0.25	win-noreward	TurnDisplay				
82	790.139	0.75	win-noreward	OutcomeDisplay				
83	790.892		loss-noreward	ImageDisplay1		0.0		
83	792.881	0.75	loss-noreward	StartDisplay				
83	793.633		loss-noreward	ImageDisplay2		0.0		
83	796.893	1.6	loss-noreward	ChoiceDisplay	1	1.019	1	1
83	797.929	0.581	loss-noreward	ChosenDisplay		0.0		
83	798.498	0.25	loss-noreward	TurnDisplay				
83	798.748	0.75	loss-noreward	OutcomeDisplay				
84	799.501		win-reward	ImageDisplay1		0.0		
84	801.741	0.75	win-reward	StartDisplay				
84	802.493		win-reward	ImageDisplay2		0.0		
84	805.502	1.6	win-reward	ChoiceDisplay	1	1.268	1	1
84	806.789	0.332	win-reward	ChosenDisplay		0.0		
84	807.107	0.25	win-reward	TurnDisplay				
84	807.357	0.75	win-reward	OutcomeDisplay				
85	808.11		control-noreward	ImageDisplay1		0.0		
85	810.099	0.75	control-noreward	StartDisplay				
85	810.851		control-noreward	ImageDisplay2		0.0		
85	814.111	1.6	control-noreward	ChoiceDisplay	1	1.563	1	1
85	815.682	0.0	control-noreward	ChosenDisplay		0.0		
85	815.716	0.25	control-noreward	TurnDisplay				
85	815.933	0.75	control-noreward	OutcomeDisplay				
86	816.685		loss-reward	ImageDisplay1		0.0		
86	818.925	0.75	loss-reward	StartDisplay				
86	819.677		loss-reward	ImageDisplay2		0.0		
86	822.687	1.6	loss-reward	ChoiceDisplay	1	1.163	1	1
86	823.873	0.437	loss-reward	ChosenDisplay		0.0		
86	824.291	0.25	loss-reward	TurnDisplay				
86	824.542	0.75	loss-reward	OutcomeDisplay				
87	825.294		control-noreward	ImageDisplay1		0.0		
87	827.534	0.75	control-noreward	StartDisplay				
87	828.287		control-noreward	ImageDisplay2		0.0		
87	831.296	1.6	control-noreward	ChoiceDisplay	1	1.164	1	1
87	832.482	0.436	control-noreward	ChosenDisplay		0.0		
87	832.9	0.25	control-noreward	TurnDisplay				
87	833.151	0.75	control-noreward	OutcomeDisplay				
88	833.903		loss-reward	ImageDisplay1		0.0		
88	836.143	0.75	loss-reward	StartDisplay				
88	836.896		loss-reward	ImageDisplay2		0.0		
88	839.905	1.6	loss-reward	ChoiceDisplay	1	1.098	1	1
88	841.025	0.502	loss-reward	ChosenDisplay		0.0		
88	841.509	0.25	loss-reward	TurnDisplay				
88	841.76	0.75	loss-reward	OutcomeDisplay				
89	842.512		loss-noreward	ImageDisplay1		0.0		
89	844.502	0.75	loss-noreward	StartDisplay				
89	845.254		loss-noreward	ImageDisplay2		0.0		
89	848.514	1.6	loss-noreward	ChoiceDisplay	1	1.075	1	1
89	849.617	0.525	loss-noreward	ChosenDisplay		0.0		
89	850.118	0.25	loss-noreward	TurnDisplay				
89	850.369	0.75	loss-noreward	OutcomeDisplay				
90	851.121		loss-noreward	ImageDisplay1		0.0		
90	853.361	0.75	loss-noreward	StartDisplay				
90	854.114		loss-noreward	ImageDisplay2		0.0		
90	857.123	1.6	loss-noreward	ChoiceDisplay	1	1.115	1	1
90	858.259	0.485	loss-noreward	ChosenDisplay		0.0		
90	858.727	0.25	loss-noreward	TurnDisplay				
90	858.978	0.75	loss-noreward	OutcomeDisplay				
91	859.73		control-noreward	ImageDisplay1		0.0		
91	861.97	0.75	control-noreward	StartDisplay				
91	862.723		control-noreward	ImageDisplay2		0.0		
91	865.732	1.6	control-noreward	ChoiceDisplay	1	1.338	1	1
91	867.086	0.262	control-noreward	ChosenDisplay		0.0		
91	867.336	0.25	control-noreward	TurnDisplay				
91	867.587	0.75	control-noreward	OutcomeDisplay				
92	868.339		loss-noreward	ImageDisplay1		0.0		
92	870.329	0.75	loss-noreward	StartDisplay				
92	871.081		loss-noreward	ImageDisplay2		0.0		
92	874.341	1.6	loss-noreward	ChoiceDisplay	1	1.315	1	1
92	875.678	0.285	loss-noreward	ChosenDisplay		0.0		
92	875.946	0.25	loss-noreward	TurnDisplay				
92	876.196	0.75	loss-noreward	OutcomeDisplay				
93	876.948		control-reward	ImageDisplay1		0.0		
93	879.188	0.75	control-reward	StartDisplay				
93	879.941		control-reward	ImageDisplay2		0.0		
93	882.95	1.6	control-reward	ChoiceDisplay	1	1.311	1	1
93	884.287	0.289	control-reward	ChosenDisplay		0.0		
93	884.555	0.25	control-reward	TurnDisplay				
93	884.805	0.75	control-reward	OutcomeDisplay				
94	885.558		control-reward	ImageDisplay1		0.0		
94	887.564	0.75	control-reward	StartDisplay				
94	888.299		control-reward	ImageDisplay2		0.0		
94	891.559	1.6	control-reward	ChoiceDisplay	1	0.898	1	1
94	892.478	0.702	control-reward	ChosenDisplay		0.0		
94	893.164	0.25	control-reward	TurnDisplay				
94	893.414	0.75	control-reward	OutcomeDisplay				
95	894.167		win-reward	ImageDisplay1		0.0		
95	896.407	0.75	win-reward	StartDisplay				
95	897.159		win-reward	ImageDisplay2		0.0		
95	900.168	1.6	win-reward	ChoiceDisplay	1	1.302	1	1
95	901.488	0.298	win-reward	ChosenDisplay		0.0		
95	901.773	0.25	win-reward	TurnDisplay				
95	902.023	0.75	win-reward	OutcomeDisplay				
