onset	duration	trial_type	response_time	stim_file	accuracy
54.468	1.0	go	0.46	Go_X	1.0
57.026	1.0	go	0.442	Go_O	0.0
59.567	1.0	go	0.359	Go_X	0.0
62.091	1.0	go	0.353	Go_O	0.0
64.615	1.0	go	0.421	Go_O	0.0
67.139	1.0	go	0.38	Go_X	0.0
69.663	0.25	stopsuccess	0.0	Go_O	1.0
72.188	1.0	go	0.386	Go_X	0.0
74.729	0.3	stopfail	0.425	Go_X	0.0
77.269	1.0	go	0.418	Go_O	0.0
79.794	1.0	go	0.511	Go_X	0.0
82.318	1.0	go	0.455	Go_O	0.0
84.842	0.25	stopsuccess	0.0	Go_O	1.0
87.383	1.0	go	0.438	Go_O	0.0
89.907	1.0	go	0.386	Go_X	0.0
92.432	0.3	stopfail	0.374	Go_X	0.0
94.973	0.25	stopsuccess	0.0	Go_O	1.0
97.514	1.0	go	0.325	Go_O	0.0
100.038	1.0	go	0.421	Go_X	0.0
102.562	0.3	stopfail	0.349	Go_X	0.0
105.086	1.0	go	0.608	Go_X	0.0
107.61	1.0	go	0.527	Go_O	0.0
110.135	0.25	stopsuccess	0.0	Go_O	1.0
112.676	1.0	go	0.36	Go_O	0.0
115.2	1.0	go	0.42	Go_X	0.0
117.724	0.3	stopfail	0.423	Go_X	0.0
120.248	1.0	go	0.423	Go_O	0.0
122.772	1.0	go	0.403	Go_X	0.0
125.297	0.25	stopsuccess	0.0	Go_O	1.0
127.838	1.0	go	0.591	Go_X	0.0
130.362	1.0	go	0.381	Go_O	0.0
132.903	1.0	go	0.346	Go_X	0.0
135.444	1.0	go	0.299	Go_O	0.0
137.972	1.0	go	0.428	Go_O	0.0
140.509	0.3	stopfail	0.447	Go_X	0.0
143.033	1.0	go	0.572	Go_X	0.0
145.557	1.0	go	0.422	Go_O	0.0
148.082	1.0	go	0.612	Go_X	0.0
150.606	1.0	go	0.552	Go_O	0.0
153.131	1.0	go	0.541	Go_X	0.0
155.654	0.25	stopsuccess	0.0	Go_O	1.0
158.178	1.0	go	0.339	Go_X	0.0
160.703	1.0	go	0.455	Go_O	0.0
163.227	1.0	go	0.474	Go_X	0.0
165.751	1.0	go	0.613	Go_O	0.0
168.275	1.0	go	0.748	Go_O	0.0
170.8	1.0	go	0.518	Go_X	0.0
173.324	0.3	stopfail	0.446	Go_X	0.0
175.865	1.0	go	0.406	Go_O	0.0
178.389	1.0	go	0.35	Go_X	0.0
180.913	0.25	stopfail	0.349	Go_O	0.0
183.437	1.0	go	0.335	Go_X	0.0
185.962	0.2	stopfail	0.312	Go_X	0.0
188.503	0.15	stopsuccess	0.0	Go_O	1.0
191.027	1.0	go	0.354	Go_O	0.0
193.551	1.0	go	0.405	Go_O	0.0
196.092	1.0	go	0.418	Go_X	0.0
198.616	1.0	go	0.325	Go_X	0.0
201.14	0.2	stopsuccess	0.0	Go_X	1.0
203.665	1.0	go	0.417	Go_O	0.0
206.189	0.25	stopfail	0.385	Go_O	0.0
208.713	1.0	go	0.531	Go_X	0.0
211.237	1.0	go	0.505	Go_O	0.0
213.762	1.0	go	0.415	Go_O	0.0
216.286	1.0	go	0.507	Go_X	0.0
218.81	1.0	go	0.331	Go_O	0.0
221.334	1.0	go	0.322	Go_X	0.0
223.858	1.0	go	0.396	Go_X	0.0
226.383	1.0	go	0.341	Go_O	0.0
228.907	1.0	go	0.45	Go_X	0.0
231.431	0.2	stopfail	0.318	Go_X	0.0
233.955	1.0	go	0.387	Go_O	0.0
236.48	1.0	go	0.441	Go_X	0.0
239.021	1.0	go	0.304	Go_O	0.0
241.545	0.15	stopsuccess	0.0	Go_O	1.0
244.069	1.0	go	0.394	Go_X	0.0
246.593	1.0	go	0.416	Go_O	0.0
249.117	1.0	go	0.513	Go_O	0.0
251.642	1.0	go	0.719	Go_X	0.0
254.183	1.0	go	0.469	Go_O	0.0
256.707	1.0	go	0.395	Go_X	0.0
259.248	0.2	stopsuccess	0.0	Go_X	1.0
261.772	1.0	go	0.544	Go_O	1.0
264.296	1.0	go	0.405	Go_X	0.0
266.82	0.25	stopfail	0.537	Go_O	0.0
269.361	1.0	go	0.397	Go_O	0.0
271.886	1.0	go	0.449	Go_X	0.0
274.41	0.2	stopsuccess	0.0	Go_X	1.0
276.934	1.0	go	0.444	Go_O	0.0
279.458	0.25	stopsuccess	0.0	Go_O	1.0
281.982	1.0	go	0.324	Go_X	0.0
284.507	1.0	go	0.418	Go_O	0.0
287.031	1.0	go	0.333	Go_X	0.0
289.555	1.0	go	0.396	Go_X	0.0
292.079	1.0	go	0.403	Go_O	0.0
294.604	0.3	stopsuccess	0.0	Go_X	1.0
297.145	0.35	stopfail	0.354	Go_O	0.0
299.669	1.0	go	0.563	Go_O	0.0
302.193	1.0	go	0.347	Go_X	0.0
304.717	0.3	stopfail	0.398	Go_X	0.0
307.241	1.0	go	0.375	Go_X	0.0
309.766	1.0	go	0.375	Go_O	0.0
312.29	1.0	go	0.374	Go_X	0.0
314.814	1.0	go	0.515	Go_O	0.0
317.338	1.0	go	0.397	Go_X	0.0
319.863	1.0	go	0.533	Go_O	0.0
322.387	0.25	stopfail	0.512	Go_O	0.0
324.911	1.0	go	0.475	Go_O	0.0
327.435	1.0	go	0.363	Go_X	0.0
329.959	1.0	go	0.363	Go_O	0.0
332.484	1.0	go	0.636	Go_X	0.0
335.008	1.0	go	0.526	Go_O	0.0
337.532	0.2	stopsuccess	0.0	Go_X	1.0
340.056	1.0	go	0.446	Go_X	0.0
342.581	1.0	go	0.469	Go_O	0.0
345.105	1.0	go	0.547	Go_X	0.0
347.629	1.0	go	0.591	Go_O	0.0
350.153	0.25	stopfail	0.489	Go_O	0.0
352.677	1.0	go	0.637	Go_X	0.0
355.202	1.0	go	0.437	Go_X	0.0
357.726	0.2	stopfail	0.396	Go_X	0.0
360.25	1.0	go	0.442	Go_O	0.0
362.774	0.15	stopsuccess	0.0	Go_O	1.0
365.299	1.0	go	0.335	Go_X	0.0
367.84	1.0	go	0.404	Go_O	0.0
370.364	1.0	go	0.411	Go_X	0.0
372.888	1.0	go	0.643	Go_O	0.0
375.412	1.0	go	0.385	Go_X	0.0
377.936	1.0	go	0.447	Go_O	0.0
380.461	1.0	go	0.416	Go_O	0.0
382.985	0.2	stopsuccess	0.0	Go_X	1.0
385.509	1.0	go	0.406	Go_X	0.0
388.033	1.0	go	0.466	Go_O	0.0
390.558	1.0	go	0.367	Go_X	0.0
393.082	0.25	stopfail	0.379	Go_O	0.0
395.606	1.0	go	0.407	Go_O	0.0
398.13	1.0	go	0.336	Go_X	0.0
400.654	1.0	go	0.349	Go_O	0.0
403.179	1.0	go	0.45	Go_X	0.0
405.703	0.2	stopfail	0.578	Go_X	0.0
408.227	1.0	go	0.363	Go_X	1.0
410.751	1.0	go	0.443	Go_O	0.0
413.276	0.15	stopfail	0.467	Go_O	0.0
415.817	1.0	go	0.37	Go_X	0.0
418.341	1.0	go	0.443	Go_O	0.0
420.865	0.1	stopfail	0.297	Go_X	0.0
423.389	1.0	go	0.528	Go_X	0.0
425.913	1.0	go	0.56	Go_O	0.0
428.438	0.05	stopsuccess	0.0	Go_O	1.0
430.979	1.0	go	0.364	Go_X	0.0
433.503	1.0	go	0.388	Go_O	0.0
436.027	1.0	go	0.455	Go_O	0.0
438.551	1.0	go	0.469	Go_X	0.0
441.075	1.0	go	0.504	Go_O	0.0
443.6	1.0	go	0.365	Go_X	0.0
446.124	0.1	stopsuccess	0.0	Go_X	1.0
448.648	1.0	go	0.4	Go_O	0.0
451.172	0.15	stopfail	0.398	Go_O	0.0
453.697	1.0	go	0.382	Go_X	0.0
456.238	1.0	go	0.791	Go_X	0.0
458.762	1.0	go	0.376	Go_O	0.0
461.286	1.0	go	0.358	Go_O	0.0
463.81	1.0	go	0.551	Go_X	1.0
466.334	0.1	stopsuccess	0.0	Go_X	1.0
468.859	1.0	go	0.341	Go_X	0.0
471.383	1.0	go	0.332	Go_O	0.0
473.907	1.0	go	0.365	Go_X	0.0
476.431	0.15	stopfail	0.475	Go_O	0.0
478.956	0.1	stopsuccess	0.0	Go_X	1.0
481.48	0.15	stopsuccess	0.0	Go_O	1.0
484.021	1.0	go	0.415	Go_O	1.0
486.545	0.2	stopfail	0.29	Go_X	0.0
489.086	1.0	go	0.425	Go_O	0.0
491.61	1.0	go	0.411	Go_X	0.0
494.134	1.0	go	0.412	Go_X	0.0
496.659	1.0	go	0.384	Go_O	0.0
499.183	1.0	go	0.417	Go_X	0.0
501.707	1.0	go	0.414	Go_O	0.0
504.231	1.0	go	0.641	Go_O	0.0
506.755	1.0	go	0.827	Go_X	0.0
509.28	0.15	stopsuccess	0.0	Go_O	1.0
511.804	1.0	go	0.636	Go_O	0.0
514.345	1.0	go	0.431	Go_X	0.0
516.869	0.2	stopfail	0.408	Go_X	0.0
519.41	1.0	go	0.561	Go_X	0.0
521.934	1.0	go	0.432	Go_O	0.0
524.459	1.0	go	0.484	Go_X	0.0
526.983	1.0	go	0.508	Go_O	0.0
529.524	1.0	go	0.476	Go_X	0.0
532.048	0.15	stopsuccess	0.0	Go_O	1.0
534.589	1.0	go	0.397	Go_O	0.0
537.113	1.0	go	0.504	Go_O	0.0
539.637	1.0	go	0.467	Go_X	0.0
542.162	0.2	stopfail	0.422	Go_X	0.0
544.686	1.0	go	0.406	Go_X	0.0
547.21	0.15	stopsuccess	0.0	Go_O	1.0
549.751	1.0	go	0.361	Go_O	0.0
552.292	1.0	go	0.413	Go_O	0.0
554.833	1.0	go	0.348	Go_X	0.0
557.357	1.0	go	0.616	Go_O	0.0
559.898	1.0	go	0.424	Go_X	0.0
562.422	1.0	go	0.536	Go_X	0.0
564.946	1.0	go	0.443	Go_O	0.0
567.471	0.2	stopfail	0.372	Go_X	0.0
569.995	1.0	go	0.44	Go_O	0.0
572.519	1.0	go	0.416	Go_X	0.0
575.043	1.0	go	0.436	Go_X	0.0
577.568	1.0	go	0.5	Go_O	0.0
580.092	0.15	stopsuccess	0.0	Go_O	1.0
582.616	1.0	go	0.544	Go_X	0.0
585.14	0.2	stopsuccess	0.0	Go_X	1.0
587.664	1.0	go	0.384	Go_O	0.0
590.189	1.0	go	0.423	Go_X	0.0
592.713	0.25	stopfail	0.479	Go_O	0.0
595.237	1.0	go	0.471	Go_O	0.0
597.761	1.0	go	0.432	Go_O	0.0
600.286	1.0	go	0.418	Go_X	0.0
602.81	1.0	go	0.436	Go_X	0.0
605.334	1.0	go	0.461	Go_O	0.0
607.858	1.0	go	0.526	Go_O	0.0
610.382	1.0	go	0.408	Go_X	0.0
612.907	1.0	go	0.559	Go_O	0.0
615.431	1.0	go	0.705	Go_X	0.0
617.955	1.0	go	0.69	Go_O	1.0
620.479	0.2	stopfail	0.419	Go_X	0.0
623.004	1.0	go	0.832	Go_X	0.0
625.528	1.0	go	0.359	Go_O	0.0
628.052	0.15	stopsuccess	0.0	Go_O	1.0
630.576	1.0	go	0.494	Go_X	0.0
633.1	0.2	stopsuccess	0.0	Go_X	1.0
635.625	1.0	go	0.501	Go_O	0.0
638.149	1.0	go	0.885	Go_X	0.0
640.673	0.25	stopfail	0.381	Go_O	0.0
643.214	1.0	go	0.448	Go_O	0.0
645.738	0.2	stopfail	0.554	Go_X	0.0
648.262	1.0	go	0.389	Go_X	0.0
650.787	1.0	go	0.62	Go_X	0.0
653.311	1.0	go	0.478	Go_O	0.0
655.835	0.15	stopsuccess	0.0	Go_O	1.0
658.359	1.0	go	0.425	Go_O	0.0
660.884	1.0	go	0.793	Go_X	0.0
663.408	1.0	go	0.435	Go_X	0.0
665.933	1.0	go	0.514	Go_O	0.0
668.456	0.2	stopsuccess	0.0	Go_X	1.0
670.98	1.0	go	0.569	Go_O	0.0
673.505	1.0	go	0.33	Go_X	0.0
676.029	0.25	stopfail	0.623	Go_O	0.0
678.553	1.0	go	0.704	Go_O	1.0
681.077	1.0	go	0.344	Go_X	0.0
683.602	1.0	go	0.476	Go_O	0.0
686.126	1.0	go	0.461	Go_X	0.0
688.65	0.2	stopsuccess	0.0	Go_X	1.0
691.174	1.0	go	0.429	Go_X	0.0
693.699	0.25	stopsuccess	0.0	Go_O	1.0
696.239	1.0	go	0.38	Go_O	0.0
698.78	1.0	go	0.417	Go_X	0.0
701.305	0.3	stopsuccess	0.0	Go_X	1.0
703.829	1.0	go	0.474	Go_O	0.0
706.353	1.0	go	0.8	Go_O	0.0
708.877	1.0	go	0.795	Go_X	0.0
711.402	1.0	go	0.714	Go_X	0.0
713.926	0.35	stopfail	0.382	Go_O	0.0
716.45	1.0	go	0.431	Go_O	0.0
718.974	0.3	stopfail	0.365	Go_X	0.0
721.498	1.0	go	0.436	Go_O	0.0
724.023	1.0	go	0.342	Go_X	0.0
726.564	1.0	go	0.511	Go_X	0.0
729.088	1.0	go	0.425	Go_O	0.0
731.612	1.0	go	0.39	Go_O	0.0
734.136	1.0	go	0.44	Go_X	0.0
736.661	0.25	stopsuccess	0.0	Go_O	1.0
739.201	1.0	go	0.489	Go_O	0.0
741.726	1.0	go	0.586	Go_X	0.0
744.25	0.3	stopsuccess	0.0	Go_X	1.0
746.774	1.0	go	0.446	Go_X	0.0
749.298	1.0	go	0.452	Go_O	0.0
751.823	0.35	stopfail	0.455	Go_O	0.0
754.364	1.0	go	0.597	Go_X	0.0
756.904	1.0	go	0.504	Go_O	0.0
759.429	1.0	go	0.389	Go_X	0.0
761.97	1.0	go	0.545	Go_O	0.0
764.494	0.3	stopfail	0.432	Go_X	0.0
767.035	1.0	go	0.545	Go_O	0.0
769.559	0.25	stopsuccess	0.0	Go_O	1.0
772.1	1.0	go	0.604	Go_X	0.0
774.624	1.0	go	0.631	Go_X	1.0
777.148	1.0	go	0.541	Go_O	0.0
779.673	1.0	go	0.361	Go_X	0.0
782.197	1.0	go	0.719	Go_O	0.0
784.721	0.3	stopfail	0.476	Go_X	0.0
787.245	1.0	go	0.535	Go_X	0.0
789.77	1.0	go	0.422	Go_O	0.0
792.294	0.25	stopfail	0.532	Go_O	0.0
794.818	0.2	stopsuccess	0.0	Go_X	1.0
797.342	1.0	go	0.422	Go_X	0.0
799.866	1.0	go	0.352	Go_O	0.0
802.391	1.0	go	0.481	Go_X	0.0
804.915	1.0	go	0.632	Go_O	0.0
807.439	0.25	stopfail	0.507	Go_O	0.0
809.963	1.0	go	0.525	Go_O	0.0
