onset	duration	trial_type	response_time	stim_file	accuracy
106.194	1.0	go	0.554	Go_X	0.0
108.769	1.0	go	0.261	Go_O	1.0
111.293	1.0	go	0.354	Go_O	1.0
113.817	1.0	go	0.274	Go_X	0.0
116.341	1.0	go	0.47	Go_X	0.0
118.865	1.0	go	0.416	Go_O	1.0
121.389	0.25	stopfail	0.411	Go_O	0.0
123.913	1.0	go	0.571	Go_O	1.0
126.438	0.2	stopfail	0.353	Go_X	0.0
128.962	1.0	go	0.395	Go_X	1.0
131.486	1.0	go	0.355	Go_X	1.0
134.01	1.0	go	0.554	Go_O	1.0
136.534	0.15	stopsuccess	0.0	Go_O	1.0
139.058	1.0	go	0.398	Go_X	1.0
141.583	1.0	go	0.38	Go_O	1.0
144.107	0.2	stopsuccess	0.0	Go_X	1.0
146.631	0.25	stopsuccess	0.0	Go_O	1.0
149.155	1.0	go	0.376	Go_O	1.0
151.679	1.0	go	0.308	Go_X	1.0
154.203	0.3	stopfail	0.369	Go_X	0.0
156.728	1.0	go	0.412	Go_O	1.0
159.252	1.0	go	0.245	Go_X	1.0
161.776	0.25	stopfail	0.346	Go_O	0.0
164.3	1.0	go	0.266	Go_X	1.0
166.824	1.0	go	0.321	Go_O	1.0
169.348	0.2	stopfail	0.311	Go_X	0.0
171.873	1.0	go	0.242	Go_O	1.0
174.397	1.0	go	0.212	Go_X	1.0
176.921	0.15	stopfail	0.225	Go_O	0.0
179.445	1.0	go	0.971	Go_O	1.0
181.969	1.0	go	0.256	Go_X	1.0
184.493	1.0	go	0.38	Go_X	1.0
187.017	1.0	go	0.26	Go_O	1.0
189.542	1.0	go	0.254	Go_X	1.0
192.066	0.1	stopfail	0.409	Go_X	0.0
194.59	1.0	go	0.26	Go_O	1.0
197.114	1.0	go	0.339	Go_O	1.0
199.638	1.0	go	0.368	Go_X	1.0
202.162	1.0	go	0.321	Go_X	1.0
204.687	1.0	go	0.492	Go_O	1.0
207.211	0.05	stopsuccess	0.0	Go_O	1.0
209.735	1.0	go	0.276	Go_X	1.0
212.259	1.0	go	0.383	Go_O	1.0
214.783	1.0	go	0.249	Go_O	0.0
217.307	1.0	go	0.37	Go_X	1.0
219.832	1.0	go	0.492	Go_O	1.0
222.356	1.0	go	0.218	Go_X	1.0
224.88	0.1	stopfail	0.272	Go_X	0.0
227.404	1.0	go	0.373	Go_O	1.0
229.928	1.0	go	0.492	Go_X	1.0
232.452	0.05	stopsuccess	0.0	Go_O	1.0
234.977	1.0	go	0.536	Go_X	1.0
237.501	0.1	stopsuccess	0.0	Go_X	1.0
240.025	0.15	stopsuccess	0.0	Go_O	1.0
242.549	1.0	go	0.44	Go_O	1.0
245.073	1.0	go	0.485	Go_X	1.0
247.597	1.0	go	0.184	Go_O	1.0
250.122	1.0	go	0.408	Go_X	1.0
252.646	0.2	stopfail	0.231	Go_X	0.0
255.17	1.0	go	0.343	Go_O	1.0
257.694	0.15	stopsuccess	0.0	Go_O	1.0
260.218	1.0	go	0.377	Go_O	1.0
262.742	1.0	go	0.33	Go_X	1.0
265.266	1.0	go	0.371	Go_O	1.0
267.791	1.0	go	0.243	Go_X	1.0
270.315	1.0	go	0.255	Go_O	1.0
272.839	1.0	go	0.224	Go_X	1.0
275.363	1.0	go	0.213	Go_O	1.0
277.887	1.0	go	0.235	Go_X	1.0
280.411	1.0	go	0.212	Go_O	1.0
282.936	0.2	stopfail	0.351	Go_X	0.0
285.46	1.0	go	0.234	Go_X	1.0
287.984	1.0	go	0.251	Go_X	1.0
290.508	1.0	go	0.403	Go_O	1.0
293.032	0.15	stopsuccess	0.0	Go_O	1.0
295.556	1.0	go	0.515	Go_O	1.0
298.081	1.0	go	0.338	Go_X	1.0
300.605	1.0	go	0.244	Go_O	1.0
303.129	1.0	go	0.287	Go_X	1.0
305.653	1.0	go	0.535	Go_O	1.0
308.177	1.0	go	0.259	Go_X	1.0
310.701	0.2	stopfail	0.245	Go_X	0.0
313.226	1.0	go	0.346	Go_O	1.0
315.75	1.0	go	0.422	Go_X	1.0
318.274	0.15	stopfail	0.434	Go_O	0.0
320.798	1.0	go	0.274	Go_X	1.0
323.322	1.0	go	0.287	Go_O	1.0
325.846	0.1	stopfail	0.227	Go_X	0.0
328.371	1.0	go	0.477	Go_O	1.0
330.895	0.05	stopsuccess	0.0	Go_O	1.0
333.419	1.0	go	0.49	Go_X	1.0
335.943	1.0	go	0.402	Go_X	1.0
338.467	1.0	go	0.524	Go_O	1.0
340.991	1.0	go	0.372	Go_X	1.0
343.515	1.0	go	0.427	Go_O	1.0
346.04	0.1	stopsuccess	0.0	Go_X	1.0
348.564	0.15	stopsuccess	0.0	Go_O	1.0
351.088	1.0	go	0.446	Go_O	1.0
353.612	1.0	go	0.348	Go_X	1.0
356.136	0.2	stopfail	0.382	Go_X	0.0
358.66	1.0	go	0.499	Go_X	1.0
361.185	1.0	go	0.282	Go_O	1.0
363.709	1.0	go	0.426	Go_O	1.0
366.233	1.0	go	0.293	Go_X	1.0
368.757	1.0	go	0.306	Go_O	1.0
371.281	1.0	go	0.322	Go_X	1.0
373.805	0.15	stopfail	0.418	Go_O	0.0
376.33	1.0	go	0.316	Go_X	1.0
378.854	1.0	go	0.44	Go_O	1.0
381.378	1.0	go	0.34	Go_X	1.0
383.902	1.0	go	0.535	Go_O	1.0
386.426	1.0	go	0.461	Go_X	1.0
388.95	0.1	stopsuccess	0.0	Go_X	1.0
391.475	1.0	go	0.446	Go_O	1.0
393.999	1.0	go	0.463	Go_X	1.0
396.523	1.0	go	0.44	Go_O	1.0
399.047	1.0	go	0.462	Go_X	1.0
401.571	0.15	stopfail	0.301	Go_O	0.0
404.095	1.0	go	0.29	Go_O	0.0
406.619	1.0	go	0.348	Go_O	1.0
409.144	0.1	stopfail	0.342	Go_X	0.0
411.668	1.0	go	0.362	Go_X	1.0
414.192	0.05	stopfail	0.89	Go_O	0.0
416.716	1.0	go	0.425	Go_O	1.0
419.24	1.0	go	0.4	Go_X	1.0
421.764	1.0	go	0.271	Go_X	1.0
424.289	1.0	go	0.336	Go_O	1.0
426.813	1.0	go	0.5	Go_O	1.0
429.337	1.0	go	0.443	Go_X	1.0
431.861	1.0	go	0.523	Go_O	1.0
434.385	0.0	stopsuccess	0.0	Go_X	1.0
436.926	1.0	go	0.374	Go_X	1.0
439.45	1.0	go	0.385	Go_O	1.0
441.974	1.0	go	0.434	Go_X	1.0
444.499	0.05	stopsuccess	0.0	Go_O	1.0
447.023	1.0	go	0.598	Go_O	1.0
449.547	1.0	go	0.47	Go_X	1.0
452.071	1.0	go	0.37	Go_X	1.0
454.595	1.0	go	0.361	Go_O	0.0
457.119	0.1	stopsuccess	0.0	Go_X	1.0
459.644	1.0	go	0.0	Go_X	0.0
462.168	1.0	go	0.39	Go_O	1.0
464.692	0.15	stopsuccess	0.0	Go_O	1.0
467.216	1.0	go	0.385	Go_O	1.0
469.74	1.0	go	0.374	Go_X	1.0
472.264	0.2	stopsuccess	0.0	Go_X	1.0
474.789	1.0	go	0.293	Go_O	1.0
477.313	1.0	go	0.485	Go_X	1.0
479.837	0.25	stopfail	0.374	Go_O	0.0
482.361	1.0	go	0.343	Go_O	0.0
484.885	1.0	go	0.28	Go_X	1.0
487.409	1.0	go	0.382	Go_X	1.0
489.934	1.0	go	0.356	Go_O	1.0
492.458	1.0	go	0.467	Go_O	1.0
494.982	1.0	go	0.342	Go_X	1.0
497.506	0.2	stopfail	0.327	Go_X	0.0
500.03	1.0	go	0.37	Go_X	1.0
502.554	0.15	stopfail	0.316	Go_O	0.0
505.078	1.0	go	0.723	Go_O	1.0
507.603	1.0	go	0.323	Go_X	1.0
510.127	1.0	go	0.446	Go_O	1.0
512.651	1.0	go	0.329	Go_X	1.0
515.175	1.0	go	0.355	Go_O	1.0
517.699	0.1	stopfail	0.256	Go_X	0.0
520.223	1.0	go	0.251	Go_O	1.0
522.748	1.0	go	0.178	Go_X	1.0
525.272	1.0	go	0.423	Go_O	1.0
527.796	0.05	stopsuccess	0.0	Go_O	1.0
530.32	0.1	stopsuccess	0.0	Go_X	1.0
532.844	0.15	stopsuccess	0.0	Go_O	1.0
535.368	1.0	go	0.451	Go_X	1.0
537.893	0.2	stopsuccess	0.0	Go_X	1.0
540.417	1.0	go	0.564	Go_O	1.0
542.941	1.0	go	0.506	Go_X	1.0
545.465	1.0	go	0.354	Go_X	1.0
547.989	1.0	go	0.501	Go_O	1.0
550.513	1.0	go	0.409	Go_X	1.0
553.038	1.0	go	0.502	Go_O	1.0
555.562	1.0	go	0.268	Go_O	0.0
558.086	1.0	go	0.315	Go_X	1.0
560.61	0.25	stopfail	0.444	Go_O	0.0
563.134	1.0	go	0.455	Go_X	1.0
565.658	1.0	go	0.444	Go_O	1.0
568.183	0.2	stopfail	0.259	Go_X	0.0
570.707	1.0	go	0.786	Go_X	1.0
573.231	1.0	go	0.299	Go_O	1.0
575.755	1.0	go	0.258	Go_X	1.0
578.279	1.0	go	0.36	Go_O	1.0
580.803	1.0	go	0.365	Go_X	1.0
583.327	0.15	stopfail	0.267	Go_O	0.0
585.852	1.0	go	0.535	Go_O	1.0
588.376	1.0	go	0.335	Go_X	1.0
590.9	1.0	go	0.644	Go_O	1.0
593.424	0.1	stopsuccess	0.0	Go_X	1.0
595.948	1.0	go	0.502	Go_X	1.0
598.472	0.15	stopsuccess	0.0	Go_O	1.0
600.997	1.0	go	0.45	Go_O	1.0
603.521	1.0	go	0.438	Go_X	1.0
606.045	1.0	go	0.475	Go_O	1.0
608.569	1.0	go	0.307	Go_X	1.0
611.093	1.0	go	0.277	Go_O	1.0
613.617	1.0	go	0.518	Go_O	1.0
616.142	1.0	go	0.499	Go_X	1.0
618.666	0.2	stopfail	0.363	Go_X	0.0
621.19	1.0	go	0.4	Go_X	1.0
623.714	1.0	go	0.483	Go_O	1.0
626.238	1.0	go	0.516	Go_O	1.0
628.762	1.0	go	0.484	Go_X	1.0
631.287	0.15	stopsuccess	0.0	Go_O	1.0
633.811	1.0	go	0.465	Go_X	1.0
636.335	0.2	stopsuccess	0.0	Go_X	1.0
638.859	1.0	go	0.259	Go_O	1.0
641.383	1.0	go	0.479	Go_O	1.0
643.907	0.25	stopfail	0.323	Go_O	0.0
646.432	1.0	go	0.332	Go_X	1.0
648.956	1.0	go	0.342	Go_X	1.0
651.48	1.0	go	0.354	Go_O	1.0
654.004	1.0	go	0.328	Go_O	1.0
656.528	1.0	go	0.392	Go_X	1.0
659.052	1.0	go	0.628	Go_X	1.0
661.576	1.0	go	0.604	Go_O	1.0
664.101	1.0	go	0.53	Go_O	1.0
666.625	1.0	go	0.433	Go_X	1.0
669.149	1.0	go	0.356	Go_O	1.0
671.673	0.2	stopsuccess	0.0	Go_X	1.0
674.197	1.0	go	0.36	Go_X	1.0
676.721	1.0	go	0.938	Go_X	1.0
679.246	0.25	stopfail	0.354	Go_O	0.0
681.77	1.0	go	0.63	Go_O	1.0
684.294	0.2	stopsuccess	0.0	Go_X	1.0
686.818	1.0	go	0.617	Go_X	1.0
689.342	1.0	go	0.533	Go_O	1.0
691.866	0.25	stopsuccess	0.0	Go_O	1.0
694.391	1.0	go	0.351	Go_O	1.0
696.915	0.3	stopsuccess	0.0	Go_X	1.0
699.439	1.0	go	0.35	Go_X	1.0
701.963	1.0	go	0.588	Go_X	1.0
704.487	1.0	go	0.528	Go_O	1.0
707.011	0.35	stopsuccess	0.0	Go_O	1.0
709.536	1.0	go	0.397	Go_O	1.0
712.06	1.0	go	0.4	Go_X	1.0
714.584	1.0	go	0.381	Go_O	1.0
717.108	1.0	go	0.423	Go_X	1.0
719.632	0.4	stopfail	0.391	Go_X	0.0
722.156	1.0	go	0.532	Go_X	1.0
724.68	1.0	go	0.766	Go_O	1.0
727.205	0.35	stopfail	0.419	Go_O	0.0
729.729	1.0	go	0.607	Go_O	1.0
732.253	1.0	go	0.264	Go_X	1.0
734.777	1.0	go	0.267	Go_O	1.0
737.301	1.0	go	0.515	Go_X	1.0
739.825	0.3	stopfail	0.427	Go_X	0.0
742.35	1.0	go	0.374	Go_O	1.0
744.874	0.25	stopfail	0.344	Go_O	0.0
747.398	1.0	go	0.52	Go_X	1.0
749.922	1.0	go	0.348	Go_X	1.0
752.446	0.2	stopfail	0.448	Go_X	0.0
754.97	1.0	go	0.406	Go_O	0.0
757.495	1.0	go	0.0	Go_O	0.0
760.019	1.0	go	0.408	Go_X	0.0
762.543	1.0	go	0.482	Go_X	1.0
765.067	0.15	stopsuccess	0.0	Go_O	1.0
767.591	1.0	go	0.454	Go_O	1.0
770.115	0.2	stopsuccess	0.0	Go_X	1.0
772.64	1.0	go	0.402	Go_O	1.0
775.164	1.0	go	0.442	Go_X	1.0
777.688	1.0	go	0.365	Go_O	1.0
780.212	1.0	go	0.659	Go_X	1.0
782.736	1.0	go	0.498	Go_X	1.0
785.26	1.0	go	0.483	Go_O	1.0
787.785	0.25	stopfail	0.429	Go_O	0.0
790.309	1.0	go	0.331	Go_X	1.0
792.833	1.0	go	0.383	Go_O	0.0
795.357	0.2	stopsuccess	0.0	Go_X	1.0
797.881	1.0	go	0.424	Go_X	1.0
800.405	1.0	go	0.472	Go_O	1.0
802.929	0.25	stopsuccess	0.0	Go_O	1.0
805.454	1.0	go	0.367	Go_X	1.0
807.978	1.0	go	0.47	Go_O	1.0
810.502	1.0	go	0.576	Go_X	1.0
813.026	1.0	go	0.375	Go_O	1.0
815.55	0.3	stopfail	0.28	Go_X	0.0
818.074	1.0	go	0.0	Go_O	0.0
820.599	0.25	stopfail	0.552	Go_O	0.0
823.123	1.0	go	0.409	Go_X	1.0
825.647	1.0	go	0.571	Go_X	1.0
828.171	1.0	go	0.428	Go_O	1.0
830.695	1.0	go	0.509	Go_O	1.0
833.219	1.0	go	0.456	Go_X	1.0
835.744	0.2	stopfail	0.239	Go_X	0.0
838.268	1.0	go	0.367	Go_X	1.0
840.792	1.0	go	0.485	Go_O	1.0
843.316	0.15	stopsuccess	0.0	Go_O	1.0
845.84	0.2	stopsuccess	0.0	Go_X	1.0
848.364	1.0	go	0.437	Go_O	1.0
850.889	1.0	go	0.45	Go_X	1.0
853.413	1.0	go	0.352	Go_O	1.0
855.937	1.0	go	0.327	Go_X	1.0
858.461	0.25	stopfail	0.454	Go_O	0.0
860.985	1.0	go	0.5	Go_O	1.0
