onset	duration	trial_type	response_time	stim_file	accuracy
98.126	1.0	go	0.859	Go_O	1.0
100.659	1.0	go	0.501	Go_X	1.0
103.192	1.0	go	0.522	Go_O	1.0
105.725	1.0	go	0.43	Go_X	1.0
108.259	1.0	go	0.581	Go_X	1.0
110.792	1.0	go	0.471	Go_O	1.0
113.325	0.25	stop	0.0	Go_O	1.0
115.858	1.0	go	0.362	Go_X	1.0
118.392	0.3	stop	0.544	Go_X	0.0
120.925	1.0	go	0.489	Go_O	1.0
123.458	1.0	go	0.664	Go_O	1.0
125.991	1.0	go	0.65	Go_X	1.0
128.525	0.25	stop	0.416	Go_O	0.0
131.058	1.0	go	0.847	Go_X	1.0
133.591	1.0	go	0.788	Go_O	1.0
136.125	0.2	stop	0.0	Go_X	1.0
138.658	0.25	stop	0.436	Go_O	0.0
141.191	1.0	go	0.742	Go_X	1.0
143.724	1.0	go	0.797	Go_O	1.0
146.258	0.2	stop	0.0	Go_X	1.0
148.791	1.0	go	0.651	Go_X	1.0
151.324	1.0	go	0.788	Go_O	1.0
153.857	0.25	stop	0.0	Go_O	1.0
156.391	1.0	go	0.696	Go_O	1.0
158.924	1.0	go	0.784	Go_X	1.0
161.457	0.3	stop	0.0	Go_X	1.0
163.99	1.0	go	0.503	Go_X	1.0
166.524	1.0	go	0.807	Go_O	1.0
169.057	0.35	stop	0.0	Go_O	1.0
171.59	1.0	go	0.702	Go_O	1.0
174.124	1.0	go	0.737	Go_X	1.0
176.673	1.0	go	0.758	Go_X	1.0
179.207	1.0	go	0.694	Go_O	1.0
181.74	1.0	go	0.68	Go_O	1.0
184.273	0.4	stop	0.623	Go_X	0.0
186.806	1.0	go	0.791	Go_X	1.0
189.34	1.0	go	0.567	Go_X	1.0
191.873	1.0	go	0.729	Go_O	1.0
194.406	1.0	go	0.649	Go_X	1.0
196.94	1.0	go	0.727	Go_O	1.0
199.489	0.35	stop	0.0	Go_O	1.0
202.023	1.0	go	0.61	Go_O	0.0
204.556	1.0	go	0.0	Go_X	0.0
207.089	1.0	go	0.87	Go_O	1.0
209.623	1.0	go	0.932	Go_X	1.0
212.172	1.0	go	0.676	Go_X	1.0
214.706	1.0	go	0.816	Go_O	1.0
217.239	0.4	stop	0.0	Go_X	1.0
219.772	1.0	go	0.779	Go_O	1.0
222.306	1.0	go	0.844	Go_X	1.0
224.855	0.45	stop	0.0	Go_O	1.0
227.389	1.0	go	0.829	Go_O	1.0
229.922	0.5	stop	0.664	Go_X	0.0
232.455	0.45	stop	0.0	Go_O	1.0
234.988	1.0	go	0.641	Go_X	1.0
237.522	1.0	go	0.953	Go_O	1.0
240.055	1.0	go	0.674	Go_X	1.0
242.588	1.0	go	0.594	Go_O	1.0
245.122	0.5	stop	0.0	Go_X	1.0
247.655	1.0	go	0.86	Go_X	1.0
250.188	0.55	stop	0.634	Go_O	0.0
252.721	1.0	go	0.0	Go_O	0.0
255.255	1.0	go	0.618	Go_X	1.0
257.788	1.0	go	0.745	Go_X	1.0
260.321	1.0	go	0.0	Go_O	0.0
262.854	1.0	go	0.0	Go_O	0.0
265.388	1.0	go	0.72	Go_X	1.0
267.921	1.0	go	0.509	Go_O	1.0
270.454	1.0	go	0.531	Go_X	1.0
272.987	1.0	go	0.705	Go_X	1.0
275.521	0.5	stop	0.0	Go_X	1.0
278.054	1.0	go	0.542	Go_O	1.0
280.587	1.0	go	0.945	Go_X	1.0
283.121	1.0	go	0.646	Go_O	1.0
285.67	0.55	stop	0.0	Go_O	1.0
288.204	1.0	go	0.577	Go_O	1.0
290.737	1.0	go	0.827	Go_X	1.0
293.27	1.0	go	0.72	Go_X	1.0
295.803	1.0	go	0.0	Go_O	0.0
298.337	1.0	go	0.562	Go_X	1.0
300.87	1.0	go	0.818	Go_O	1.0
303.403	0.6	stop	0.832	Go_X	0.0
305.937	1.0	go	0.68	Go_X	1.0
308.486	1.0	go	0.667	Go_O	1.0
311.02	0.55	stop	0.655	Go_O	0.0
313.553	1.0	go	0.633	Go_O	1.0
316.086	1.0	go	0.71	Go_X	1.0
318.62	0.5	stop	0.0	Go_X	1.0
321.169	1.0	go	0.945	Go_X	1.0
323.703	0.55	stop	0.0	Go_O	1.0
326.236	1.0	go	0.651	Go_O	1.0
328.769	1.0	go	0.876	Go_O	1.0
331.302	1.0	go	0.0	Go_X	0.0
333.836	1.0	go	0.757	Go_X	1.0
336.369	1.0	go	0.865	Go_O	1.0
338.902	0.6	stop	0.0	Go_X	1.0
341.436	0.65	stop	0.71	Go_O	0.0
343.969	1.0	go	0.731	Go_X	1.0
346.502	1.0	go	0.685	Go_O	1.0
349.035	0.6	stop	0.752	Go_X	0.0
351.569	1.0	go	0.0	Go_X	0.0
354.102	1.0	go	0.514	Go_O	1.0
356.635	1.0	go	0.844	Go_O	1.0
359.168	1.0	go	0.759	Go_X	1.0
361.702	1.0	go	0.664	Go_O	1.0
364.235	1.0	go	0.699	Go_X	1.0
366.768	0.55	stop	0.0	Go_O	1.0
369.301	1.0	go	0.693	Go_X	1.0
371.835	1.0	go	0.778	Go_O	1.0
374.368	1.0	go	0.757	Go_X	1.0
376.901	1.0	go	0.706	Go_O	1.0
379.435	1.0	go	0.781	Go_O	1.0
381.984	0.6	stop	0.699	Go_X	0.0
384.518	1.0	go	0.71	Go_X	1.0
387.051	1.0	go	0.755	Go_O	1.0
389.584	1.0	go	0.877	Go_X	1.0
392.117	1.0	go	0.716	Go_X	1.0
394.651	0.55	stop	0.733	Go_O	0.0
397.184	1.0	go	0.881	Go_O	1.0
399.717	1.0	go	0.817	Go_O	1.0
402.251	0.5	stop	0.672	Go_X	0.0
404.8	1.0	go	0.881	Go_X	1.0
407.334	0.45	stop	0.0	Go_O	1.0
409.867	1.0	go	0.865	Go_X	1.0
412.4	1.0	go	0.0	Go_O	0.0
414.934	1.0	go	0.821	Go_X	1.0
417.483	1.0	go	0.905	Go_O	1.0
420.017	1.0	go	0.84	Go_X	1.0
422.55	1.0	go	0.932	Go_O	1.0
425.083	1.0	go	0.772	Go_O	1.0
427.617	0.5	stop	0.0	Go_X	1.0
430.166	1.0	go	0.844	Go_X	1.0
432.7	1.0	go	0.0	Go_X	0.0
435.233	1.0	go	0.624	Go_O	1.0
437.766	0.55	stop	0.0	Go_O	1.0
440.299	1.0	go	0.0	Go_X	0.0
442.833	1.0	go	0.0	Go_O	0.0
445.366	1.0	go	0.857	Go_O	1.0
447.899	1.0	go	0.858	Go_X	1.0
450.433	0.6	stop	0.0	Go_X	1.0
452.966	1.0	go	0.54	Go_X	1.0
455.499	1.0	go	0.692	Go_O	1.0
458.032	0.65	stop	0.816	Go_O	0.0
460.566	1.0	go	0.738	Go_O	1.0
463.099	1.0	go	0.707	Go_X	1.0
465.632	0.6	stop	0.0	Go_X	1.0
468.165	1.0	go	0.873	Go_O	1.0
470.699	1.0	go	0.717	Go_X	1.0
473.232	0.65	stop	0.741	Go_O	0.0
475.765	1.0	go	0.793	Go_X	1.0
478.298	1.0	go	0.719	Go_O	1.0
480.832	1.0	go	0.0	Go_O	0.0
483.365	1.0	go	0.596	Go_X	1.0
485.898	1.0	go	0.731	Go_X	1.0
488.432	1.0	go	0.989	Go_O	1.0
490.981	0.6	stop	0.543	Go_X	0.0
493.515	1.0	go	0.716	Go_X	1.0
496.048	0.55	stop	0.583	Go_O	0.0
498.581	1.0	go	0.823	Go_O	1.0
501.114	1.0	go	0.628	Go_X	1.0
503.648	1.0	go	0.68	Go_O	1.0
506.181	1.0	go	0.991	Go_X	1.0
508.714	1.0	go	0.96	Go_O	1.0
511.248	0.5	stop	0.0	Go_X	1.0
513.781	1.0	go	0.0	Go_O	0.0
516.314	1.0	go	0.844	Go_X	1.0
518.847	1.0	go	0.0	Go_O	0.0
521.381	0.55	stop	0.0	Go_O	1.0
523.914	0.6	stop	0.0	Go_X	1.0
526.447	0.65	stop	0.0	Go_O	1.0
528.98	1.0	go	0.83	Go_X	1.0
531.514	0.7	stop	0.77	Go_X	0.0
534.047	1.0	go	0.976	Go_O	1.0
536.58	1.0	go	0.729	Go_X	1.0
539.113	1.0	go	0.695	Go_X	1.0
541.647	1.0	go	0.598	Go_O	1.0
544.18	1.0	go	0.652	Go_O	1.0
546.713	1.0	go	0.607	Go_X	1.0
549.247	1.0	go	0.0	Go_O	0.0
551.796	1.0	go	0.612	Go_X	1.0
554.33	0.65	stop	0.561	Go_O	0.0
556.863	1.0	go	0.507	Go_O	0.0
559.396	1.0	go	0.397	Go_X	1.0
561.929	0.6	stop	0.493	Go_X	0.0
564.463	1.0	go	0.567	Go_O	1.0
566.996	1.0	go	0.697	Go_X	1.0
569.529	1.0	go	0.867	Go_O	1.0
572.063	1.0	go	0.587	Go_X	1.0
574.612	1.0	go	0.715	Go_O	1.0
577.146	0.55	stop	0.611	Go_O	0.0
579.679	1.0	go	0.683	Go_X	1.0
582.212	1.0	go	0.658	Go_O	1.0
584.746	1.0	go	0.0	Go_X	0.0
587.295	0.5	stop	0.554	Go_X	0.0
589.829	1.0	go	0.659	Go_X	1.0
592.362	0.45	stop	0.636	Go_O	0.0
594.895	1.0	go	0.628	Go_O	1.0
597.428	1.0	go	0.0	Go_O	0.0
599.962	1.0	go	0.789	Go_X	1.0
602.495	1.0	go	0.652	Go_X	1.0
605.028	1.0	go	0.665	Go_O	1.0
607.562	1.0	go	0.854	Go_O	1.0
610.095	1.0	go	0.663	Go_X	1.0
612.628	0.4	stop	0.0	Go_X	1.0
615.161	1.0	go	0.532	Go_X	1.0
617.695	1.0	go	0.726	Go_O	1.0
620.228	1.0	go	0.802	Go_O	1.0
622.761	1.0	go	0.656	Go_X	1.0
625.294	0.45	stop	0.0	Go_O	1.0
627.828	1.0	go	0.602	Go_O	1.0
630.361	0.5	stop	0.0	Go_X	1.0
632.894	1.0	go	0.685	Go_X	1.0
635.427	1.0	go	0.897	Go_X	1.0
637.961	0.55	stop	0.814	Go_O	0.0
640.494	1.0	go	0.628	Go_O	1.0
643.027	1.0	go	0.657	Go_O	1.0
645.561	1.0	go	0.0	Go_X	0.0
648.11	1.0	go	0.815	Go_O	1.0
650.644	1.0	go	0.936	Go_X	1.0
653.177	1.0	go	0.597	Go_X	1.0
655.71	1.0	go	0.607	Go_O	1.0
658.243	1.0	go	0.792	Go_O	1.0
660.777	1.0	go	0.709	Go_X	1.0
663.31	1.0	go	0.747	Go_X	1.0
665.843	0.5	stop	0.708	Go_X	0.0
668.377	1.0	go	0.628	Go_O	1.0
670.91	1.0	go	0.792	Go_O	1.0
673.443	0.45	stop	0.637	Go_O	0.0
675.976	1.0	go	0.623	Go_X	1.0
678.51	0.4	stop	0.776	Go_X	0.0
681.043	1.0	go	0.726	Go_X	1.0
683.576	1.0	go	0.858	Go_O	1.0
686.109	0.35	stop	0.0	Go_O	1.0
688.643	1.0	go	0.718	Go_O	1.0
691.176	0.4	stop	0.0	Go_X	1.0
693.709	1.0	go	0.777	Go_X	1.0
696.242	1.0	go	0.982	Go_X	1.0
698.776	1.0	go	0.844	Go_O	1.0
701.309	0.45	stop	0.0	Go_O	1.0
703.842	1.0	go	0.741	Go_O	1.0
706.375	1.0	go	0.833	Go_X	1.0
708.909	1.0	go	0.953	Go_X	1.0
711.442	1.0	go	0.0	Go_O	0.0
713.975	0.5	stop	0.0	Go_X	1.0
716.509	1.0	go	0.0	Go_X	0.0
719.042	1.0	go	0.837	Go_O	1.0
721.575	0.55	stop	0.657	Go_O	0.0
724.108	1.0	go	0.743	Go_X	1.0
726.642	1.0	go	0.903	Go_O	1.0
729.175	1.0	go	0.813	Go_X	1.0
731.708	1.0	go	0.645	Go_O	1.0
734.241	0.5	stop	0.511	Go_X	0.0
736.775	1.0	go	0.667	Go_O	1.0
739.308	0.45	stop	0.0	Go_O	1.0
741.841	1.0	go	0.73	Go_X	1.0
744.374	1.0	go	0.0	Go_X	0.0
746.908	0.5	stop	0.517	Go_X	0.0
749.441	1.0	go	0.716	Go_O	1.0
751.974	1.0	go	0.689	Go_O	1.0
754.508	1.0	go	0.435	Go_X	1.0
757.057	1.0	go	0.63	Go_O	1.0
759.591	0.45	stop	0.0	Go_O	1.0
762.124	1.0	go	0.605	Go_X	1.0
764.657	0.5	stop	0.629	Go_X	0.0
767.19	1.0	go	0.718	Go_X	1.0
769.724	1.0	go	0.909	Go_O	1.0
772.257	1.0	go	0.813	Go_O	1.0
774.79	1.0	go	0.738	Go_X	1.0
777.324	1.0	go	0.725	Go_X	1.0
779.857	1.0	go	0.724	Go_O	0.0
782.39	0.45	stop	0.778	Go_O	0.0
784.923	1.0	go	0.833	Go_O	1.0
787.457	1.0	go	0.748	Go_X	1.0
789.99	0.4	stop	0.0	Go_X	1.0
792.523	1.0	go	0.69	Go_O	1.0
795.056	1.0	go	0.639	Go_X	1.0
797.59	0.45	stop	0.0	Go_O	1.0
800.123	1.0	go	0.787	Go_O	1.0
802.656	1.0	go	0.488	Go_X	1.0
805.189	1.0	go	0.672	Go_O	1.0
807.723	1.0	go	0.725	Go_X	1.0
810.256	0.5	stop	0.655	Go_X	0.0
812.789	1.0	go	0.0	Go_O	0.0
815.322	0.45	stop	0.0	Go_O	1.0
817.856	1.0	go	0.852	Go_X	1.0
820.389	1.0	go	0.0	Go_X	0.0
822.922	1.0	go	0.0	Go_O	0.0
825.456	1.0	go	0.981	Go_O	1.0
827.989	1.0	go	0.917	Go_X	1.0
830.522	0.5	stop	0.495	Go_X	0.0
833.055	1.0	go	0.601	Go_O	1.0
835.589	1.0	go	0.478	Go_X	1.0
838.122	0.45	stop	0.534	Go_O	0.0
840.655	0.4	stop	0.0	Go_X	1.0
843.188	1.0	go	0.535	Go_X	1.0
845.722	1.0	go	0.553	Go_O	1.0
848.255	1.0	go	0.868	Go_O	1.0
850.788	1.0	go	0.662	Go_X	1.0
853.321	0.45	stop	0.506	Go_O	0.0
855.855	1.0	go	0.727	Go_O	1.0
