frame	onset	duration	trial_type	event_type	response_type	response_time	stim_file	accuracy
0	129.84		win-reward	ImageDisplay1		0.0		
0	131.823	0.75	win-reward	StartDisplay				
0	132.573		win-reward	ImageDisplay2		0.0		
0	135.823	1.6	win-reward	ChoiceDisplay	1	0.535	1	1
0	136.373	1.065	win-reward	ChosenDisplay		0.0		
0	137.423	0.25	win-reward	TurnDisplay				
0	137.673	0.75	win-reward	OutcomeDisplay				
1	138.423		loss-noreward	ImageDisplay1		0.0		
1	140.423	0.75	loss-noreward	StartDisplay				
1	141.173		loss-noreward	ImageDisplay2		0.0		
1	144.423	1.6	loss-noreward	ChoiceDisplay	1	0.505	1	1
1	144.939	1.095	loss-noreward	ChosenDisplay		0.0		
1	146.023	0.25	loss-noreward	TurnDisplay				
1	146.273	0.75	loss-noreward	OutcomeDisplay				
2	147.023		loss-reward	ImageDisplay1		0.0		
2	149.023	0.75	loss-reward	StartDisplay				
2	149.773		loss-reward	ImageDisplay2		0.0		
2	153.023	1.6	loss-reward	ChoiceDisplay	1	0.586	1	1
2	153.623	1.014	loss-reward	ChosenDisplay		0.0		
2	154.623	0.25	loss-reward	TurnDisplay				
2	154.873	0.75	loss-reward	OutcomeDisplay				
3	155.623		win-reward	ImageDisplay1		0.0		
3	157.872	0.75	win-reward	StartDisplay				
3	158.622		win-reward	ImageDisplay2		0.0		
3	161.622	1.6	win-reward	ChoiceDisplay	1	0.629	1	1
3	162.272	0.971	win-reward	ChosenDisplay		0.0		
3	163.222	0.25	win-reward	TurnDisplay				
3	163.472	0.75	win-reward	OutcomeDisplay				
4	164.222		loss-reward	ImageDisplay1		0.0		
4	166.472	0.75	loss-reward	StartDisplay				
4	167.222		loss-reward	ImageDisplay2		0.0		
4	170.222	1.6	loss-reward	ChoiceDisplay	1	0.655	1	1
4	170.889	0.945	loss-reward	ChosenDisplay		0.0		
4	171.822	0.25	loss-reward	TurnDisplay				
4	172.072	0.75	loss-reward	OutcomeDisplay				
5	172.822		win-reward	ImageDisplay1		0.0		
5	175.072	0.75	win-reward	StartDisplay				
5	175.822		win-reward	ImageDisplay2		0.0		
5	178.822	1.6	win-reward	ChoiceDisplay	1	0.552	1	1
5	179.389	1.048	win-reward	ChosenDisplay		0.0		
5	180.422	0.25	win-reward	TurnDisplay				
5	180.672	0.75	win-reward	OutcomeDisplay				
6	181.422		control-noreward	ImageDisplay1		0.0		
6	183.672	0.75	control-noreward	StartDisplay				
6	184.422		control-noreward	ImageDisplay2		0.0		
6	187.422	1.6	control-noreward	ChoiceDisplay	1	0.616	1	1
6	188.055	0.984	control-noreward	ChosenDisplay		0.0		
6	189.022	0.25	control-noreward	TurnDisplay				
6	189.272	0.75	control-noreward	OutcomeDisplay				
7	190.022		win-reward	ImageDisplay1		0.0		
7	192.022	0.75	win-reward	StartDisplay				
7	192.771		win-reward	ImageDisplay2		0.0		
7	196.021	1.6	win-reward	ChoiceDisplay	1	0.551	1	1
7	196.588	1.049	win-reward	ChosenDisplay		0.0		
7	197.621	0.25	win-reward	TurnDisplay				
7	197.871	0.75	win-reward	OutcomeDisplay				
8	198.621		control-reward	ImageDisplay1		0.0		
8	200.871	0.75	control-reward	StartDisplay				
8	201.621		control-reward	ImageDisplay2		0.0		
8	204.621	1.6	control-reward	ChoiceDisplay	1	0.598	1	1
8	205.238	1.002	control-reward	ChosenDisplay		0.0		
8	206.221	0.25	control-reward	TurnDisplay				
8	206.471	0.75	control-reward	OutcomeDisplay				
9	207.221		win-reward	ImageDisplay1		0.0		
9	209.471	0.75	win-reward	StartDisplay				
9	210.221		win-reward	ImageDisplay2		0.0		
9	213.221	1.6	win-reward	ChoiceDisplay	1	0.308	1	1
9	213.554	1.292	win-reward	ChosenDisplay		0.0		
9	214.821	0.25	win-reward	TurnDisplay				
9	215.071	0.75	win-reward	OutcomeDisplay				
10	215.821		loss-noreward	ImageDisplay1		0.0		
10	217.821	0.75	loss-noreward	StartDisplay				
10	218.571		loss-noreward	ImageDisplay2		0.0		
10	221.821	1.6	loss-noreward	ChoiceDisplay	1	0.463	1	1
10	222.304	1.137	loss-noreward	ChosenDisplay		0.0		
10	223.421	0.25	loss-noreward	TurnDisplay				
10	223.671	0.75	loss-noreward	OutcomeDisplay				
11	224.421		control-noreward	ImageDisplay1		0.0		
11	226.421	0.75	control-noreward	StartDisplay				
11	227.171		control-noreward	ImageDisplay2		0.0		
11	230.42	1.6	control-noreward	ChoiceDisplay	1	0.849	1	1
11	231.287	0.751	control-noreward	ChosenDisplay		0.0		
11	232.02	0.25	control-noreward	TurnDisplay				
11	232.27	0.75	control-noreward	OutcomeDisplay				
12	233.02		win-noreward	ImageDisplay1		0.0		
12	235.27	0.75	win-noreward	StartDisplay				
12	236.02		win-noreward	ImageDisplay2		0.0		
12	239.02	1.6	win-noreward	ChoiceDisplay	1	0.519	1	1
12	239.554	1.081	win-noreward	ChosenDisplay		0.0		
12	240.62	0.25	win-noreward	TurnDisplay				
12	240.87	0.75	win-noreward	OutcomeDisplay				
13	241.62		loss-noreward	ImageDisplay1		0.0		
13	243.62	0.75	loss-noreward	StartDisplay				
13	244.37		loss-noreward	ImageDisplay2		0.0		
13	247.62	1.6	loss-noreward	ChoiceDisplay	1	0.473	1	1
13	248.12	1.127	loss-noreward	ChosenDisplay		0.0		
13	249.22	0.25	loss-noreward	TurnDisplay				
13	249.47	0.75	loss-noreward	OutcomeDisplay				
14	250.22		loss-reward	ImageDisplay1		0.0		
14	252.47	0.75	loss-reward	StartDisplay				
14	253.22		loss-reward	ImageDisplay2		0.0		
14	256.22	1.6	loss-reward	ChoiceDisplay	1	0.61	1	1
14	256.853	0.99	loss-reward	ChosenDisplay		0.0		
14	257.82	0.25	loss-reward	TurnDisplay				
14	258.07	0.75	loss-reward	OutcomeDisplay				
15	258.82		control-noreward	ImageDisplay1		0.0		
15	260.82	0.75	control-noreward	StartDisplay				
15	261.57		control-noreward	ImageDisplay2		0.0		
15	264.819	1.6	control-noreward	ChoiceDisplay	1	0.496	1	1
15	265.336	1.104	control-noreward	ChosenDisplay		0.0		
15	266.419	0.25	control-noreward	TurnDisplay				
15	266.669	0.75	control-noreward	OutcomeDisplay				
16	267.419		win-reward	ImageDisplay1		0.0		
16	269.419	0.75	win-reward	StartDisplay				
16	270.169		win-reward	ImageDisplay2		0.0		
16	273.419	1.6	win-reward	ChoiceDisplay	1	0.459	1	1
16	273.903	1.141	win-reward	ChosenDisplay		0.0		
16	275.019	0.25	win-reward	TurnDisplay				
16	275.269	0.75	win-reward	OutcomeDisplay				
17	276.019		control-noreward	ImageDisplay1		0.0		
17	278.019	0.75	control-noreward	StartDisplay				
17	278.769		control-noreward	ImageDisplay2		0.0		
17	282.019	1.6	control-noreward	ChoiceDisplay	1	0.517	1	1
17	282.552	1.083	control-noreward	ChosenDisplay		0.0		
17	283.619	0.25	control-noreward	TurnDisplay				
17	283.869	0.75	control-noreward	OutcomeDisplay				
18	284.619		control-reward	ImageDisplay1		0.0		
18	286.619	0.75	control-reward	StartDisplay				
18	287.369		control-reward	ImageDisplay2		0.0		
18	290.619	1.6	control-reward	ChoiceDisplay	1	0.464	1	1
18	291.102	1.136	control-reward	ChosenDisplay		0.0		
18	292.219	0.25	control-reward	TurnDisplay				
18	292.469	0.75	control-reward	OutcomeDisplay				
19	293.219		control-reward	ImageDisplay1		0.0		
19	295.219	0.75	control-reward	StartDisplay				
19	295.969		control-reward	ImageDisplay2		0.0		
19	299.219	1.6	control-reward	ChoiceDisplay	1	0.596	1	1
19	299.835	1.004	control-reward	ChosenDisplay		0.0		
19	300.819	0.25	control-reward	TurnDisplay				
19	301.068	0.75	control-reward	OutcomeDisplay				
20	301.818		loss-reward	ImageDisplay1		0.0		
20	304.068	0.75	loss-reward	StartDisplay				
20	304.818		loss-reward	ImageDisplay2		0.0		
20	307.818	1.6	loss-reward	ChoiceDisplay	1	0.603	1	1
20	308.435	0.997	loss-reward	ChosenDisplay		0.0		
20	309.418	0.25	loss-reward	TurnDisplay				
20	309.668	0.75	loss-reward	OutcomeDisplay				
21	310.418		loss-reward	ImageDisplay1		0.0		
21	312.668	0.75	loss-reward	StartDisplay				
21	313.418		loss-reward	ImageDisplay2		0.0		
21	316.418	1.6	loss-reward	ChoiceDisplay	1	0.411	1	1
21	316.851	1.189	loss-reward	ChosenDisplay		0.0		
21	318.018	0.25	loss-reward	TurnDisplay				
21	318.268	0.75	loss-reward	OutcomeDisplay				
22	319.018		loss-noreward	ImageDisplay1		0.0		
22	321.268	0.75	loss-noreward	StartDisplay				
22	322.018		loss-noreward	ImageDisplay2		0.0		
22	325.018	1.6	loss-noreward	ChoiceDisplay	1	0.51	1	1
22	325.551	1.09	loss-noreward	ChosenDisplay		0.0		
22	326.618	0.25	loss-noreward	TurnDisplay				
22	326.868	0.75	loss-noreward	OutcomeDisplay				
23	327.618		control-reward	ImageDisplay1		0.0		
23	329.868	0.75	control-reward	StartDisplay				
23	330.618		control-reward	ImageDisplay2		0.0		
23	333.618	1.6	control-reward	ChoiceDisplay	1	0.625	1	1
23	334.268	0.975	control-reward	ChosenDisplay		0.0		
23	335.218	0.25	control-reward	TurnDisplay				
23	335.468	0.75	control-reward	OutcomeDisplay				
24	336.218		win-noreward	ImageDisplay1		0.0		
24	338.467	0.75	win-noreward	StartDisplay				
24	339.217		win-noreward	ImageDisplay2		0.0		
24	342.217	1.6	win-noreward	ChoiceDisplay	1	0.579	1	1
24	342.817	1.021	win-noreward	ChosenDisplay		0.0		
24	343.817	0.25	win-noreward	TurnDisplay				
24	344.067	0.75	win-noreward	OutcomeDisplay				
25	344.817		control-reward	ImageDisplay1		0.0		
25	347.067	0.75	control-reward	StartDisplay				
25	347.817		control-reward	ImageDisplay2		0.0		
25	350.817	1.6	control-reward	ChoiceDisplay	1	0.543	1	1
25	351.384	1.057	control-reward	ChosenDisplay		0.0		
25	352.417	0.25	control-reward	TurnDisplay				
25	352.667	0.75	control-reward	OutcomeDisplay				
26	353.417		control-noreward	ImageDisplay1		0.0		
26	355.667	0.75	control-noreward	StartDisplay				
26	356.417		control-noreward	ImageDisplay2		0.0		
26	359.417	1.6	control-noreward	ChoiceDisplay	1	0.504	1	1
26	359.934	1.096	control-noreward	ChosenDisplay		0.0		
26	361.017	0.25	control-noreward	TurnDisplay				
26	361.267	0.75	control-noreward	OutcomeDisplay				
27	362.017		loss-reward	ImageDisplay1		0.0		
27	364.017	0.75	loss-reward	StartDisplay				
27	364.767		loss-reward	ImageDisplay2		0.0		
27	368.017	1.6	loss-reward	ChoiceDisplay	1	0.487	1	1
27	368.517	1.113	loss-reward	ChosenDisplay		0.0		
27	369.617	0.25	loss-reward	TurnDisplay				
27	369.867	0.75	loss-reward	OutcomeDisplay				
28	370.617		control-noreward	ImageDisplay1		0.0		
28	372.617	0.75	control-noreward	StartDisplay				
28	373.367		control-noreward	ImageDisplay2		0.0		
28	376.616	1.6	control-noreward	ChoiceDisplay	1	0.909	1	1
28	377.55	0.691	control-noreward	ChosenDisplay		0.0		
28	378.216	0.25	control-noreward	TurnDisplay				
28	378.466	0.75	control-noreward	OutcomeDisplay				
29	379.216		win-noreward	ImageDisplay1		0.0		
29	381.216	0.75	win-noreward	StartDisplay				
29	381.966		win-noreward	ImageDisplay2		0.0		
29	385.216	1.6	win-noreward	ChoiceDisplay	1	0.546	1	1
29	385.783	1.054	win-noreward	ChosenDisplay		0.0		
29	386.816	0.25	win-noreward	TurnDisplay				
29	387.066	0.75	win-noreward	OutcomeDisplay				
30	387.816		control-reward	ImageDisplay1		0.0		
30	390.066	0.75	control-reward	StartDisplay				
30	390.816		control-reward	ImageDisplay2		0.0		
30	393.816	1.6	control-reward	ChoiceDisplay	1	0.559	1	1
30	394.399	1.041	control-reward	ChosenDisplay		0.0		
30	395.416	0.25	control-reward	TurnDisplay				
30	395.666	0.75	control-reward	OutcomeDisplay				
31	396.416		control-reward	ImageDisplay1		0.0		
31	398.666	0.75	control-reward	StartDisplay				
31	399.416		control-reward	ImageDisplay2		0.0		
31	402.416	1.6	control-reward	ChoiceDisplay	1	0.676	1	1
31	403.116	0.924	control-reward	ChosenDisplay		0.0		
31	404.016	0.25	control-reward	TurnDisplay				
31	404.266	0.75	control-reward	OutcomeDisplay				
32	405.016		win-noreward	ImageDisplay1		0.0		
32	407.266	0.75	win-noreward	StartDisplay				
32	408.016		win-noreward	ImageDisplay2		0.0		
32	411.015	1.6	win-noreward	ChoiceDisplay	1	0.425	1	1
32	411.465	1.175	win-noreward	ChosenDisplay		0.0		
32	412.615	0.25	win-noreward	TurnDisplay				
32	412.865	0.75	win-noreward	OutcomeDisplay				
33	413.615		control-reward	ImageDisplay1		0.0		
33	415.615	0.75	control-reward	StartDisplay				
33	416.365		control-reward	ImageDisplay2		0.0		
33	419.615	1.6	control-reward	ChoiceDisplay	1	0.572	1	1
33	420.199	1.028	control-reward	ChosenDisplay		0.0		
33	421.215	0.25	control-reward	TurnDisplay				
33	421.465	0.75	control-reward	OutcomeDisplay				
34	422.215		control-noreward	ImageDisplay1		0.0		
34	424.465	0.75	control-noreward	StartDisplay				
34	425.215		control-noreward	ImageDisplay2		0.0		
34	428.215	1.6	control-noreward	ChoiceDisplay	1	0.643	1	1
34	428.882	0.957	control-noreward	ChosenDisplay		0.0		
34	429.815	0.25	control-noreward	TurnDisplay				
34	430.065	0.75	control-noreward	OutcomeDisplay				
35	430.815		loss-reward	ImageDisplay1		0.0		
35	432.815	0.75	loss-reward	StartDisplay				
35	433.565		loss-reward	ImageDisplay2		0.0		
35	436.815	1.6	loss-reward	ChoiceDisplay	1	0.511	1	1
35	437.348	1.089	loss-reward	ChosenDisplay		0.0		
35	438.415	0.25	loss-reward	TurnDisplay				
35	438.665	0.75	loss-reward	OutcomeDisplay				
36	439.415		loss-noreward	ImageDisplay1		0.0		
36	441.415	0.75	loss-noreward	StartDisplay				
36	442.165		loss-noreward	ImageDisplay2		0.0		
36	445.415	1.6	loss-noreward	ChoiceDisplay	1	0.727	1	1
36	446.165	0.873	loss-noreward	ChosenDisplay		0.0		
36	447.014	0.25	loss-noreward	TurnDisplay				
36	447.264	0.75	loss-noreward	OutcomeDisplay				
37	448.014		control-noreward	ImageDisplay1		0.0		
37	450.014	0.75	control-noreward	StartDisplay				
37	450.764		control-noreward	ImageDisplay2		0.0		
37	454.014	1.6	control-noreward	ChoiceDisplay	1	0.527	1	1
37	454.564	1.073	control-noreward	ChosenDisplay		0.0		
37	455.614	0.25	control-noreward	TurnDisplay				
37	455.864	0.75	control-noreward	OutcomeDisplay				
38	456.614		control-noreward	ImageDisplay1		0.0		
38	458.864	0.75	control-noreward	StartDisplay				
38	459.614		control-noreward	ImageDisplay2		0.0		
38	462.614	1.6	control-noreward	ChoiceDisplay	1	0.612	1	1
38	463.247	0.988	control-noreward	ChosenDisplay		0.0		
38	464.214	0.25	control-noreward	TurnDisplay				
38	464.464	0.75	control-noreward	OutcomeDisplay				
39	465.214		loss-reward	ImageDisplay1		0.0		
39	467.214	0.75	loss-reward	StartDisplay				
39	467.964		loss-reward	ImageDisplay2		0.0		
39	471.214	1.6	loss-reward	ChoiceDisplay	1	0.668	1	1
39	471.897	0.932	loss-reward	ChosenDisplay		0.0		
39	472.814	0.25	loss-reward	TurnDisplay				
39	473.064	0.75	loss-reward	OutcomeDisplay				
40	473.814		win-reward	ImageDisplay1		0.0		
40	475.814	0.75	win-reward	StartDisplay				
40	476.564		win-reward	ImageDisplay2		0.0		
40	479.814	1.6	win-reward	ChoiceDisplay	1	0.453	1	1
40	480.28	1.147	win-reward	ChosenDisplay		0.0		
40	481.414	0.25	win-reward	TurnDisplay				
40	481.664	0.75	win-reward	OutcomeDisplay				
41	482.414		win-noreward	ImageDisplay1		0.0		
41	484.663	0.75	win-noreward	StartDisplay				
41	485.413		win-noreward	ImageDisplay2		0.0		
41	488.413	1.6	win-noreward	ChoiceDisplay	1	0.688	1	1
41	489.113	0.912	win-noreward	ChosenDisplay		0.0		
41	490.013	0.25	win-noreward	TurnDisplay				
41	490.263	0.75	win-noreward	OutcomeDisplay				
42	491.013		loss-noreward	ImageDisplay1		0.0		
42	493.263	0.75	loss-noreward	StartDisplay				
42	494.013		loss-noreward	ImageDisplay2		0.0		
42	497.013	1.6	loss-noreward	ChoiceDisplay	1	0.817	1	1
42	497.846	0.783	loss-noreward	ChosenDisplay		0.0		
42	498.613	0.25	loss-noreward	TurnDisplay				
42	498.863	0.75	loss-noreward	OutcomeDisplay				
43	499.613		win-reward	ImageDisplay1		0.0		
43	501.863	0.75	win-reward	StartDisplay				
43	502.613		win-reward	ImageDisplay2		0.0		
43	505.613	1.6	win-reward	ChoiceDisplay	1	0.504	1	1
43	506.13	1.096	win-reward	ChosenDisplay		0.0		
43	507.213	0.25	win-reward	TurnDisplay				
43	507.463	0.75	win-reward	OutcomeDisplay				
44	508.213		control-reward	ImageDisplay1		0.0		
44	510.463	0.75	control-reward	StartDisplay				
44	511.213		control-reward	ImageDisplay2		0.0		
44	514.213	1.6	control-reward	ChoiceDisplay	1	0.762	1	1
44	514.996	0.838	control-reward	ChosenDisplay		0.0		
44	515.813	0.25	control-reward	TurnDisplay				
44	516.063	0.75	control-reward	OutcomeDisplay				
45	516.813		loss-reward	ImageDisplay1		0.0		
45	518.813	0.75	loss-reward	StartDisplay				
45	519.562		loss-reward	ImageDisplay2		0.0		
45	522.812	1.6	loss-reward	ChoiceDisplay	1	0.532	1	1
45	523.362	1.068	loss-reward	ChosenDisplay		0.0		
45	524.412	0.25	loss-reward	TurnDisplay				
45	524.662	0.75	loss-reward	OutcomeDisplay				
46	525.412		win-reward	ImageDisplay1		0.0		
46	527.662	0.75	win-reward	StartDisplay				
46	528.412		win-reward	ImageDisplay2		0.0		
46	531.412	1.6	win-reward	ChoiceDisplay	1	1.376	1	1
46	532.812	0.224	win-reward	ChosenDisplay		0.0		
46	533.012	0.25	win-reward	TurnDisplay				
46	533.262	0.75	win-reward	OutcomeDisplay				
47	534.012		win-noreward	ImageDisplay1		0.0		
47	536.012	0.75	win-noreward	StartDisplay				
47	536.762		win-noreward	ImageDisplay2		0.0		
47	540.012	1.6	win-noreward	ChoiceDisplay	1	0.699	1	1
47	540.729	0.901	win-noreward	ChosenDisplay		0.0		
47	541.612	0.25	win-noreward	TurnDisplay				
47	541.862	0.75	win-noreward	OutcomeDisplay				
48	542.612		loss-reward	ImageDisplay1		0.0		
48	544.862	0.75	loss-reward	StartDisplay				
48	545.612		loss-reward	ImageDisplay2		0.0		
48	548.612	1.6	loss-reward	ChoiceDisplay	1	0.882	1	1
48	549.512	0.718	loss-reward	ChosenDisplay		0.0		
48	550.212	0.25	loss-reward	TurnDisplay				
48	550.462	0.75	loss-reward	OutcomeDisplay				
49	551.212		loss-reward	ImageDisplay1		0.0		
49	553.462	0.75	loss-reward	StartDisplay				
49	554.212		loss-reward	ImageDisplay2		0.0		
49	557.211	1.6	loss-reward	ChoiceDisplay	1	0.753	1	1
49	557.978	0.847	loss-reward	ChosenDisplay		0.0		
49	558.811	0.25	loss-reward	TurnDisplay				
49	559.061	0.75	loss-reward	OutcomeDisplay				
50	559.811		win-reward	ImageDisplay1		0.0		
50	562.061	0.75	win-reward	StartDisplay				
50	562.811		win-reward	ImageDisplay2		0.0		
50	565.811	1.6	win-reward	ChoiceDisplay	1	0.711	1	1
50	566.545	0.889	win-reward	ChosenDisplay		0.0		
50	567.411	0.25	win-reward	TurnDisplay				
50	567.661	0.75	win-reward	OutcomeDisplay				
51	568.411		control-reward	ImageDisplay1		0.0		
51	570.411	0.75	control-reward	StartDisplay				
51	571.161		control-reward	ImageDisplay2		0.0		
51	574.411	1.6	control-reward	ChoiceDisplay	1	0.629	1	1
51	575.061	0.971	control-reward	ChosenDisplay		0.0		
51	576.011	0.25	control-reward	TurnDisplay				
51	576.261	0.75	control-reward	OutcomeDisplay				
52	577.011		loss-reward	ImageDisplay1		0.0		
52	579.261	0.75	loss-reward	StartDisplay				
52	580.011		loss-reward	ImageDisplay2		0.0		
52	583.011	1.6	loss-reward	ChoiceDisplay	1	0.495	1	1
52	583.527	1.105	loss-reward	ChosenDisplay		0.0		
52	584.611	0.25	loss-reward	TurnDisplay				
52	584.861	0.75	loss-reward	OutcomeDisplay				
53	585.611		control-reward	ImageDisplay1		0.0		
53	587.611	0.75	control-reward	StartDisplay				
53	588.361		control-reward	ImageDisplay2		0.0		
53	591.611	1.6	control-reward	ChoiceDisplay	1	0.45	1	1
53	592.077	1.15	control-reward	ChosenDisplay		0.0		
53	593.21	0.25	control-reward	TurnDisplay				
53	593.46	0.75	control-reward	OutcomeDisplay				
54	594.21		loss-noreward	ImageDisplay1		0.0		
54	596.46	0.75	loss-noreward	StartDisplay				
54	597.21		loss-noreward	ImageDisplay2		0.0		
54	600.21	1.6	loss-noreward	ChoiceDisplay	1	0.721	1	1
54	600.944	0.879	loss-noreward	ChosenDisplay		0.0		
54	601.81	0.25	loss-noreward	TurnDisplay				
54	602.06	0.75	loss-noreward	OutcomeDisplay				
55	602.81		control-reward	ImageDisplay1		0.0		
55	605.06	0.75	control-reward	StartDisplay				
55	605.81		control-reward	ImageDisplay2		0.0		
55	608.81	1.6	control-reward	ChoiceDisplay	1	0.606	1	1
55	609.443	0.994	control-reward	ChosenDisplay		0.0		
55	610.41	0.25	control-reward	TurnDisplay				
55	610.66	0.75	control-reward	OutcomeDisplay				
56	611.41		control-reward	ImageDisplay1		0.0		
56	613.41	0.75	control-reward	StartDisplay				
56	614.16		control-reward	ImageDisplay2		0.0		
56	617.41	1.6	control-reward	ChoiceDisplay	1	1.412	1	1
56	618.843	0.188	control-reward	ChosenDisplay		0.0		
56	619.01	0.25	control-reward	TurnDisplay				
56	619.26	0.75	control-reward	OutcomeDisplay				
57	620.01		win-noreward	ImageDisplay1		0.0		
57	622.26	0.75	win-noreward	StartDisplay				
57	623.01		win-noreward	ImageDisplay2		0.0		
57	626.01	1.6	win-noreward	ChoiceDisplay	1	0.512	1	1
57	626.543	1.088	win-noreward	ChosenDisplay		0.0		
57	627.61	0.25	win-noreward	TurnDisplay				
57	627.859	0.75	win-noreward	OutcomeDisplay				
58	628.609		win-reward	ImageDisplay1		0.0		
58	630.609	0.75	win-reward	StartDisplay				
58	631.359		win-reward	ImageDisplay2		0.0		
58	634.609	1.6	win-reward	ChoiceDisplay	1	0.872	1	1
58	635.493	0.728	win-reward	ChosenDisplay		0.0		
58	636.209	0.25	win-reward	TurnDisplay				
58	636.459	0.75	win-reward	OutcomeDisplay				
59	637.209		win-reward	ImageDisplay1		0.0		
59	639.459	0.75	win-reward	StartDisplay				
59	640.209		win-reward	ImageDisplay2		0.0		
59	643.209	1.6	win-reward	ChoiceDisplay	1	0.743	1	1
59	643.976	0.857	win-reward	ChosenDisplay		0.0		
59	644.809	0.25	win-reward	TurnDisplay				
59	645.059	0.75	win-reward	OutcomeDisplay				
60	645.809		loss-noreward	ImageDisplay1		0.0		
60	647.809	0.75	loss-noreward	StartDisplay				
60	648.559		loss-noreward	ImageDisplay2		0.0		
60	651.809	1.6	loss-noreward	ChoiceDisplay	1	0.868	1	1
60	652.692	0.732	loss-noreward	ChosenDisplay		0.0		
60	653.409	0.25	loss-noreward	TurnDisplay				
60	653.659	0.75	loss-noreward	OutcomeDisplay				
61	654.409		control-noreward	ImageDisplay1		0.0		
61	656.409	0.75	control-noreward	StartDisplay				
61	657.159		control-noreward	ImageDisplay2		0.0		
61	660.409	1.6	control-noreward	ChoiceDisplay	1	0.558	1	1
61	660.992	1.042	control-noreward	ChosenDisplay		0.0		
61	662.009	0.25	control-noreward	TurnDisplay				
61	662.259	0.75	control-noreward	OutcomeDisplay				
62	663.009		loss-noreward	ImageDisplay1		0.0		
62	665.258	0.75	loss-noreward	StartDisplay				
62	666.008		loss-noreward	ImageDisplay2		0.0		
62	669.008	1.6	loss-noreward	ChoiceDisplay	1	0.515	1	1
62	669.542	1.085	loss-noreward	ChosenDisplay		0.0		
62	670.608	0.25	loss-noreward	TurnDisplay				
62	670.858	0.75	loss-noreward	OutcomeDisplay				
63	671.608		win-noreward	ImageDisplay1		0.0		
63	673.858	0.75	win-noreward	StartDisplay				
63	674.608		win-noreward	ImageDisplay2		0.0		
63	677.608	1.6	win-noreward	ChoiceDisplay	1	0.822	1	1
63	678.441	0.778	win-noreward	ChosenDisplay		0.0		
63	679.208	0.25	win-noreward	TurnDisplay				
63	679.458	0.75	win-noreward	OutcomeDisplay				
64	680.208		control-noreward	ImageDisplay1		0.0		
64	682.208	0.75	control-noreward	StartDisplay				
64	682.958		control-noreward	ImageDisplay2		0.0		
64	686.208	1.6	control-noreward	ChoiceDisplay	1	0.479	1	1
64	686.708	1.121	control-noreward	ChosenDisplay		0.0		
64	687.808	0.25	control-noreward	TurnDisplay				
64	688.058	0.75	control-noreward	OutcomeDisplay				
65	688.808		loss-reward	ImageDisplay1		0.0		
65	691.058	0.75	loss-reward	StartDisplay				
65	691.808		loss-reward	ImageDisplay2		0.0		
65	694.808	1.6	loss-reward	ChoiceDisplay	1	0.978	1	1
65	695.808	0.622	loss-reward	ChosenDisplay		0.0		
65	696.408	0.25	loss-reward	TurnDisplay				
65	696.658	0.75	loss-reward	OutcomeDisplay				
66	697.408		win-noreward	ImageDisplay1		0.0		
66	699.408	0.75	win-noreward	StartDisplay				
66	700.157		win-noreward	ImageDisplay2		0.0		
66	703.407	1.6	win-noreward	ChoiceDisplay	1	0.659	1	1
66	704.091	0.941	win-noreward	ChosenDisplay		0.0		
66	705.007	0.25	win-noreward	TurnDisplay				
66	705.257	0.75	win-noreward	OutcomeDisplay				
67	706.007		control-noreward	ImageDisplay1		0.0		
67	708.007	0.75	control-noreward	StartDisplay				
67	708.757		control-noreward	ImageDisplay2		0.0		
67	712.007	1.6	control-noreward	ChoiceDisplay	1	0.836	1	1
67	712.857	0.764	control-noreward	ChosenDisplay		0.0		
67	713.607	0.25	control-noreward	TurnDisplay				
67	713.857	0.75	control-noreward	OutcomeDisplay				
68	714.607		loss-reward	ImageDisplay1		0.0		
68	716.857	0.75	loss-reward	StartDisplay				
68	717.607		loss-reward	ImageDisplay2		0.0		
68	720.607	1.6	loss-reward	ChoiceDisplay	1	0.769	1	1
68	721.39	0.831	loss-reward	ChosenDisplay		0.0		
68	722.207	0.25	loss-reward	TurnDisplay				
68	722.457	0.75	loss-reward	OutcomeDisplay				
69	723.207		control-reward	ImageDisplay1		0.0		
69	725.457	0.75	control-reward	StartDisplay				
69	726.207		control-reward	ImageDisplay2		0.0		
69	729.207	1.6	control-reward	ChoiceDisplay	1	0.777	1	1
69	730.007	0.823	control-reward	ChosenDisplay		0.0		
69	730.807	0.25	control-reward	TurnDisplay				
69	731.057	0.75	control-reward	OutcomeDisplay				
70	731.807		win-reward	ImageDisplay1		0.0		
70	733.807	0.75	win-reward	StartDisplay				
70	734.557		win-reward	ImageDisplay2		0.0		
70	737.806	1.6	win-reward	ChoiceDisplay	1	0.781	1	1
70	738.606	0.819	win-reward	ChosenDisplay		0.0		
70	739.406	0.25	win-reward	TurnDisplay				
70	739.656	0.75	win-reward	OutcomeDisplay				
71	740.406		loss-reward	ImageDisplay1		0.0		
71	742.406	0.75	loss-reward	StartDisplay				
71	743.156		loss-reward	ImageDisplay2		0.0		
71	746.406	1.6	loss-reward	ChoiceDisplay	1	0.615	1	1
71	747.04	0.985	loss-reward	ChosenDisplay		0.0		
71	748.006	0.25	loss-reward	TurnDisplay				
71	748.256	0.75	loss-reward	OutcomeDisplay				
72	749.006		loss-noreward	ImageDisplay1		0.0		
72	751.006	0.75	loss-noreward	StartDisplay				
72	751.756		loss-noreward	ImageDisplay2		0.0		
72	755.006	1.6	loss-noreward	ChoiceDisplay	1	0.992	1	1
72	756.023	0.608	loss-noreward	ChosenDisplay		0.0		
72	756.606	0.25	loss-noreward	TurnDisplay				
72	756.856	0.75	loss-noreward	OutcomeDisplay				
73	757.606		win-reward	ImageDisplay1		0.0		
73	759.606	0.75	win-reward	StartDisplay				
73	760.356		win-reward	ImageDisplay2		0.0		
73	763.606	1.6	win-reward	ChoiceDisplay	1	0.503	1	1
73	764.122	1.097	win-reward	ChosenDisplay		0.0		
73	765.206	0.25	win-reward	TurnDisplay				
73	765.456	0.75	win-reward	OutcomeDisplay				
74	766.206		win-noreward	ImageDisplay1		0.0		
74	768.206	0.75	win-noreward	StartDisplay				
74	768.956		win-noreward	ImageDisplay2		0.0		
74	772.206	1.6	win-noreward	ChoiceDisplay	1	1.131	1	1
74	773.355	0.469	win-noreward	ChosenDisplay		0.0		
74	773.805	0.25	win-noreward	TurnDisplay				
74	774.055	0.75	win-noreward	OutcomeDisplay				
75	774.805		win-reward	ImageDisplay1		0.0		
75	777.055	0.75	win-reward	StartDisplay				
75	777.805		win-reward	ImageDisplay2		0.0		
75	780.805	1.6	win-reward	ChoiceDisplay	1	0.81	1	1
75	781.639	0.79	win-reward	ChosenDisplay		0.0		
75	782.405	0.25	win-reward	TurnDisplay				
75	782.655	0.75	win-reward	OutcomeDisplay				
76	783.405		loss-noreward	ImageDisplay1		0.0		
76	785.655	0.75	loss-noreward	StartDisplay				
76	786.405		loss-noreward	ImageDisplay2		0.0		
76	789.405	1.6	loss-noreward	ChoiceDisplay	1	0.623	1	1
76	790.055	0.977	loss-noreward	ChosenDisplay		0.0		
76	791.005	0.25	loss-noreward	TurnDisplay				
76	791.255	0.75	loss-noreward	OutcomeDisplay				
77	792.005		win-reward	ImageDisplay1		0.0		
77	794.005	0.75	win-reward	StartDisplay				
77	794.755		win-reward	ImageDisplay2		0.0		
77	798.005	1.6	win-reward	ChoiceDisplay	1	0.67	1	1
77	798.688	0.93	win-reward	ChosenDisplay		0.0		
77	799.605	0.25	win-reward	TurnDisplay				
77	799.855	0.75	win-reward	OutcomeDisplay				
78	800.605		loss-noreward	ImageDisplay1		0.0		
78	802.605	0.75	loss-noreward	StartDisplay				
78	803.355		loss-noreward	ImageDisplay2		0.0		
78	806.605	1.6	loss-noreward	ChoiceDisplay	1	0.52	1	1
78	807.138	1.08	loss-noreward	ChosenDisplay		0.0		
78	808.205	0.25	loss-noreward	TurnDisplay				
78	808.455	0.75	loss-noreward	OutcomeDisplay				
79	809.204		control-noreward	ImageDisplay1		0.0		
79	811.454	0.75	control-noreward	StartDisplay				
79	812.204		control-noreward	ImageDisplay2		0.0		
79	815.204	1.6	control-noreward	ChoiceDisplay	1	0.748	1	1
79	815.971	0.852	control-noreward	ChosenDisplay		0.0		
79	816.804	0.25	control-noreward	TurnDisplay				
79	817.054	0.75	control-noreward	OutcomeDisplay				
80	817.804		loss-reward	ImageDisplay1		0.0		
80	819.804	0.75	loss-reward	StartDisplay				
80	820.554		loss-reward	ImageDisplay2		0.0		
80	823.804	1.6	loss-reward	ChoiceDisplay	1	0.786	1	1
80	824.604	0.814	loss-reward	ChosenDisplay		0.0		
80	825.404	0.25	loss-reward	TurnDisplay				
80	825.654	0.75	loss-reward	OutcomeDisplay				
81	826.404		win-reward	ImageDisplay1		0.0		
81	828.404	0.75	win-reward	StartDisplay				
81	829.154		win-reward	ImageDisplay2		0.0		
81	832.404	1.6	win-reward	ChoiceDisplay	1	0.562	1	1
81	832.987	1.038	win-reward	ChosenDisplay		0.0		
81	834.004	0.25	win-reward	TurnDisplay				
81	834.254	0.75	win-reward	OutcomeDisplay				
82	835.004		win-noreward	ImageDisplay1		0.0		
82	837.004	0.75	win-noreward	StartDisplay				
82	837.754		win-noreward	ImageDisplay2		0.0		
82	841.004	1.6	win-noreward	ChoiceDisplay		0.0		
82	842.604	0.0	win-noreward	ChosenDisplay		0.0		
82	842.62	0.25	win-noreward	TurnDisplay				
82	842.854	0.75	win-noreward	OutcomeDisplay				
83	843.604		win-noreward	ImageDisplay1		0.0		
83	845.853	0.75	win-noreward	StartDisplay				
83	846.603		win-noreward	ImageDisplay2		0.0		
83	849.603	1.6	win-noreward	ChoiceDisplay	1	0.724	1	1
83	850.353	0.876	win-noreward	ChosenDisplay		0.0		
83	851.203	0.25	win-noreward	TurnDisplay				
83	851.453	0.75	win-noreward	OutcomeDisplay				
84	852.203		win-noreward	ImageDisplay1		0.0		
84	854.203	0.75	win-noreward	StartDisplay				
84	854.953		win-noreward	ImageDisplay2		0.0		
84	858.203	1.6	win-noreward	ChoiceDisplay	1	0.747	1	1
84	858.97	0.853	win-noreward	ChosenDisplay		0.0		
84	859.803	0.25	win-noreward	TurnDisplay				
84	860.053	0.75	win-noreward	OutcomeDisplay				
85	860.803		loss-reward	ImageDisplay1		0.0		
85	862.803	0.75	loss-reward	StartDisplay				
85	863.553		loss-reward	ImageDisplay2		0.0		
85	866.803	1.6	loss-reward	ChoiceDisplay		0.0		
85	868.403	0.0	loss-reward	ChosenDisplay		0.0		
85	868.42	0.25	loss-reward	TurnDisplay				
85	868.653	0.75	loss-reward	OutcomeDisplay				
86	869.403		win-reward	ImageDisplay1		0.0		
86	871.653	0.75	win-reward	StartDisplay				
86	872.403		win-reward	ImageDisplay2		0.0		
86	875.403	1.6	win-reward	ChoiceDisplay	1	0.541	1	1
86	875.969	1.059	win-reward	ChosenDisplay		0.0		
86	877.003	0.25	win-reward	TurnDisplay				
86	877.253	0.75	win-reward	OutcomeDisplay				
87	878.003		control-reward	ImageDisplay1		0.0		
87	880.003	0.75	control-reward	StartDisplay				
87	880.753		control-reward	ImageDisplay2		0.0		
87	884.002	1.6	control-reward	ChoiceDisplay	1	0.872	1	1
87	884.886	0.728	control-reward	ChosenDisplay		0.0		
87	885.602	0.25	control-reward	TurnDisplay				
87	885.852	0.75	control-reward	OutcomeDisplay				
88	886.602		loss-noreward	ImageDisplay1		0.0		
88	888.852	0.75	loss-noreward	StartDisplay				
88	889.602		loss-noreward	ImageDisplay2		0.0		
88	892.602	1.6	loss-noreward	ChoiceDisplay	1	0.686	1	1
88	893.302	0.914	loss-noreward	ChosenDisplay		0.0		
88	894.202	0.25	loss-noreward	TurnDisplay				
88	894.452	0.75	loss-noreward	OutcomeDisplay				
89	895.202		loss-noreward	ImageDisplay1		0.0		
89	897.452	0.75	loss-noreward	StartDisplay				
89	898.202		loss-noreward	ImageDisplay2		0.0		
89	901.202	1.6	loss-noreward	ChoiceDisplay	1	0.683	1	1
89	901.902	0.917	loss-noreward	ChosenDisplay		0.0		
89	902.802	0.25	loss-noreward	TurnDisplay				
89	903.052	0.75	loss-noreward	OutcomeDisplay				
90	903.802		loss-reward	ImageDisplay1		0.0		
90	905.802	0.75	loss-reward	StartDisplay				
90	906.552		loss-reward	ImageDisplay2		0.0		
90	909.802	1.6	loss-reward	ChoiceDisplay	1	0.477	1	1
90	910.302	1.123	loss-reward	ChosenDisplay		0.0		
90	911.402	0.25	loss-reward	TurnDisplay				
90	911.652	0.75	loss-reward	OutcomeDisplay				
91	912.402		control-reward	ImageDisplay1		0.0		
91	914.402	0.75	control-reward	StartDisplay				
91	915.152		control-reward	ImageDisplay2		0.0		
91	918.402	1.6	control-reward	ChoiceDisplay	1	0.551	1	1
91	918.968	1.049	control-reward	ChosenDisplay		0.0		
91	920.001	0.25	control-reward	TurnDisplay				
91	920.251	0.75	control-reward	OutcomeDisplay				
92	921.001		control-noreward	ImageDisplay1		0.0		
92	923.251	0.75	control-noreward	StartDisplay				
92	924.001		control-noreward	ImageDisplay2		0.0		
92	927.001	1.6	control-noreward	ChoiceDisplay	1	0.628	1	1
92	927.651	0.972	control-noreward	ChosenDisplay		0.0		
92	928.601	0.25	control-noreward	TurnDisplay				
92	928.851	0.75	control-noreward	OutcomeDisplay				
93	929.601		win-noreward	ImageDisplay1		0.0		
93	931.601	0.75	win-noreward	StartDisplay				
93	932.351		win-noreward	ImageDisplay2		0.0		
93	935.601	1.6	win-noreward	ChoiceDisplay	1	0.474	1	1
93	936.101	1.126	win-noreward	ChosenDisplay		0.0		
93	937.201	0.25	win-noreward	TurnDisplay				
93	937.451	0.75	win-noreward	OutcomeDisplay				
94	938.201		control-noreward	ImageDisplay1		0.0		
94	940.451	0.75	control-noreward	StartDisplay				
94	941.201		control-noreward	ImageDisplay2		0.0		
94	944.201	1.6	control-noreward	ChoiceDisplay	1	0.675	1	1
94	944.901	0.925	control-noreward	ChosenDisplay		0.0		
94	945.801	0.25	control-noreward	TurnDisplay				
94	946.051	0.75	control-noreward	OutcomeDisplay				
95	946.801		control-noreward	ImageDisplay1		0.0		
95	949.051	0.75	control-noreward	StartDisplay				
95	949.801		control-noreward	ImageDisplay2		0.0		
95	952.801	1.6	control-noreward	ChoiceDisplay	1	0.873	1	1
95	953.701	0.727	control-noreward	ChosenDisplay		0.0		
95	954.401	0.25	control-noreward	TurnDisplay				
95	954.65	0.75	control-noreward	OutcomeDisplay				
