onset	duration	trial_type	response_time	stim_file	accuracy
66.206	1.0	go	0.875	Go_O	1.0
68.73	1.0	go	0.54	Go_X	1.0
71.271	1.0	go	0.3	Go_O	1.0
73.795	1.0	go	0.607	Go_X	1.0
76.319	1.0	go	0.713	Go_O	1.0
78.843	1.0	go	0.49	Go_X	1.0
81.368	0.25	stop	0.0	Go_O	1.0
83.892	1.0	go	0.512	Go_O	1.0
86.416	0.3	stop	0.0	Go_X	1.0
88.94	1.0	go	0.546	Go_X	1.0
91.465	1.0	go	0.543	Go_O	1.0
93.989	1.0	go	0.443	Go_X	1.0
96.53	0.35	stop	0.346	Go_O	0.0
99.071	1.0	go	0.406	Go_X	1.0
101.595	1.0	go	0.735	Go_O	1.0
104.136	0.3	stop	0.385	Go_X	0.0
106.677	0.25	stop	0.0	Go_O	1.0
109.217	1.0	go	0.559	Go_O	1.0
111.742	1.0	go	0.729	Go_X	1.0
114.266	0.3	stop	0.0	Go_X	1.0
116.807	1.0	go	0.504	Go_X	1.0
119.348	1.0	go	0.346	Go_O	1.0
121.872	0.35	stop	0.0	Go_O	1.0
124.396	1.0	go	0.572	Go_O	1.0
126.92	1.0	go	0.463	Go_X	1.0
129.445	0.4	stop	0.0	Go_X	1.0
131.986	1.0	go	0.614	Go_O	1.0
134.51	1.0	go	0.895	Go_X	1.0
137.051	0.45	stop	0.525	Go_O	0.0
139.591	1.0	go	0.685	Go_O	1.0
142.116	1.0	go	0.609	Go_X	1.0
144.64	1.0	go	0.533	Go_O	1.0
147.164	1.0	go	0.667	Go_X	1.0
149.688	1.0	go	0.893	Go_X	1.0
152.213	0.4	stop	0.5	Go_X	0.0
154.737	1.0	go	0.692	Go_O	1.0
157.261	1.0	go	0.406	Go_X	1.0
159.785	1.0	go	0.613	Go_O	1.0
162.309	1.0	go	0.6	Go_X	1.0
164.834	1.0	go	0.471	Go_O	1.0
167.358	0.35	stop	0.0	Go_O	1.0
169.899	1.0	go	0.641	Go_O	1.0
172.423	1.0	go	0.606	Go_X	1.0
174.964	1.0	go	0.618	Go_O	1.0
177.505	1.0	go	0.551	Go_X	1.0
180.046	1.0	go	0.502	Go_O	1.0
182.57	1.0	go	0.493	Go_X	1.0
185.094	0.4	stop	0.475	Go_X	0.0
187.618	1.0	go	0.721	Go_X	1.0
190.142	1.0	go	0.612	Go_O	1.0
192.667	0.35	stop	0.0	Go_O	1.0
195.208	1.0	go	0.49	Go_X	1.0
197.732	0.4	stop	0.405	Go_X	0.0
200.273	0.35	stop	0.405	Go_O	0.0
202.814	1.0	go	0.588	Go_O	1.0
205.355	1.0	go	0.468	Go_X	1.0
207.879	1.0	go	0.501	Go_O	1.0
210.403	1.0	go	0.583	Go_X	1.0
212.927	0.3	stop	0.461	Go_X	0.0
215.468	1.0	go	0.527	Go_O	1.0
217.992	0.25	stop	0.0	Go_O	1.0
220.516	1.0	go	0.681	Go_X	1.0
223.041	1.0	go	0.499	Go_O	1.0
225.565	1.0	go	0.453	Go_O	1.0
228.106	1.0	go	0.666	Go_X	1.0
230.647	1.0	go	0.635	Go_X	1.0
233.171	1.0	go	0.397	Go_O	1.0
235.695	1.0	go	0.444	Go_X	1.0
238.219	1.0	go	0.437	Go_O	1.0
240.744	1.0	go	0.789	Go_X	1.0
243.268	0.3	stop	0.0	Go_X	1.0
245.809	1.0	go	0.486	Go_O	1.0
248.333	1.0	go	0.81	Go_X	1.0
250.857	1.0	go	0.0	Go_O	0.0
253.381	0.35	stop	0.514	Go_O	0.0
255.905	1.0	go	0.5	Go_X	1.0
258.43	1.0	go	0.474	Go_O	1.0
260.954	1.0	go	0.812	Go_O	1.0
263.478	1.0	go	0.681	Go_X	1.0
266.002	1.0	go	0.639	Go_O	1.0
268.526	1.0	go	0.652	Go_X	1.0
271.051	0.3	stop	0.0	Go_X	1.0
273.592	1.0	go	0.522	Go_O	1.0
276.116	1.0	go	0.784	Go_X	1.0
278.64	0.35	stop	0.0	Go_O	1.0
281.181	1.0	go	0.347	Go_X	1.0
283.705	1.0	go	0.592	Go_O	1.0
286.246	0.4	stop	0.0	Go_X	1.0
288.787	1.0	go	0.52	Go_O	1.0
291.311	0.45	stop	0.0	Go_O	1.0
293.835	1.0	go	0.786	Go_X	1.0
296.36	1.0	go	0.555	Go_X	1.0
298.9	1.0	go	0.648	Go_O	1.0
301.425	1.0	go	0.621	Go_O	1.0
303.949	1.0	go	0.524	Go_X	1.0
306.49	0.5	stop	0.547	Go_X	0.0
309.014	0.45	stop	0.53	Go_O	0.0
311.555	1.0	go	0.679	Go_X	1.0
314.079	1.0	go	0.689	Go_O	1.0
316.603	0.4	stop	0.508	Go_X	0.0
319.128	1.0	go	0.446	Go_O	1.0
321.668	1.0	go	0.465	Go_X	1.0
324.193	1.0	go	0.487	Go_X	1.0
326.717	1.0	go	0.673	Go_O	1.0
329.258	1.0	go	0.468	Go_X	1.0
331.782	1.0	go	0.425	Go_O	1.0
334.306	0.35	stop	0.0	Go_O	1.0
336.847	1.0	go	0.517	Go_X	1.0
339.371	1.0	go	0.352	Go_O	1.0
341.912	1.0	go	0.498	Go_O	1.0
344.436	1.0	go	0.594	Go_X	1.0
346.961	1.0	go	0.43	Go_O	1.0
349.485	0.4	stop	0.547	Go_X	0.0
352.026	1.0	go	0.498	Go_X	1.0
354.567	1.0	go	0.487	Go_X	1.0
357.091	1.0	go	0.417	Go_O	1.0
359.615	1.0	go	0.452	Go_X	1.0
362.139	0.35	stop	0.0	Go_O	1.0
364.663	1.0	go	0.565	Go_O	1.0
367.188	1.0	go	0.675	Go_O	1.0
369.712	0.4	stop	0.421	Go_X	0.0
372.253	1.0	go	0.0	Go_X	0.0
374.777	0.35	stop	0.414	Go_O	0.0
377.318	1.0	go	0.901	Go_X	1.0
379.842	1.0	go	0.0	Go_O	0.0
382.366	1.0	go	0.803	Go_O	1.0
384.891	1.0	go	0.545	Go_X	1.0
387.415	1.0	go	0.57	Go_O	1.0
389.939	1.0	go	0.421	Go_X	1.0
392.48	1.0	go	0.604	Go_X	1.0
395.004	0.3	stop	0.0	Go_X	1.0
397.545	1.0	go	0.458	Go_O	1.0
400.069	1.0	go	0.812	Go_X	1.0
402.593	1.0	go	0.728	Go_O	1.0
405.118	0.35	stop	0.0	Go_O	1.0
407.659	1.0	go	0.41	Go_X	1.0
410.183	1.0	go	0.494	Go_O	1.0
412.707	1.0	go	0.727	Go_O	1.0
415.231	1.0	go	0.464	Go_X	1.0
417.772	0.4	stop	0.497	Go_X	0.0
420.313	1.0	go	0.482	Go_X	1.0
422.837	1.0	go	0.634	Go_O	1.0
425.361	0.35	stop	0.0	Go_O	1.0
427.886	1.0	go	0.509	Go_O	1.0
430.426	1.0	go	0.583	Go_X	1.0
432.951	0.4	stop	0.0	Go_X	1.0
435.492	1.0	go	0.61	Go_O	1.0
438.016	1.0	go	0.716	Go_X	1.0
440.54	0.45	stop	0.0	Go_O	1.0
443.081	1.0	go	0.693	Go_O	1.0
445.605	1.0	go	0.627	Go_X	1.0
448.129	1.0	go	0.669	Go_O	1.0
450.654	1.0	go	0.797	Go_X	1.0
453.194	1.0	go	0.473	Go_O	1.0
455.719	1.0	go	0.34	Go_X	1.0
458.243	0.5	stop	0.697	Go_X	0.0
460.767	1.0	go	0.656	Go_O	1.0
463.291	0.45	stop	0.0	Go_O	1.0
465.815	1.0	go	0.98	Go_X	1.0
468.34	1.0	go	0.655	Go_X	1.0
470.864	1.0	go	0.76	Go_O	1.0
473.388	1.0	go	0.377	Go_X	1.0
475.912	1.0	go	0.454	Go_O	1.0
478.437	0.5	stop	0.0	Go_X	1.0
480.961	1.0	go	0.42	Go_X	1.0
483.485	1.0	go	0.427	Go_O	1.0
486.009	1.0	go	0.619	Go_X	1.0
488.533	0.55	stop	0.0	Go_O	1.0
491.058	0.6	stop	0.55	Go_X	0.0
493.598	0.55	stop	0.487	Go_O	0.0
496.123	1.0	go	0.787	Go_O	0.0
498.647	0.5	stop	0.0	Go_X	1.0
501.188	1.0	go	0.538	Go_O	1.0
503.712	1.0	go	0.627	Go_X	1.0
506.236	1.0	go	0.446	Go_O	1.0
508.777	1.0	go	0.653	Go_X	1.0
511.301	1.0	go	0.799	Go_X	1.0
513.825	1.0	go	0.542	Go_O	1.0
516.35	1.0	go	0.533	Go_X	1.0
518.891	1.0	go	0.387	Go_O	1.0
521.432	0.55	stop	0.598	Go_O	0.0
523.972	1.0	go	0.629	Go_O	1.0
526.497	1.0	go	0.422	Go_X	1.0
529.021	0.5	stop	0.468	Go_X	0.0
531.562	1.0	go	0.483	Go_X	1.0
534.086	1.0	go	0.609	Go_O	1.0
536.61	1.0	go	0.636	Go_X	1.0
539.134	1.0	go	0.525	Go_O	1.0
541.659	1.0	go	0.671	Go_O	1.0
544.183	0.45	stop	0.738	Go_O	0.0
546.724	1.0	go	0.431	Go_X	1.0
549.265	1.0	go	0.772	Go_O	1.0
551.789	1.0	go	0.0	Go_X	0.0
554.313	0.4	stop	0.425	Go_X	0.0
556.854	1.0	go	0.464	Go_X	1.0
559.378	0.35	stop	0.0	Go_O	1.0
561.919	1.0	go	0.482	Go_O	1.0
564.443	1.0	go	0.557	Go_X	1.0
566.984	1.0	go	0.516	Go_O	1.0
569.508	1.0	go	0.403	Go_X	1.0
572.033	1.0	go	0.45	Go_O	1.0
574.557	1.0	go	0.452	Go_O	1.0
577.081	1.0	go	0.729	Go_X	1.0
579.605	0.4	stop	0.0	Go_X	1.0
582.129	1.0	go	0.394	Go_O	1.0
584.654	1.0	go	0.521	Go_X	1.0
587.178	1.0	go	0.521	Go_O	1.0
589.702	1.0	go	0.708	Go_X	1.0
592.226	0.45	stop	0.683	Go_O	0.0
594.75	1.0	go	0.0	Go_X	0.0
597.275	0.4	stop	0.39	Go_X	0.0
599.816	1.0	go	0.671	Go_O	1.0
602.34	1.0	go	0.324	Go_X	1.0
604.864	0.35	stop	0.0	Go_O	1.0
607.388	1.0	go	0.592	Go_O	1.0
609.912	1.0	go	0.486	Go_X	1.0
612.437	1.0	go	0.501	Go_O	1.0
614.961	1.0	go	0.481	Go_X	1.0
617.485	1.0	go	0.396	Go_O	1.0
620.009	1.0	go	0.376	Go_X	1.0
622.533	1.0	go	0.665	Go_O	1.0
625.058	1.0	go	0.0	Go_X	0.0
627.582	1.0	go	0.446	Go_O	1.0
630.123	1.0	go	0.322	Go_X	1.0
632.647	0.4	stop	0.528	Go_X	0.0
635.205	1.0	go	0.581	Go_O	1.0
637.729	1.0	go	0.581	Go_X	1.0
640.253	0.35	stop	0.523	Go_O	0.0
642.777	1.0	go	0.797	Go_O	1.0
645.301	0.3	stop	0.37	Go_X	0.0
647.826	1.0	go	0.844	Go_X	1.0
650.35	1.0	go	0.394	Go_O	1.0
652.891	0.25	stop	0.0	Go_O	1.0
655.432	1.0	go	0.722	Go_X	1.0
657.973	0.3	stop	0.0	Go_X	1.0
660.513	1.0	go	0.0	Go_O	0.0
663.04	1.0	go	0.0	Go_X	0.0
665.562	1.0	go	0.0	Go_O	0.0
668.086	0.35	stop	0.0	Go_O	1.0
670.627	1.0	go	0.654	Go_O	1.0
673.151	1.0	go	0.605	Go_X	1.0
675.675	1.0	go	0.389	Go_X	1.0
678.2	1.0	go	0.729	Go_O	1.0
680.724	0.4	stop	0.559	Go_X	0.0
683.265	1.0	go	0.623	Go_O	1.0
685.789	1.0	go	0.576	Go_X	1.0
688.313	0.35	stop	0.653	Go_O	0.0
690.837	1.0	go	0.538	Go_O	1.0
693.362	1.0	go	0.662	Go_X	1.0
695.902	1.0	go	0.499	Go_X	1.0
698.427	1.0	go	0.545	Go_O	1.0
700.951	0.3	stop	0.0	Go_X	1.0
703.492	1.0	go	0.368	Go_X	1.0
706.016	0.35	stop	0.658	Go_O	0.0
708.54	1.0	go	0.49	Go_O	1.0
711.066	1.0	go	0.936	Go_O	1.0
713.589	0.3	stop	0.0	Go_X	1.0
716.13	1.0	go	0.506	Go_X	1.0
718.654	1.0	go	0.429	Go_O	1.0
721.195	1.0	go	0.0	Go_X	0.0
723.719	1.0	go	0.424	Go_O	1.0
726.243	0.35	stop	0.0	Go_O	1.0
728.767	1.0	go	0.417	Go_X	1.0
731.291	0.4	stop	0.5	Go_X	0.0
733.816	1.0	go	0.628	Go_X	1.0
736.34	1.0	go	0.77	Go_O	1.0
738.864	1.0	go	0.991	Go_O	1.0
741.388	1.0	go	0.915	Go_X	1.0
743.912	1.0	go	0.0	Go_O	0.0
746.437	1.0	go	0.643	Go_X	1.0
748.961	0.35	stop	0.0	Go_O	1.0
751.485	1.0	go	0.4	Go_O	1.0
754.009	1.0	go	0.849	Go_X	1.0
756.533	0.4	stop	0.571	Go_X	0.0
759.058	1.0	go	0.429	Go_O	1.0
761.582	1.0	go	0.665	Go_X	1.0
764.106	0.35	stop	0.0	Go_O	1.0
766.647	1.0	go	0.826	Go_O	1.0
769.171	1.0	go	0.456	Go_X	1.0
771.712	1.0	go	0.861	Go_X	0.0
774.253	1.0	go	0.538	Go_O	1.0
776.794	0.4	stop	0.515	Go_X	0.0
779.335	1.0	go	0.648	Go_O	1.0
781.859	0.35	stop	0.496	Go_O	0.0
784.383	1.0	go	0.0	Go_X	0.0
786.907	1.0	go	0.464	Go_X	1.0
789.432	1.0	go	0.384	Go_O	1.0
791.956	1.0	go	0.717	Go_X	1.0
794.48	1.0	go	0.531	Go_O	1.0
797.004	0.3	stop	0.695	Go_X	0.0
799.528	1.0	go	0.789	Go_X	1.0
802.053	1.0	go	0.0	Go_O	0.0
804.594	0.25	stop	0.0	Go_O	1.0
807.135	0.3	stop	0.0	Go_X	1.0
809.675	1.0	go	0.598	Go_X	1.0
812.2	1.0	go	0.489	Go_O	1.0
814.724	1.0	go	0.645	Go_X	1.0
817.265	1.0	go	0.687	Go_O	1.0
819.789	0.35	stop	0.0	Go_O	1.0
822.33	1.0	go	0.0	Go_O	0.0
