onset	duration	trial_type	response_time	stim_file	accuracy
0.5539999999999878	1.0	go	0.653	Go_X	0.0
3.1269999999999953	1.0	go	0.426	Go_O	1.0
5.652000000000001	1.0	go	0.462	Go_O	1.0
8.176000000000002	1.0	go	0.524	Go_X	1.0
10.699999999999989	1.0	go	0.479	Go_O	1.0
13.22399999999999	1.0	go	0.404	Go_X	1.0
15.748999999999995	0.25	stopsuccess	0.0	Go_O	1.0
18.272999999999996	1.0	go	0.445	Go_X	1.0
20.796999999999997	0.3	stopsuccess	0.0	Go_X	1.0
23.320999999999998	1.0	go	0.626	Go_O	1.0
25.845	1.0	go	0.435	Go_O	1.0
28.36999999999999	1.0	go	0.493	Go_X	1.0
30.89399999999999	0.35	stopfail	0.368	Go_O	0.0
33.41799999999999	1.0	go	0.382	Go_X	1.0
35.94199999999999	1.0	go	0.52	Go_O	1.0
38.467	0.3	stopfail	0.383	Go_X	0.0
40.991	0.25	stopfail	0.472	Go_O	0.0
43.515	1.0	go	0.512	Go_X	1.0
46.039	1.0	go	0.584	Go_O	1.0
48.56399999999999	0.2	stopsuccess	0.0	Go_X	1.0
51.087999999999994	1.0	go	0.467	Go_O	0.0
53.611999999999995	1.0	go	0.645	Go_X	0.0
56.135999999999996	0.25	stopsuccess	0.0	Go_O	1.0
58.66	1.0	go	0.446	Go_O	1.0
61.18499999999999	1.0	go	0.395	Go_X	1.0
63.70899999999999	0.3	stopfail	0.492	Go_X	0.0
66.23299999999999	1.0	go	0.676	Go_O	1.0
68.75699999999999	1.0	go	0.618	Go_X	1.0
71.282	0.25	stopfail	0.38	Go_O	0.0
73.806	1.0	go	0.443	Go_O	0.0
76.33	1.0	go	0.761	Go_X	0.0
78.854	1.0	go	0.569	Go_O	1.0
81.378	1.0	go	0.521	Go_X	1.0
83.903	1.0	go	0.49	Go_X	0.0
86.427	0.2	stopsuccess	0.0	Go_X	1.0
88.95100000000001	1.0	go	0.466	Go_O	0.0
91.47500000000001	1.0	go	0.603	Go_X	1.0
93.99999999999999	1.0	go	0.452	Go_O	1.0
96.52399999999999	1.0	go	0.469	Go_O	1.0
99.04799999999999	1.0	go	0.496	Go_X	1.0
101.57199999999999	0.25	stopsuccess	0.0	Go_O	1.0
104.09599999999999	1.0	go	0.381	Go_X	1.0
106.621	1.0	go	0.427	Go_O	1.0
109.145	1.0	go	0.443	Go_X	1.0
111.669	1.0	go	0.447	Go_O	1.0
114.193	1.0	go	0.618	Go_X	1.0
116.718	1.0	go	0.521	Go_O	1.0
119.242	0.3	stopsuccess	0.0	Go_X	1.0
121.766	1.0	go	0.475	Go_O	1.0
124.29	1.0	go	0.539	Go_X	1.0
126.81400000000001	0.35	stopfail	0.586	Go_O	0.0
129.339	1.0	go	0.425	Go_X	1.0
131.863	0.3	stopfail	0.513	Go_X	0.0
134.387	0.25	stopfail	0.433	Go_O	0.0
136.911	1.0	go	0.703	Go_O	1.0
139.43599999999998	1.0	go	0.651	Go_O	1.0
141.95999999999998	1.0	go	0.55	Go_X	1.0
144.48399999999998	1.0	go	0.47	Go_O	1.0
147.00799999999998	0.2	stopsuccess	0.0	Go_X	1.0
149.53300000000002	1.0	go	0.5	Go_X	1.0
152.05700000000002	0.25	stopfail	0.448	Go_O	0.0
154.58100000000002	1.0	go	0.495	Go_X	1.0
157.10500000000002	1.0	go	0.329	Go_O	1.0
159.62900000000002	1.0	go	0.24	Go_O	0.0
162.154	1.0	go	0.419	Go_X	1.0
164.678	1.0	go	0.604	Go_O	1.0
167.202	1.0	go	0.504	Go_X	1.0
169.726	1.0	go	0.549	Go_O	1.0
172.25099999999998	1.0	go	0.415	Go_X	1.0
174.77499999999998	1.0	go	0.454	Go_X	0.0
177.29899999999998	0.2	stopsuccess	0.0	Go_X	1.0
179.82299999999998	1.0	go	0.484	Go_O	1.0
182.34699999999998	1.0	go	0.494	Go_X	1.0
184.872	1.0	go	0.352	Go_O	0.0
187.39600000000002	0.25	stopfail	0.451	Go_O	0.0
189.92000000000002	1.0	go	0.468	Go_O	1.0
192.44400000000002	1.0	go	0.481	Go_X	1.0
194.969	1.0	go	0.583	Go_O	1.0
197.493	1.0	go	0.538	Go_X	1.0
200.017	1.0	go	0.627	Go_X	1.0
202.541	1.0	go	0.38	Go_O	1.0
205.065	0.2	stopsuccess	0.0	Go_X	1.0
207.59000000000003	1.0	go	0.639	Go_X	1.0
210.11400000000003	1.0	go	0.639	Go_O	1.0
212.63800000000003	0.25	stopsuccess	0.0	Go_O	1.0
215.16200000000003	1.0	go	0.41	Go_X	1.0
217.687	1.0	go	0.769	Go_O	1.0
220.211	0.3	stopfail	0.397	Go_X	0.0
222.735	1.0	go	0.556	Go_X	1.0
225.25900000000001	0.25	stopsuccess	0.0	Go_O	1.0
227.78300000000002	1.0	go	0.453	Go_O	1.0
230.308	1.0	go	0.564	Go_X	1.0
232.832	1.0	go	0.421	Go_O	1.0
235.356	1.0	go	0.559	Go_X	1.0
237.88	1.0	go	0.681	Go_O	1.0
240.40500000000003	0.3	stopfail	0.303	Go_X	0.0
242.92900000000003	0.25	stopsuccess	0.0	Go_O	1.0
245.45300000000003	1.0	go	0.536	Go_O	1.0
247.97700000000003	1.0	go	0.541	Go_X	1.0
250.50100000000003	0.3	stopfail	0.495	Go_X	0.0
253.026	1.0	go	0.49	Go_X	1.0
255.55	1.0	go	0.449	Go_O	1.0
258.074	1.0	go	0.518	Go_X	1.0
260.598	1.0	go	0.4	Go_O	1.0
263.123	1.0	go	0.293	Go_X	1.0
265.647	1.0	go	0.549	Go_O	1.0
268.171	0.25	stopsuccess	0.0	Go_O	1.0
270.695	1.0	go	0.281	Go_X	1.0
273.22	1.0	go	0.431	Go_O	1.0
275.744	1.0	go	0.737	Go_O	1.0
278.26800000000003	1.0	go	0.823	Go_X	1.0
280.79200000000003	1.0	go	0.869	Go_O	1.0
283.31600000000003	0.3	stopsuccess	0.0	Go_X	1.0
285.841	1.0	go	0.547	Go_X	1.0
288.365	1.0	go	0.713	Go_O	1.0
290.889	1.0	go	0.475	Go_X	1.0
293.413	1.0	go	0.695	Go_O	1.0
295.938	0.35	stopsuccess	0.0	Go_O	1.0
298.478	1.0	go	0.542	Go_X	1.0
301.003	1.0	go	0.481	Go_O	1.0
303.544	0.4	stopfail	0.387	Go_X	0.0
306.068	1.0	go	0.543	Go_X	1.0
308.592	0.35	stopfail	0.932	Go_O	0.0
311.133	1.0	go	0.337	Go_X	1.0
313.657	1.0	go	0.402	Go_O	1.0
316.181	1.0	go	0.321	Go_X	1.0
318.706	1.0	go	0.587	Go_O	1.0
321.23	1.0	go	0.527	Go_X	1.0
323.754	1.0	go	0.311	Go_O	1.0
326.278	1.0	go	0.286	Go_X	1.0
328.803	0.3	stopfail	0.36	Go_X	0.0
331.327	1.0	go	0.607	Go_O	1.0
333.851	1.0	go	0.684	Go_O	1.0
336.375	1.0	go	0.684	Go_X	0.0
338.899	0.25	stopfail	0.367	Go_O	0.0
341.42400000000004	1.0	go	0.634	Go_O	1.0
343.94800000000004	1.0	go	0.468	Go_X	1.0
346.47200000000004	1.0	go	0.52	Go_X	1.0
348.996	1.0	go	0.501	Go_O	1.0
351.521	0.2	stopsuccess	0.0	Go_X	1.0
354.045	1.0	go	0.56	Go_X	1.0
356.569	1.0	go	0.512	Go_O	1.0
359.093	0.25	stopsuccess	0.0	Go_O	1.0
361.618	1.0	go	0.539	Go_O	1.0
364.142	1.0	go	0.567	Go_X	1.0
366.666	0.3	stopsuccess	0.0	Go_X	1.0
369.19	1.0	go	0.0	Go_X	0.0
371.714	1.0	go	0.589	Go_O	1.0
374.23900000000003	0.35	stopsuccess	0.0	Go_O	1.0
376.76300000000003	1.0	go	0.709	Go_O	0.0
379.28700000000003	1.0	go	0.479	Go_X	1.0
381.81100000000004	1.0	go	0.53	Go_X	1.0
384.336	1.0	go	0.256	Go_O	1.0
386.86	1.0	go	0.407	Go_X	1.0
389.384	1.0	go	0.648	Go_O	1.0
391.908	0.4	stopfail	0.572	Go_X	0.0
394.432	1.0	go	0.547	Go_X	1.0
396.957	0.35	stopsuccess	0.0	Go_O	1.0
399.481	1.0	go	0.41	Go_O	1.0
402.005	1.0	go	0.723	Go_X	1.0
404.529	1.0	go	0.775	Go_O	1.0
407.05400000000003	1.0	go	0.881	Go_O	1.0
409.57800000000003	1.0	go	0.639	Go_X	1.0
412.10200000000003	0.4	stopfail	0.534	Go_X	0.0
414.64300000000003	1.0	go	0.787	Go_X	1.0
417.16700000000003	1.0	go	0.467	Go_O	1.0
419.69100000000003	1.0	go	0.654	Go_O	1.0
422.216	0.35	stopfail	0.391	Go_O	0.0
424.74	0.3	stopfail	0.394	Go_X	0.0
427.264	0.25	stopsuccess	0.0	Go_O	1.0
429.788	1.0	go	0.464	Go_X	1.0
432.313	0.3	stopsuccess	0.0	Go_X	1.0
434.837	1.0	go	0.522	Go_O	1.0
437.361	1.0	go	0.634	Go_X	0.0
439.885	1.0	go	0.399	Go_X	1.0
442.409	1.0	go	0.529	Go_O	1.0
444.934	1.0	go	0.638	Go_O	1.0
447.45799999999997	1.0	go	0.447	Go_X	1.0
449.98199999999997	1.0	go	0.725	Go_O	1.0
452.506	1.0	go	0.561	Go_X	1.0
455.03100000000006	0.35	stopfail	0.469	Go_O	0.0
457.55500000000006	1.0	go	0.7	Go_O	1.0
460.07900000000006	1.0	go	0.688	Go_X	1.0
462.60300000000007	0.3	stopsuccess	0.0	Go_X	1.0
465.12699999999995	1.0	go	0.475	Go_O	1.0
467.65200000000004	1.0	go	0.525	Go_X	1.0
470.17600000000004	1.0	go	0.602	Go_X	1.0
472.70000000000005	1.0	go	0.639	Go_O	1.0
475.22400000000005	1.0	go	0.668	Go_X	1.0
477.749	0.35	stopfail	0.548	Go_O	0.0
480.273	1.0	go	0.678	Go_O	1.0
482.797	1.0	go	0.569	Go_O	1.0
485.321	1.0	go	0.749	Go_X	1.0
487.845	0.3	stopfail	0.537	Go_X	0.0
490.37	1.0	go	0.848	Go_X	1.0
492.894	0.25	stopsuccess	0.0	Go_O	1.0
495.418	1.0	go	0.545	Go_O	1.0
497.942	1.0	go	0.657	Go_X	1.0
500.467	1.0	go	0.58	Go_O	1.0
502.991	1.0	go	0.546	Go_X	1.0
505.515	1.0	go	0.683	Go_O	1.0
508.039	1.0	go	0.531	Go_O	0.0
510.563	1.0	go	0.358	Go_X	1.0
513.088	0.3	stopfail	0.578	Go_X	0.0
515.612	1.0	go	0.431	Go_O	1.0
518.136	1.0	go	0.446	Go_X	1.0
520.66	1.0	go	0.435	Go_O	1.0
523.1850000000001	1.0	go	0.513	Go_X	1.0
525.7090000000001	0.25	stopsuccess	0.0	Go_O	1.0
528.2330000000001	1.0	go	0.316	Go_X	1.0
530.7570000000001	0.3	stopsuccess	0.0	Go_X	1.0
533.282	1.0	go	0.589	Go_O	1.0
535.806	1.0	go	0.49	Go_O	1.0
538.33	0.35	stopfail	0.456	Go_O	0.0
540.854	1.0	go	0.464	Go_X	1.0
543.378	1.0	go	0.44	Go_X	1.0
545.903	1.0	go	0.403	Go_O	0.0
548.427	1.0	go	0.898	Go_X	1.0
550.951	1.0	go	0.809	Go_O	1.0
553.475	1.0	go	0.0	Go_X	0.0
556.0	1.0	go	0.0	Go_O	0.0
558.524	1.0	go	0.676	Go_O	1.0
561.048	1.0	go	0.409	Go_X	1.0
563.572	1.0	go	0.525	Go_X	1.0
566.096	0.3	stopfail	0.47	Go_X	0.0
568.621	1.0	go	0.582	Go_O	1.0
571.145	1.0	go	0.813	Go_X	1.0
573.669	0.25	stopsuccess	0.0	Go_O	1.0
576.193	1.0	go	0.664	Go_O	1.0
578.718	0.3	stopfail	0.446	Go_X	0.0
581.242	1.0	go	0.0	Go_O	0.0
583.766	1.0	go	0.394	Go_X	1.0
586.29	0.25	stopfail	0.396	Go_O	0.0
588.814	1.0	go	0.337	Go_X	1.0
591.339	0.2	stopsuccess	0.0	Go_X	1.0
593.863	1.0	go	0.491	Go_O	1.0
596.3870000000001	1.0	go	0.603	Go_X	0.0
598.9110000000001	1.0	go	0.785	Go_O	1.0
601.436	0.25	stopsuccess	0.0	Go_O	1.0
603.96	1.0	go	0.322	Go_X	1.0
606.484	1.0	go	0.61	Go_O	1.0
609.008	1.0	go	0.549	Go_O	1.0
611.532	1.0	go	0.829	Go_X	1.0
614.057	0.3	stopsuccess	0.0	Go_X	1.0
616.581	1.0	go	0.47	Go_X	1.0
619.105	1.0	go	0.341	Go_O	1.0
621.629	0.35	stopfail	0.63	Go_O	0.0
624.154	1.0	go	0.512	Go_O	1.0
626.678	1.0	go	0.312	Go_X	1.0
629.202	1.0	go	0.547	Go_O	1.0
631.726	1.0	go	0.545	Go_X	1.0
634.251	0.3	stopsuccess	0.0	Go_X	1.0
636.775	1.0	go	0.539	Go_O	1.0
639.299	0.35	stopfail	0.754	Go_O	0.0
641.823	1.0	go	0.366	Go_X	1.0
644.347	1.0	go	0.502	Go_X	1.0
646.872	0.3	stopsuccess	0.0	Go_X	1.0
649.396	1.0	go	0.684	Go_O	1.0
651.92	1.0	go	0.609	Go_O	1.0
654.444	1.0	go	0.746	Go_X	1.0
656.969	1.0	go	0.788	Go_O	1.0
659.493	0.35	stopfail	0.47	Go_O	0.0
662.017	1.0	go	0.385	Go_X	1.0
664.541	0.3	stopsuccess	0.0	Go_X	1.0
667.065	1.0	go	0.561	Go_X	1.0
669.59	1.0	go	0.419	Go_O	1.0
672.114	1.0	go	0.494	Go_O	1.0
674.641	1.0	go	0.0	Go_X	0.0
677.162	1.0	go	0.621	Go_X	1.0
679.687	1.0	go	0.901	Go_O	1.0
682.211	0.35	stopsuccess	0.0	Go_O	1.0
684.735	1.0	go	0.902	Go_O	1.0
687.259	1.0	go	0.499	Go_X	1.0
689.783	0.4	stopfail	0.556	Go_X	0.0
692.308	1.0	go	0.637	Go_O	1.0
694.832	1.0	go	0.592	Go_X	1.0
697.356	0.35	stopfail	0.551	Go_O	0.0
699.88	1.0	go	0.598	Go_X	1.0
702.405	1.0	go	0.595	Go_O	1.0
704.929	1.0	go	0.584	Go_X	1.0
707.453	1.0	go	0.537	Go_O	1.0
709.977	0.3	stopsuccess	0.0	Go_X	1.0
712.501	1.0	go	0.61	Go_O	1.0
715.026	0.35	stopfail	0.527	Go_O	0.0
717.55	1.0	go	0.632	Go_X	1.0
720.074	1.0	go	0.995	Go_O	1.0
722.598	1.0	go	0.413	Go_X	1.0
725.123	1.0	go	0.662	Go_X	0.0
727.647	1.0	go	0.441	Go_O	1.0
730.171	0.3	stopfail	0.692	Go_X	0.0
732.695	1.0	go	0.374	Go_O	1.0
735.22	1.0	go	0.372	Go_X	1.0
737.744	0.25	stopsuccess	0.0	Go_O	1.0
740.268	0.3	stopfail	0.409	Go_X	0.0
742.792	1.0	go	0.592	Go_X	1.0
745.316	1.0	go	0.547	Go_O	1.0
747.841	1.0	go	0.558	Go_O	0.0
750.365	1.0	go	0.429	Go_X	1.0
752.889	0.25	stopfail	0.305	Go_O	0.0
755.413	1.0	go	0.528	Go_O	1.0
