onset	duration	trial_type	response_time	stim_file	accuracy
67.064	1.0	go	0.653	Go_X	0.0
69.637	1.0	go	0.426	Go_O	1.0
72.162	1.0	go	0.462	Go_O	1.0
74.686	1.0	go	0.524	Go_X	1.0
77.21	1.0	go	0.479	Go_O	1.0
79.734	1.0	go	0.404	Go_X	1.0
82.259	0.25	stop	0.0	Go_O	1.0
84.783	1.0	go	0.445	Go_X	1.0
87.307	0.3	stop	0.0	Go_X	1.0
89.831	1.0	go	0.626	Go_O	1.0
92.355	1.0	go	0.435	Go_O	1.0
94.88	1.0	go	0.493	Go_X	1.0
97.404	0.35	stop	0.368	Go_O	0.0
99.928	1.0	go	0.382	Go_X	1.0
102.452	1.0	go	0.52	Go_O	1.0
104.977	0.3	stop	0.383	Go_X	0.0
107.501	0.25	stop	0.472	Go_O	0.0
110.025	1.0	go	0.512	Go_X	1.0
112.549	1.0	go	0.584	Go_O	1.0
115.074	0.2	stop	0.0	Go_X	1.0
117.598	1.0	go	0.467	Go_O	0.0
120.122	1.0	go	0.645	Go_X	0.0
122.646	0.25	stop	0.0	Go_O	1.0
125.17	1.0	go	0.446	Go_O	1.0
127.695	1.0	go	0.395	Go_X	1.0
130.219	0.3	stop	0.492	Go_X	0.0
132.743	1.0	go	0.676	Go_O	1.0
135.267	1.0	go	0.618	Go_X	1.0
137.792	0.25	stop	0.38	Go_O	0.0
140.316	1.0	go	0.443	Go_O	0.0
142.84	1.0	go	0.761	Go_X	0.0
145.364	1.0	go	0.569	Go_O	1.0
147.888	1.0	go	0.521	Go_X	1.0
150.413	1.0	go	0.49	Go_X	0.0
152.937	0.2	stop	0.0	Go_X	1.0
155.461	1.0	go	0.466	Go_O	0.0
157.985	1.0	go	0.603	Go_X	1.0
160.51	1.0	go	0.452	Go_O	1.0
163.034	1.0	go	0.469	Go_O	1.0
165.558	1.0	go	0.496	Go_X	1.0
168.082	0.25	stop	0.0	Go_O	1.0
170.606	1.0	go	0.381	Go_X	1.0
173.131	1.0	go	0.427	Go_O	1.0
175.655	1.0	go	0.443	Go_X	1.0
178.179	1.0	go	0.447	Go_O	1.0
180.703	1.0	go	0.618	Go_X	1.0
183.228	1.0	go	0.521	Go_O	1.0
185.752	0.3	stop	0.0	Go_X	1.0
188.276	1.0	go	0.475	Go_O	1.0
190.8	1.0	go	0.539	Go_X	1.0
193.324	0.35	stop	0.586	Go_O	0.0
195.849	1.0	go	0.425	Go_X	1.0
198.373	0.3	stop	0.513	Go_X	0.0
200.897	0.25	stop	0.433	Go_O	0.0
203.421	1.0	go	0.703	Go_O	1.0
205.946	1.0	go	0.651	Go_O	1.0
208.47	1.0	go	0.55	Go_X	1.0
210.994	1.0	go	0.47	Go_O	1.0
213.518	0.2	stop	0.0	Go_X	1.0
216.043	1.0	go	0.5	Go_X	1.0
218.567	0.25	stop	0.448	Go_O	0.0
221.091	1.0	go	0.495	Go_X	1.0
223.615	1.0	go	0.329	Go_O	1.0
226.139	1.0	go	0.24	Go_O	0.0
228.664	1.0	go	0.419	Go_X	1.0
231.188	1.0	go	0.604	Go_O	1.0
233.712	1.0	go	0.504	Go_X	1.0
236.236	1.0	go	0.549	Go_O	1.0
238.761	1.0	go	0.415	Go_X	1.0
241.285	1.0	go	0.454	Go_X	0.0
243.809	0.2	stop	0.0	Go_X	1.0
246.333	1.0	go	0.484	Go_O	1.0
248.857	1.0	go	0.494	Go_X	1.0
251.382	1.0	go	0.352	Go_O	0.0
253.906	0.25	stop	0.451	Go_O	0.0
256.43	1.0	go	0.468	Go_O	1.0
258.954	1.0	go	0.481	Go_X	1.0
261.479	1.0	go	0.583	Go_O	1.0
264.003	1.0	go	0.538	Go_X	1.0
266.527	1.0	go	0.627	Go_X	1.0
269.051	1.0	go	0.38	Go_O	1.0
271.575	0.2	stop	0.0	Go_X	1.0
274.1	1.0	go	0.639	Go_X	1.0
276.624	1.0	go	0.639	Go_O	1.0
279.148	0.25	stop	0.0	Go_O	1.0
281.672	1.0	go	0.41	Go_X	1.0
284.197	1.0	go	0.769	Go_O	1.0
286.721	0.3	stop	0.397	Go_X	0.0
289.245	1.0	go	0.556	Go_X	1.0
291.769	0.25	stop	0.0	Go_O	1.0
294.293	1.0	go	0.453	Go_O	1.0
296.818	1.0	go	0.564	Go_X	1.0
299.342	1.0	go	0.421	Go_O	1.0
301.866	1.0	go	0.559	Go_X	1.0
304.39	1.0	go	0.681	Go_O	1.0
306.915	0.3	stop	0.303	Go_X	0.0
309.439	0.25	stop	0.0	Go_O	1.0
311.963	1.0	go	0.536	Go_O	1.0
314.487	1.0	go	0.541	Go_X	1.0
317.011	0.3	stop	0.495	Go_X	0.0
319.536	1.0	go	0.49	Go_X	1.0
322.06	1.0	go	0.449	Go_O	1.0
324.584	1.0	go	0.518	Go_X	1.0
327.108	1.0	go	0.4	Go_O	1.0
329.633	1.0	go	0.293	Go_X	1.0
332.157	1.0	go	0.549	Go_O	1.0
334.681	0.25	stop	0.0	Go_O	1.0
337.205	1.0	go	0.281	Go_X	1.0
339.73	1.0	go	0.431	Go_O	1.0
342.254	1.0	go	0.737	Go_O	1.0
344.778	1.0	go	0.823	Go_X	1.0
347.302	1.0	go	0.869	Go_O	1.0
349.826	0.3	stop	0.0	Go_X	1.0
352.351	1.0	go	0.547	Go_X	1.0
354.875	1.0	go	0.713	Go_O	1.0
357.399	1.0	go	0.475	Go_X	1.0
359.923	1.0	go	0.695	Go_O	1.0
362.448	0.35	stop	0.0	Go_O	1.0
364.988	1.0	go	0.542	Go_X	1.0
367.513	1.0	go	0.481	Go_O	1.0
370.054	0.4	stop	0.387	Go_X	0.0
372.578	1.0	go	0.543	Go_X	1.0
375.102	0.35	stop	0.932	Go_O	0.0
377.643	1.0	go	0.337	Go_X	1.0
380.167	1.0	go	0.402	Go_O	1.0
382.691	1.0	go	0.321	Go_X	1.0
385.216	1.0	go	0.587	Go_O	1.0
387.74	1.0	go	0.527	Go_X	1.0
390.264	1.0	go	0.311	Go_O	1.0
392.788	1.0	go	0.286	Go_X	1.0
395.313	0.3	stop	0.36	Go_X	0.0
397.837	1.0	go	0.607	Go_O	1.0
400.361	1.0	go	0.684	Go_O	1.0
402.885	1.0	go	0.684	Go_X	0.0
405.409	0.25	stop	0.367	Go_O	0.0
407.934	1.0	go	0.634	Go_O	1.0
410.458	1.0	go	0.468	Go_X	1.0
412.982	1.0	go	0.52	Go_X	1.0
415.506	1.0	go	0.501	Go_O	1.0
418.031	0.2	stop	0.0	Go_X	1.0
420.555	1.0	go	0.56	Go_X	1.0
423.079	1.0	go	0.512	Go_O	1.0
425.603	0.25	stop	0.0	Go_O	1.0
428.128	1.0	go	0.539	Go_O	1.0
430.652	1.0	go	0.567	Go_X	1.0
433.176	0.3	stop	0.0	Go_X	1.0
435.7	1.0	go	0.0	Go_X	0.0
438.224	1.0	go	0.589	Go_O	1.0
440.749	0.35	stop	0.0	Go_O	1.0
443.273	1.0	go	0.709	Go_O	0.0
445.797	1.0	go	0.479	Go_X	1.0
448.321	1.0	go	0.53	Go_X	1.0
450.846	1.0	go	0.256	Go_O	1.0
453.37	1.0	go	0.407	Go_X	1.0
455.894	1.0	go	0.648	Go_O	1.0
458.418	0.4	stop	0.572	Go_X	0.0
460.942	1.0	go	0.547	Go_X	1.0
463.467	0.35	stop	0.0	Go_O	1.0
465.991	1.0	go	0.41	Go_O	1.0
468.515	1.0	go	0.723	Go_X	1.0
471.039	1.0	go	0.775	Go_O	1.0
473.564	1.0	go	0.881	Go_O	1.0
476.088	1.0	go	0.639	Go_X	1.0
478.612	0.4	stop	0.534	Go_X	0.0
481.153	1.0	go	0.787	Go_X	1.0
483.677	1.0	go	0.467	Go_O	1.0
486.201	1.0	go	0.654	Go_O	1.0
488.726	0.35	stop	0.391	Go_O	0.0
491.25	0.3	stop	0.394	Go_X	0.0
493.774	0.25	stop	0.0	Go_O	1.0
496.298	1.0	go	0.464	Go_X	1.0
498.823	0.3	stop	0.0	Go_X	1.0
501.347	1.0	go	0.522	Go_O	1.0
503.871	1.0	go	0.634	Go_X	0.0
506.395	1.0	go	0.399	Go_X	1.0
508.919	1.0	go	0.529	Go_O	1.0
511.444	1.0	go	0.638	Go_O	1.0
513.968	1.0	go	0.447	Go_X	1.0
516.492	1.0	go	0.725	Go_O	1.0
519.016	1.0	go	0.561	Go_X	1.0
521.541	0.35	stop	0.469	Go_O	0.0
524.065	1.0	go	0.7	Go_O	1.0
526.589	1.0	go	0.688	Go_X	1.0
529.113	0.3	stop	0.0	Go_X	1.0
531.637	1.0	go	0.475	Go_O	1.0
534.162	1.0	go	0.525	Go_X	1.0
536.686	1.0	go	0.602	Go_X	1.0
539.21	1.0	go	0.639	Go_O	1.0
541.734	1.0	go	0.668	Go_X	1.0
544.259	0.35	stop	0.548	Go_O	0.0
546.783	1.0	go	0.678	Go_O	1.0
549.307	1.0	go	0.569	Go_O	1.0
551.831	1.0	go	0.749	Go_X	1.0
554.355	0.3	stop	0.537	Go_X	0.0
556.88	1.0	go	0.848	Go_X	1.0
559.404	0.25	stop	0.0	Go_O	1.0
561.928	1.0	go	0.545	Go_O	1.0
564.452	1.0	go	0.657	Go_X	1.0
566.977	1.0	go	0.58	Go_O	1.0
569.501	1.0	go	0.546	Go_X	1.0
572.025	1.0	go	0.683	Go_O	1.0
574.549	1.0	go	0.531	Go_O	0.0
577.073	1.0	go	0.358	Go_X	1.0
579.598	0.3	stop	0.578	Go_X	0.0
582.122	1.0	go	0.431	Go_O	1.0
584.646	1.0	go	0.446	Go_X	1.0
587.17	1.0	go	0.435	Go_O	1.0
589.695	1.0	go	0.513	Go_X	1.0
592.219	0.25	stop	0.0	Go_O	1.0
594.743	1.0	go	0.316	Go_X	1.0
597.267	0.3	stop	0.0	Go_X	1.0
599.792	1.0	go	0.589	Go_O	1.0
602.316	1.0	go	0.49	Go_O	1.0
604.84	0.35	stop	0.456	Go_O	0.0
607.364	1.0	go	0.464	Go_X	1.0
609.888	1.0	go	0.44	Go_X	1.0
612.413	1.0	go	0.403	Go_O	0.0
614.937	1.0	go	0.898	Go_X	1.0
617.461	1.0	go	0.809	Go_O	1.0
619.985	1.0	go	0.0	Go_X	0.0
622.51	1.0	go	0.0	Go_O	0.0
625.034	1.0	go	0.676	Go_O	1.0
627.558	1.0	go	0.409	Go_X	1.0
630.082	1.0	go	0.525	Go_X	1.0
632.606	0.3	stop	0.47	Go_X	0.0
635.131	1.0	go	0.582	Go_O	1.0
637.655	1.0	go	0.813	Go_X	1.0
640.179	0.25	stop	0.0	Go_O	1.0
642.703	1.0	go	0.664	Go_O	1.0
645.228	0.3	stop	0.446	Go_X	0.0
647.752	1.0	go	0.0	Go_O	0.0
650.276	1.0	go	0.394	Go_X	1.0
652.8	0.25	stop	0.396	Go_O	0.0
655.324	1.0	go	0.337	Go_X	1.0
657.849	0.2	stop	0.0	Go_X	1.0
660.373	1.0	go	0.491	Go_O	1.0
662.897	1.0	go	0.603	Go_X	0.0
665.421	1.0	go	0.785	Go_O	1.0
667.946	0.25	stop	0.0	Go_O	1.0
670.47	1.0	go	0.322	Go_X	1.0
672.994	1.0	go	0.61	Go_O	1.0
675.518	1.0	go	0.549	Go_O	1.0
678.042	1.0	go	0.829	Go_X	1.0
680.567	0.3	stop	0.0	Go_X	1.0
683.091	1.0	go	0.47	Go_X	1.0
685.615	1.0	go	0.341	Go_O	1.0
688.139	0.35	stop	0.63	Go_O	0.0
690.664	1.0	go	0.512	Go_O	1.0
693.188	1.0	go	0.312	Go_X	1.0
695.712	1.0	go	0.547	Go_O	1.0
698.236	1.0	go	0.545	Go_X	1.0
700.761	0.3	stop	0.0	Go_X	1.0
703.285	1.0	go	0.539	Go_O	1.0
705.809	0.35	stop	0.754	Go_O	0.0
708.333	1.0	go	0.366	Go_X	1.0
710.857	1.0	go	0.502	Go_X	1.0
713.382	0.3	stop	0.0	Go_X	1.0
715.906	1.0	go	0.684	Go_O	1.0
718.43	1.0	go	0.609	Go_O	1.0
720.954	1.0	go	0.746	Go_X	1.0
723.479	1.0	go	0.788	Go_O	1.0
726.003	0.35	stop	0.47	Go_O	0.0
728.527	1.0	go	0.385	Go_X	1.0
731.051	0.3	stop	0.0	Go_X	1.0
733.575	1.0	go	0.561	Go_X	1.0
736.1	1.0	go	0.419	Go_O	1.0
738.624	1.0	go	0.494	Go_O	1.0
741.151	1.0	go	0.0	Go_X	0.0
743.672	1.0	go	0.621	Go_X	1.0
746.197	1.0	go	0.901	Go_O	1.0
748.721	0.35	stop	0.0	Go_O	1.0
751.245	1.0	go	0.902	Go_O	1.0
753.769	1.0	go	0.499	Go_X	1.0
756.293	0.4	stop	0.556	Go_X	0.0
758.818	1.0	go	0.637	Go_O	1.0
761.342	1.0	go	0.592	Go_X	1.0
763.866	0.35	stop	0.551	Go_O	0.0
766.39	1.0	go	0.598	Go_X	1.0
768.915	1.0	go	0.595	Go_O	1.0
771.439	1.0	go	0.584	Go_X	1.0
773.963	1.0	go	0.537	Go_O	1.0
776.487	0.3	stop	0.0	Go_X	1.0
779.011	1.0	go	0.61	Go_O	1.0
781.536	0.35	stop	0.527	Go_O	0.0
784.06	1.0	go	0.632	Go_X	1.0
786.584	1.0	go	0.995	Go_O	1.0
789.108	1.0	go	0.413	Go_X	1.0
791.633	1.0	go	0.662	Go_X	0.0
794.157	1.0	go	0.441	Go_O	1.0
796.681	0.3	stop	0.692	Go_X	0.0
799.205	1.0	go	0.374	Go_O	1.0
801.73	1.0	go	0.372	Go_X	1.0
804.254	0.25	stop	0.0	Go_O	1.0
806.778	0.3	stop	0.409	Go_X	0.0
809.302	1.0	go	0.592	Go_X	1.0
811.826	1.0	go	0.547	Go_O	1.0
814.351	1.0	go	0.558	Go_O	0.0
816.875	1.0	go	0.429	Go_X	1.0
819.399	0.25	stop	0.305	Go_O	0.0
821.923	1.0	go	0.528	Go_O	1.0
