frame	onset	duration	trial_type	event_type	response_type	response_time	stim_file	accuracy
0	69.385		loss-noreward	ImageDisplay1		0.0		
0	71.374	0.75	loss-noreward	StartDisplay				
0	72.126		loss-noreward	ImageDisplay2		0.0		
0	75.369	1.6	loss-noreward	ChoiceDisplay		0.0		
0	76.974	0.0	loss-noreward	ChosenDisplay		0.0		
0	77.058	0.25	loss-noreward	TurnDisplay				
0	77.225	0.75	loss-noreward	OutcomeDisplay				
1	77.977		loss-reward	ImageDisplay1		0.0		
1	80.234	0.75	loss-reward	StartDisplay				
1	80.969		loss-reward	ImageDisplay2		0.0		
1	83.978	1.6	loss-reward	ChoiceDisplay		0.0		
1	85.583	0.0	loss-reward	ChosenDisplay		0.0		
1	85.6	0.25	loss-reward	TurnDisplay				
1	85.834	0.75	loss-reward	OutcomeDisplay				
2	86.569		control-reward	ImageDisplay1		0.0		
2	88.826	0.75	control-reward	StartDisplay				
2	89.578		control-reward	ImageDisplay2		0.0		
2	92.57	1.6	control-reward	ChoiceDisplay		0.0		
2	94.175	0.0	control-reward	ChosenDisplay		0.0		
2	94.259	0.25	control-reward	TurnDisplay				
2	94.426	0.75	control-reward	OutcomeDisplay				
3	95.178		control-noreward	ImageDisplay1		0.0		
3	97.167	0.75	control-noreward	StartDisplay				
3	97.92		control-noreward	ImageDisplay2		0.0		
3	101.179	1.6	control-noreward	ChoiceDisplay	1	0.445	1	1
3	101.647	1.155	control-noreward	ChosenDisplay		0.0		
3	102.784	0.25	control-noreward	TurnDisplay				
3	103.035	0.75	control-noreward	OutcomeDisplay				
4	103.787		control-noreward	ImageDisplay1		0.0		
4	105.776	0.75	control-noreward	StartDisplay				
4	106.529		control-noreward	ImageDisplay2		0.0		
4	109.788	1.6	control-noreward	ChoiceDisplay	1	0.854	1	1
4	110.658	0.746	control-noreward	ChosenDisplay		0.0		
4	111.393	0.25	control-noreward	TurnDisplay				
4	111.644	0.75	control-noreward	OutcomeDisplay				
5	112.396		loss-reward	ImageDisplay1		0.0		
5	114.636	0.75	loss-reward	StartDisplay				
5	115.388		loss-reward	ImageDisplay2		0.0		
5	118.397	1.6	loss-reward	ChoiceDisplay	1	0.744	1	1
5	119.166	0.856	loss-reward	ChosenDisplay		0.0		
5	120.002	0.25	loss-reward	TurnDisplay				
5	120.253	0.75	loss-reward	OutcomeDisplay				
6	121.005		loss-noreward	ImageDisplay1		0.0		
6	123.245	0.75	loss-noreward	StartDisplay				
6	123.997		loss-noreward	ImageDisplay2		0.0		
6	127.006	1.6	loss-noreward	ChoiceDisplay	1	0.809	1	1
6	127.842	0.791	loss-noreward	ChosenDisplay		0.0		
6	128.611	0.25	loss-noreward	TurnDisplay				
6	128.879	0.75	loss-noreward	OutcomeDisplay				
7	129.614		loss-reward	ImageDisplay1		0.0		
7	131.603	0.75	loss-reward	StartDisplay				
7	132.356		loss-reward	ImageDisplay2		0.0		
7	135.615	1.6	loss-reward	ChoiceDisplay	1	0.762	1	1
7	136.401	0.838	loss-reward	ChosenDisplay		0.0		
7	137.22	0.25	loss-reward	TurnDisplay				
7	137.471	0.75	loss-reward	OutcomeDisplay				
8	138.223		loss-reward	ImageDisplay1		0.0		
8	140.212	0.75	loss-reward	StartDisplay				
8	140.965		loss-reward	ImageDisplay2		0.0		
8	144.224	1.6	loss-reward	ChoiceDisplay	1	0.64	1	1
8	144.876	0.96	loss-reward	ChosenDisplay		0.0		
8	145.829	0.25	loss-reward	TurnDisplay				
8	146.08	0.75	loss-reward	OutcomeDisplay				
9	146.832		win-noreward	ImageDisplay1		0.0		
9	149.072	0.75	win-noreward	StartDisplay				
9	149.824		win-noreward	ImageDisplay2		0.0		
9	152.833	1.6	win-noreward	ChoiceDisplay	1	0.773	1	1
9	153.619	0.827	win-noreward	ChosenDisplay		0.0		
9	154.438	0.25	win-noreward	TurnDisplay				
9	154.689	0.75	win-noreward	OutcomeDisplay				
10	155.441		loss-noreward	ImageDisplay1		0.0		
10	157.681	0.75	loss-noreward	StartDisplay				
10	158.433		loss-noreward	ImageDisplay2		0.0		
10	161.442	1.6	loss-noreward	ChoiceDisplay	1	0.626	1	1
10	162.094	0.974	loss-noreward	ChosenDisplay		0.0		
10	163.047	0.25	loss-noreward	TurnDisplay				
10	163.298	0.75	loss-noreward	OutcomeDisplay				
11	164.05		control-reward	ImageDisplay1		0.0		
11	166.29	0.75	control-reward	StartDisplay				
11	167.042		control-reward	ImageDisplay2		0.0		
11	170.051	1.6	control-reward	ChoiceDisplay	1	0.75	1	1
11	170.82	0.85	control-reward	ChosenDisplay		0.0		
11	171.656	0.25	control-reward	TurnDisplay				
11	171.907	0.75	control-reward	OutcomeDisplay				
12	172.659		loss-reward	ImageDisplay1		0.0		
12	174.648	0.75	loss-reward	StartDisplay				
12	175.401		loss-reward	ImageDisplay2		0.0		
12	178.66	1.6	loss-reward	ChoiceDisplay	1	0.663	1	1
12	179.346	0.937	loss-reward	ChosenDisplay		0.0		
12	180.265	0.25	loss-reward	TurnDisplay				
12	180.516	0.75	loss-reward	OutcomeDisplay				
13	181.268		loss-noreward	ImageDisplay1		0.0		
13	183.508	0.75	loss-noreward	StartDisplay				
13	184.26		loss-noreward	ImageDisplay2		0.0		
13	187.269	1.6	loss-noreward	ChoiceDisplay	1	0.667	1	1
13	187.955	0.933	loss-noreward	ChosenDisplay		0.0		
13	188.874	0.25	loss-noreward	TurnDisplay				
13	189.125	0.75	loss-noreward	OutcomeDisplay				
14	189.877		win-reward	ImageDisplay1		0.0		
14	191.866	0.75	win-reward	StartDisplay				
14	192.619		win-reward	ImageDisplay2		0.0		
14	195.878	1.6	win-reward	ChoiceDisplay	1	0.663	1	1
14	196.564	0.937	win-reward	ChosenDisplay		0.0		
14	197.483	0.25	win-reward	TurnDisplay				
14	197.734	0.75	win-reward	OutcomeDisplay				
15	198.486		win-noreward	ImageDisplay1		0.0		
15	200.726	0.75	win-noreward	StartDisplay				
15	201.478		win-noreward	ImageDisplay2		0.0		
15	204.487	1.6	win-noreward	ChoiceDisplay	1	0.783	1	1
15	205.29	0.817	win-noreward	ChosenDisplay		0.0		
15	206.092	0.25	win-noreward	TurnDisplay				
15	206.343	0.75	win-noreward	OutcomeDisplay				
16	207.095		loss-noreward	ImageDisplay1		0.0		
16	209.335	0.75	loss-noreward	StartDisplay				
16	210.087		loss-noreward	ImageDisplay2		0.0		
16	213.096	1.6	loss-noreward	ChoiceDisplay	1	0.679	1	1
16	213.799	0.921	loss-noreward	ChosenDisplay		0.0		
16	214.701	0.25	loss-noreward	TurnDisplay				
16	214.952	0.75	loss-noreward	OutcomeDisplay				
17	215.704		control-reward	ImageDisplay1		0.0		
17	217.944	0.75	control-reward	StartDisplay				
17	218.696		control-reward	ImageDisplay2		0.0		
17	221.705	1.6	control-reward	ChoiceDisplay	1	0.74	1	1
17	222.458	0.86	control-reward	ChosenDisplay		0.0		
17	223.31	0.25	control-reward	TurnDisplay				
17	223.561	0.75	control-reward	OutcomeDisplay				
18	224.313		loss-noreward	ImageDisplay1		0.0		
18	226.553	0.75	loss-noreward	StartDisplay				
18	227.305		loss-noreward	ImageDisplay2		0.0		
18	230.314	1.6	loss-noreward	ChoiceDisplay	1	0.806	1	1
18	231.134	0.794	loss-noreward	ChosenDisplay		0.0		
18	231.919	0.25	loss-noreward	TurnDisplay				
18	232.17	0.75	loss-noreward	OutcomeDisplay				
19	232.922		loss-reward	ImageDisplay1		0.0		
19	235.162	0.75	loss-reward	StartDisplay				
19	235.914		loss-reward	ImageDisplay2		0.0		
19	238.923	1.6	loss-reward	ChoiceDisplay	1	0.647	1	1
19	239.592	0.953	loss-reward	ChosenDisplay		0.0		
19	240.528	0.25	loss-reward	TurnDisplay				
19	240.779	0.75	loss-reward	OutcomeDisplay				
20	241.531		control-reward	ImageDisplay1		0.0		
20	243.52	0.75	control-reward	StartDisplay				
20	244.273		control-reward	ImageDisplay2		0.0		
20	247.532	1.6	control-reward	ChoiceDisplay	1	0.607	1	1
20	248.151	0.993	control-reward	ChosenDisplay		0.0		
20	249.137	0.25	control-reward	TurnDisplay				
20	249.388	0.75	control-reward	OutcomeDisplay				
21	250.14		win-noreward	ImageDisplay1		0.0		
21	252.38	0.75	win-noreward	StartDisplay				
21	253.132		win-noreward	ImageDisplay2		0.0		
21	256.141	1.6	win-noreward	ChoiceDisplay	1	0.643	1	1
21	256.81	0.957	win-noreward	ChosenDisplay		0.0		
21	257.746	0.25	win-noreward	TurnDisplay				
21	257.997	0.75	win-noreward	OutcomeDisplay				
22	258.749		control-noreward	ImageDisplay1		0.0		
22	260.738	0.75	control-noreward	StartDisplay				
22	261.491		control-noreward	ImageDisplay2		0.0		
22	264.75	1.6	control-noreward	ChoiceDisplay	1	0.567	1	1
22	265.335	1.033	control-noreward	ChosenDisplay		0.0		
22	266.355	0.25	control-noreward	TurnDisplay				
22	266.606	0.75	control-noreward	OutcomeDisplay				
23	267.358		control-noreward	ImageDisplay1		0.0		
23	269.347	0.75	control-noreward	StartDisplay				
23	270.1		control-noreward	ImageDisplay2		0.0		
23	273.359	1.6	control-noreward	ChoiceDisplay	1	0.646	1	1
23	274.028	0.954	control-noreward	ChosenDisplay		0.0		
23	274.964	0.25	control-noreward	TurnDisplay				
23	275.215	0.75	control-noreward	OutcomeDisplay				
24	275.967		loss-noreward	ImageDisplay1		0.0		
24	278.207	0.75	loss-noreward	StartDisplay				
24	278.959		loss-noreward	ImageDisplay2		0.0		
24	281.968	1.6	loss-noreward	ChoiceDisplay	1	0.668	1	1
24	282.654	0.932	loss-noreward	ChosenDisplay		0.0		
24	283.573	0.25	loss-noreward	TurnDisplay				
24	283.824	0.75	loss-noreward	OutcomeDisplay				
25	284.576		win-reward	ImageDisplay1		0.0		
25	286.816	0.75	win-reward	StartDisplay				
25	287.568		win-reward	ImageDisplay2		0.0		
25	290.577	1.6	win-reward	ChoiceDisplay	1	0.69	1	1
25	291.28	0.91	win-reward	ChosenDisplay		0.0		
25	292.182	0.25	win-reward	TurnDisplay				
25	292.433	0.75	win-reward	OutcomeDisplay				
26	293.185		win-noreward	ImageDisplay1		0.0		
26	295.174	0.75	win-noreward	StartDisplay				
26	295.927		win-noreward	ImageDisplay2		0.0		
26	299.186	1.6	win-noreward	ChoiceDisplay	1	0.72	1	1
26	299.922	0.88	win-noreward	ChosenDisplay		0.0		
26	300.791	0.25	win-noreward	TurnDisplay				
26	301.042	0.75	win-noreward	OutcomeDisplay				
27	301.794		win-noreward	ImageDisplay1		0.0		
27	303.783	0.75	win-noreward	StartDisplay				
27	304.536		win-noreward	ImageDisplay2		0.0		
27	307.795	1.6	win-noreward	ChoiceDisplay	1	0.781	1	1
27	308.598	0.819	win-noreward	ChosenDisplay		0.0		
27	309.4	0.25	win-noreward	TurnDisplay				
27	309.651	0.75	win-noreward	OutcomeDisplay				
28	310.403		loss-reward	ImageDisplay1		0.0		
28	312.643	0.75	loss-reward	StartDisplay				
28	313.395		loss-reward	ImageDisplay2		0.0		
28	316.404	1.6	loss-reward	ChoiceDisplay	1	0.813	1	1
28	317.24	0.787	loss-reward	ChosenDisplay		0.0		
28	318.009	0.25	loss-reward	TurnDisplay				
28	318.26	0.75	loss-reward	OutcomeDisplay				
29	319.012		control-reward	ImageDisplay1		0.0		
29	321.001	0.75	control-reward	StartDisplay				
29	321.754		control-reward	ImageDisplay2		0.0		
29	325.013	1.6	control-reward	ChoiceDisplay	1	0.738	1	1
29	325.766	0.862	control-reward	ChosenDisplay		0.0		
29	326.618	0.25	control-reward	TurnDisplay				
29	326.869	0.75	control-reward	OutcomeDisplay				
30	327.621		control-reward	ImageDisplay1		0.0		
30	329.61	0.75	control-reward	StartDisplay				
30	330.363		control-reward	ImageDisplay2		0.0		
30	333.622	1.6	control-reward	ChoiceDisplay	1	0.672	1	1
30	334.308	0.928	control-reward	ChosenDisplay		0.0		
30	335.227	0.25	control-reward	TurnDisplay				
30	335.478	0.75	control-reward	OutcomeDisplay				
31	336.23		win-reward	ImageDisplay1		0.0		
31	338.219	0.75	win-reward	StartDisplay				
31	338.972		win-reward	ImageDisplay2		0.0		
31	342.231	1.6	win-reward	ChoiceDisplay	1	0.634	1	1
31	342.883	0.966	win-reward	ChosenDisplay		0.0		
31	343.836	0.25	win-reward	TurnDisplay				
31	344.087	0.75	win-reward	OutcomeDisplay				
32	344.839		control-reward	ImageDisplay1		0.0		
32	347.079	0.75	control-reward	StartDisplay				
32	347.831		control-reward	ImageDisplay2		0.0		
32	350.84	1.6	control-reward	ChoiceDisplay	1	0.699	1	1
32	351.559	0.901	control-reward	ChosenDisplay		0.0		
32	352.445	0.25	control-reward	TurnDisplay				
32	352.696	0.75	control-reward	OutcomeDisplay				
33	353.448		win-reward	ImageDisplay1		0.0		
33	355.437	0.75	win-reward	StartDisplay				
33	356.19		win-reward	ImageDisplay2		0.0		
33	359.449	1.6	win-reward	ChoiceDisplay	1	0.666	1	1
33	360.135	0.934	win-reward	ChosenDisplay		0.0		
33	361.054	0.25	win-reward	TurnDisplay				
33	361.305	0.75	win-reward	OutcomeDisplay				
34	362.057		win-noreward	ImageDisplay1		0.0		
34	364.046	0.75	win-noreward	StartDisplay				
34	364.799		win-noreward	ImageDisplay2		0.0		
34	368.058	1.6	win-noreward	ChoiceDisplay	1	0.65	1	1
34	368.727	0.95	win-noreward	ChosenDisplay		0.0		
34	369.663	0.25	win-noreward	TurnDisplay				
34	369.914	0.75	win-noreward	OutcomeDisplay				
35	370.666		win-noreward	ImageDisplay1		0.0		
35	372.655	0.75	win-noreward	StartDisplay				
35	373.408		win-noreward	ImageDisplay2		0.0		
35	376.667	1.6	win-noreward	ChoiceDisplay	1	0.809	1	1
35	377.503	0.791	win-noreward	ChosenDisplay		0.0		
35	378.272	0.25	win-noreward	TurnDisplay				
35	378.523	0.75	win-noreward	OutcomeDisplay				
36	379.275		loss-reward	ImageDisplay1		0.0		
36	381.515	0.75	loss-reward	StartDisplay				
36	382.267		loss-reward	ImageDisplay2		0.0		
36	385.276	1.6	loss-reward	ChoiceDisplay	1	0.68	1	1
36	385.979	0.92	loss-reward	ChosenDisplay		0.0		
36	386.881	0.25	loss-reward	TurnDisplay				
36	387.132	0.75	loss-reward	OutcomeDisplay				
37	387.884		loss-reward	ImageDisplay1		0.0		
37	389.873	0.75	loss-reward	StartDisplay				
37	390.626		loss-reward	ImageDisplay2		0.0		
37	393.885	1.6	loss-reward	ChoiceDisplay	1	0.714	1	1
37	394.621	0.886	loss-reward	ChosenDisplay		0.0		
37	395.49	0.25	loss-reward	TurnDisplay				
37	395.741	0.75	loss-reward	OutcomeDisplay				
38	396.493		control-reward	ImageDisplay1		0.0		
38	398.733	0.75	control-reward	StartDisplay				
38	399.485		control-reward	ImageDisplay2		0.0		
38	402.494	1.6	control-reward	ChoiceDisplay	1	0.679	1	1
38	403.197	0.921	control-reward	ChosenDisplay		0.0		
38	404.099	0.25	control-reward	TurnDisplay				
38	404.35	0.75	control-reward	OutcomeDisplay				
39	405.102		loss-reward	ImageDisplay1		0.0		
39	407.342	0.75	loss-reward	StartDisplay				
39	408.094		loss-reward	ImageDisplay2		0.0		
39	411.103	1.6	loss-reward	ChoiceDisplay	1	0.806	1	1
39	411.923	0.794	loss-reward	ChosenDisplay		0.0		
39	412.708	0.25	loss-reward	TurnDisplay				
39	412.959	0.75	loss-reward	OutcomeDisplay				
40	413.711		win-reward	ImageDisplay1		0.0		
40	415.951	0.75	win-reward	StartDisplay				
40	416.703		win-reward	ImageDisplay2		0.0		
40	419.712	1.6	win-reward	ChoiceDisplay	1	0.708	1	1
40	420.431	0.892	win-reward	ChosenDisplay		0.0		
40	421.317	0.25	win-reward	TurnDisplay				
40	421.568	0.75	win-reward	OutcomeDisplay				
41	422.32		loss-reward	ImageDisplay1		0.0		
41	424.309	0.75	loss-reward	StartDisplay				
41	425.062		loss-reward	ImageDisplay2		0.0		
41	428.321	1.6	loss-reward	ChoiceDisplay	1	0.761	1	1
41	429.107	0.839	loss-reward	ChosenDisplay		0.0		
41	429.926	0.25	loss-reward	TurnDisplay				
41	430.177	0.75	loss-reward	OutcomeDisplay				
42	430.929		loss-reward	ImageDisplay1		0.0		
42	432.918	0.75	loss-reward	StartDisplay				
42	433.671		loss-reward	ImageDisplay2		0.0		
42	436.93	1.6	loss-reward	ChoiceDisplay	1	0.71	1	1
42	437.666	0.89	loss-reward	ChosenDisplay		0.0		
42	438.535	0.25	loss-reward	TurnDisplay				
42	438.786	0.75	loss-reward	OutcomeDisplay				
43	439.538		win-reward	ImageDisplay1		0.0		
43	441.778	0.75	win-reward	StartDisplay				
43	442.53		win-reward	ImageDisplay2		0.0		
43	445.539	1.6	win-reward	ChoiceDisplay	1	0.587	1	1
43	446.141	1.013	win-reward	ChosenDisplay		0.0		
43	447.144	0.25	win-reward	TurnDisplay				
43	447.395	0.75	win-reward	OutcomeDisplay				
44	448.147		win-noreward	ImageDisplay1		0.0		
44	450.136	0.75	win-noreward	StartDisplay				
44	450.889		win-noreward	ImageDisplay2		0.0		
44	454.148	1.6	win-noreward	ChoiceDisplay	1	0.746	1	1
44	454.917	0.854	win-noreward	ChosenDisplay		0.0		
44	455.753	0.25	win-noreward	TurnDisplay				
44	456.004	0.75	win-noreward	OutcomeDisplay				
45	456.756		win-noreward	ImageDisplay1		0.0		
45	458.745	0.75	win-noreward	StartDisplay				
45	459.498		win-noreward	ImageDisplay2		0.0		
45	462.757	1.6	win-noreward	ChoiceDisplay	1	0.716	1	1
45	463.493	0.884	win-noreward	ChosenDisplay		0.0		
45	464.362	0.25	win-noreward	TurnDisplay				
45	464.613	0.75	win-noreward	OutcomeDisplay				
46	465.365		control-noreward	ImageDisplay1		0.0		
46	467.605	0.75	control-noreward	StartDisplay				
46	468.357		control-noreward	ImageDisplay2		0.0		
46	471.366	1.6	control-noreward	ChoiceDisplay	1	0.57	1	1
46	471.951	1.03	control-noreward	ChosenDisplay		0.0		
46	472.971	0.25	control-noreward	TurnDisplay				
46	473.222	0.75	control-noreward	OutcomeDisplay				
47	473.974		loss-reward	ImageDisplay1		0.0		
47	476.214	0.75	loss-reward	StartDisplay				
47	476.966		loss-reward	ImageDisplay2		0.0		
47	479.975	1.6	loss-reward	ChoiceDisplay	1	0.768	1	1
47	480.761	0.832	loss-reward	ChosenDisplay		0.0		
47	481.58	0.25	loss-reward	TurnDisplay				
47	481.831	0.75	loss-reward	OutcomeDisplay				
48	482.583		control-reward	ImageDisplay1		0.0		
48	484.572	0.75	control-reward	StartDisplay				
48	485.325		control-reward	ImageDisplay2		0.0		
48	488.584	1.6	control-reward	ChoiceDisplay	1	0.634	1	1
48	489.236	0.966	control-reward	ChosenDisplay		0.0		
48	490.189	0.25	control-reward	TurnDisplay				
48	490.44	0.75	control-reward	OutcomeDisplay				
49	491.192		loss-noreward	ImageDisplay1		0.0		
49	493.181	0.75	loss-noreward	StartDisplay				
49	493.934		loss-noreward	ImageDisplay2		0.0		
49	497.193	1.6	loss-noreward	ChoiceDisplay	1	0.867	1	1
49	498.079	0.733	loss-noreward	ChosenDisplay		0.0		
49	498.798	0.25	loss-noreward	TurnDisplay				
49	499.049	0.75	loss-noreward	OutcomeDisplay				
50	499.801		loss-reward	ImageDisplay1		0.0		
50	502.041	0.75	loss-reward	StartDisplay				
50	502.793		loss-reward	ImageDisplay2		0.0		
50	505.802	1.6	loss-reward	ChoiceDisplay	1	0.718	1	1
50	506.538	0.882	loss-reward	ChosenDisplay		0.0		
50	507.407	0.25	loss-reward	TurnDisplay				
50	507.658	0.75	loss-reward	OutcomeDisplay				
51	508.41		control-reward	ImageDisplay1		0.0		
51	510.65	0.75	control-reward	StartDisplay				
51	511.402		control-reward	ImageDisplay2		0.0		
51	514.411	1.6	control-reward	ChoiceDisplay	1	0.761	1	1
51	515.197	0.839	control-reward	ChosenDisplay		0.0		
51	516.016	0.25	control-reward	TurnDisplay				
51	516.267	0.75	control-reward	OutcomeDisplay				
52	517.019		win-reward	ImageDisplay1		0.0		
52	519.259	0.75	win-reward	StartDisplay				
52	520.011		win-reward	ImageDisplay2		0.0		
52	523.02	1.6	win-reward	ChoiceDisplay	1	0.694	1	1
52	523.739	0.906	win-reward	ChosenDisplay		0.0		
52	524.625	0.25	win-reward	TurnDisplay				
52	524.876	0.75	win-reward	OutcomeDisplay				
53	525.628		win-reward	ImageDisplay1		0.0		
53	527.617	0.75	win-reward	StartDisplay				
53	528.37		win-reward	ImageDisplay2		0.0		
53	531.629	1.6	win-reward	ChoiceDisplay	1	0.758	1	1
53	532.398	0.842	win-reward	ChosenDisplay		0.0		
53	533.234	0.25	win-reward	TurnDisplay				
53	533.485	0.75	win-reward	OutcomeDisplay				
54	534.237		control-reward	ImageDisplay1		0.0		
54	536.226	0.75	control-reward	StartDisplay				
54	536.979		control-reward	ImageDisplay2		0.0		
54	540.238	1.6	control-reward	ChoiceDisplay	1	0.891	1	1
54	541.141	0.709	control-reward	ChosenDisplay		0.0		
54	541.843	0.25	control-reward	TurnDisplay				
54	542.094	0.75	control-reward	OutcomeDisplay				
55	542.846		win-reward	ImageDisplay1		0.0		
55	544.835	0.75	win-reward	StartDisplay				
55	545.588		win-reward	ImageDisplay2		0.0		
55	548.847	1.6	win-reward	ChoiceDisplay	1	0.791	1	1
55	549.65	0.809	win-reward	ChosenDisplay		0.0		
55	550.452	0.25	win-reward	TurnDisplay				
55	550.703	0.75	win-reward	OutcomeDisplay				
56	551.455		control-reward	ImageDisplay1		0.0		
56	553.444	0.75	control-reward	StartDisplay				
56	554.197		control-reward	ImageDisplay2		0.0		
56	557.456	1.6	control-reward	ChoiceDisplay	1	0.95	1	1
56	558.426	0.65	control-reward	ChosenDisplay		0.0		
56	559.061	0.25	control-reward	TurnDisplay				
56	559.312	0.75	control-reward	OutcomeDisplay				
57	560.064		loss-noreward	ImageDisplay1		0.0		
57	562.053	0.75	loss-noreward	StartDisplay				
57	562.806		loss-noreward	ImageDisplay2		0.0		
57	566.065	1.6	loss-noreward	ChoiceDisplay	1	0.896	1	1
57	566.985	0.704	loss-noreward	ChosenDisplay		0.0		
57	567.67	0.25	loss-noreward	TurnDisplay				
57	567.921	0.75	loss-noreward	OutcomeDisplay				
58	568.673		win-reward	ImageDisplay1		0.0		
58	570.913	0.75	win-reward	StartDisplay				
58	571.665		win-reward	ImageDisplay2		0.0		
58	574.674	1.6	win-reward	ChoiceDisplay	1	0.732	1	1
58	575.427	0.868	win-reward	ChosenDisplay		0.0		
58	576.279	0.25	win-reward	TurnDisplay				
58	576.53	0.75	win-reward	OutcomeDisplay				
59	577.282		control-noreward	ImageDisplay1		0.0		
59	579.271	0.75	control-noreward	StartDisplay				
59	580.024		control-noreward	ImageDisplay2		0.0		
59	583.283	1.6	control-noreward	ChoiceDisplay	1	0.815	1	1
59	584.119	0.785	control-noreward	ChosenDisplay		0.0		
59	584.888	0.25	control-noreward	TurnDisplay				
59	585.139	0.75	control-noreward	OutcomeDisplay				
60	585.891		win-noreward	ImageDisplay1		0.0		
60	588.131	0.75	win-noreward	StartDisplay				
60	588.883		win-noreward	ImageDisplay2		0.0		
60	591.892	1.6	win-noreward	ChoiceDisplay	1	0.435	1	1
60	592.344	1.165	win-noreward	ChosenDisplay		0.0		
60	593.497	0.25	win-noreward	TurnDisplay				
60	593.748	0.75	win-noreward	OutcomeDisplay				
61	594.5		control-noreward	ImageDisplay1		0.0		
61	596.489	0.75	control-noreward	StartDisplay				
61	597.242		control-noreward	ImageDisplay2		0.0		
61	600.501	1.6	control-noreward	ChoiceDisplay	1	0.803	1	1
61	601.321	0.797	control-noreward	ChosenDisplay		0.0		
61	602.106	0.25	control-noreward	TurnDisplay				
61	602.357	0.75	control-noreward	OutcomeDisplay				
62	603.109		loss-reward	ImageDisplay1		0.0		
62	605.349	0.75	loss-reward	StartDisplay				
62	606.101		loss-reward	ImageDisplay2		0.0		
62	609.11	1.6	loss-reward	ChoiceDisplay	1	0.729	1	1
62	609.863	0.871	loss-reward	ChosenDisplay		0.0		
62	610.715	0.25	loss-reward	TurnDisplay				
62	610.966	0.75	loss-reward	OutcomeDisplay				
63	611.718		win-noreward	ImageDisplay1		0.0		
63	613.958	0.75	win-noreward	StartDisplay				
63	614.71		win-noreward	ImageDisplay2		0.0		
63	617.719	1.6	win-noreward	ChoiceDisplay	1	0.725	1	1
63	618.472	0.875	win-noreward	ChosenDisplay		0.0		
63	619.324	0.25	win-noreward	TurnDisplay				
63	619.575	0.75	win-noreward	OutcomeDisplay				
64	620.327		win-reward	ImageDisplay1		0.0		
64	622.316	0.75	win-reward	StartDisplay				
64	623.069		win-reward	ImageDisplay2		0.0		
64	626.328	1.6	win-reward	ChoiceDisplay	1	0.746	1	1
64	627.097	0.854	win-reward	ChosenDisplay		0.0		
64	627.933	0.25	win-reward	TurnDisplay				
64	628.184	0.75	win-reward	OutcomeDisplay				
65	628.936		control-noreward	ImageDisplay1		0.0		
65	631.176	0.75	control-noreward	StartDisplay				
65	631.928		control-noreward	ImageDisplay2		0.0		
65	634.937	1.6	control-noreward	ChoiceDisplay	1	0.79	1	1
65	635.74	0.81	control-noreward	ChosenDisplay		0.0		
65	636.542	0.25	control-noreward	TurnDisplay				
65	636.793	0.75	control-noreward	OutcomeDisplay				
66	637.545		win-reward	ImageDisplay1		0.0		
66	639.785	0.75	win-reward	StartDisplay				
66	640.537		win-reward	ImageDisplay2		0.0		
66	643.546	1.6	win-reward	ChoiceDisplay	1	0.894	1	1
66	644.466	0.706	win-reward	ChosenDisplay		0.0		
66	645.151	0.25	win-reward	TurnDisplay				
66	645.402	0.75	win-reward	OutcomeDisplay				
67	646.154		loss-noreward	ImageDisplay1		0.0		
67	648.394	0.75	loss-noreward	StartDisplay				
67	649.146		loss-noreward	ImageDisplay2		0.0		
67	652.155	1.6	loss-noreward	ChoiceDisplay	1	0.896	1	1
67	653.075	0.704	loss-noreward	ChosenDisplay		0.0		
67	653.76	0.25	loss-noreward	TurnDisplay				
67	654.011	0.75	loss-noreward	OutcomeDisplay				
68	654.763		loss-reward	ImageDisplay1		0.0		
68	656.752	0.75	loss-reward	StartDisplay				
68	657.505		loss-reward	ImageDisplay2		0.0		
68	660.764	1.6	loss-reward	ChoiceDisplay	1	0.812	1	1
68	661.6	0.788	loss-reward	ChosenDisplay		0.0		
68	662.369	0.25	loss-reward	TurnDisplay				
68	662.62	0.75	loss-reward	OutcomeDisplay				
69	663.372		control-noreward	ImageDisplay1		0.0		
69	665.612	0.75	control-noreward	StartDisplay				
69	666.364		control-noreward	ImageDisplay2		0.0		
69	669.373	1.6	control-noreward	ChoiceDisplay	1	0.901	1	1
69	670.293	0.699	control-noreward	ChosenDisplay		0.0		
69	670.978	0.25	control-noreward	TurnDisplay				
69	671.229	0.75	control-noreward	OutcomeDisplay				
70	671.981		loss-reward	ImageDisplay1		0.0		
70	673.97	0.75	loss-reward	StartDisplay				
70	674.723		loss-reward	ImageDisplay2		0.0		
70	677.982	1.6	loss-reward	ChoiceDisplay	1	0.874	1	1
70	678.868	0.726	loss-reward	ChosenDisplay		0.0		
70	679.587	0.25	loss-reward	TurnDisplay				
70	679.838	0.75	loss-reward	OutcomeDisplay				
71	680.59		control-noreward	ImageDisplay1		0.0		
71	682.579	0.75	control-noreward	StartDisplay				
71	683.332		control-noreward	ImageDisplay2		0.0		
71	686.591	1.6	control-noreward	ChoiceDisplay	1	1.046	1	1
71	687.661	0.554	control-noreward	ChosenDisplay		0.0		
71	688.196	0.25	control-noreward	TurnDisplay				
71	688.447	0.75	control-noreward	OutcomeDisplay				
72	689.199		control-noreward	ImageDisplay1		0.0		
72	691.439	0.75	control-noreward	StartDisplay				
72	692.191		control-noreward	ImageDisplay2		0.0		
72	695.2	1.6	control-noreward	ChoiceDisplay	1	0.956	1	1
72	696.17	0.644	control-noreward	ChosenDisplay		0.0		
72	696.805	0.25	control-noreward	TurnDisplay				
72	697.056	0.75	control-noreward	OutcomeDisplay				
73	697.808		control-reward	ImageDisplay1		0.0		
73	700.048	0.75	control-reward	StartDisplay				
73	700.8		control-reward	ImageDisplay2		0.0		
73	703.809	1.6	control-reward	ChoiceDisplay	1	0.991	1	1
73	704.812	0.609	control-reward	ChosenDisplay		0.0		
73	705.414	0.25	control-reward	TurnDisplay				
73	705.665	0.75	control-reward	OutcomeDisplay				
74	706.417		control-reward	ImageDisplay1		0.0		
74	708.406	0.75	control-reward	StartDisplay				
74	709.159		control-reward	ImageDisplay2		0.0		
74	712.418	1.6	control-reward	ChoiceDisplay	1	0.824	1	1
74	713.254	0.776	control-reward	ChosenDisplay		0.0		
74	714.023	0.25	control-reward	TurnDisplay				
74	714.274	0.75	control-reward	OutcomeDisplay				
75	715.026		loss-reward	ImageDisplay1		0.0		
75	717.015	0.75	loss-reward	StartDisplay				
75	717.768		loss-reward	ImageDisplay2		0.0		
75	721.027	1.6	loss-reward	ChoiceDisplay	1	0.856	1	1
75	721.897	0.744	loss-reward	ChosenDisplay		0.0		
75	722.632	0.25	loss-reward	TurnDisplay				
75	722.883	0.75	loss-reward	OutcomeDisplay				
76	723.635		control-noreward	ImageDisplay1		0.0		
76	725.875	0.75	control-noreward	StartDisplay				
76	726.627		control-noreward	ImageDisplay2		0.0		
76	729.636	1.6	control-noreward	ChoiceDisplay	1	0.758	1	1
76	730.405	0.842	control-noreward	ChosenDisplay		0.0		
76	731.241	0.25	control-noreward	TurnDisplay				
76	731.492	0.75	control-noreward	OutcomeDisplay				
77	732.244		win-reward	ImageDisplay1		0.0		
77	734.233	0.75	win-reward	StartDisplay				
77	734.986		win-reward	ImageDisplay2		0.0		
77	738.245	1.6	win-reward	ChoiceDisplay	1	0.668	1	1
77	738.931	0.932	win-reward	ChosenDisplay		0.0		
77	739.85	0.25	win-reward	TurnDisplay				
77	740.101	0.75	win-reward	OutcomeDisplay				
78	740.853		control-noreward	ImageDisplay1		0.0		
78	743.093	0.75	control-noreward	StartDisplay				
78	743.845		control-noreward	ImageDisplay2		0.0		
78	746.854	1.6	control-noreward	ChoiceDisplay	1	0.85	1	1
78	747.724	0.75	control-noreward	ChosenDisplay		0.0		
78	748.459	0.25	control-noreward	TurnDisplay				
78	748.71	0.75	control-noreward	OutcomeDisplay				
79	749.462		win-reward	ImageDisplay1		0.0		
79	751.702	0.75	win-reward	StartDisplay				
79	752.471		win-reward	ImageDisplay2		0.0		
79	755.463	1.6	win-reward	ChoiceDisplay	1	0.733	1	1
79	756.216	0.867	win-reward	ChosenDisplay		0.0		
79	757.068	0.25	win-reward	TurnDisplay				
79	757.319	0.75	win-reward	OutcomeDisplay				
80	758.071		win-reward	ImageDisplay1		0.0		
80	760.311	0.75	win-reward	StartDisplay				
80	761.063		win-reward	ImageDisplay2		0.0		
80	764.072	1.6	win-reward	ChoiceDisplay	1	0.784	1	1
80	764.875	0.816	win-reward	ChosenDisplay		0.0		
80	765.677	0.25	win-reward	TurnDisplay				
80	765.928	0.75	win-reward	OutcomeDisplay				
81	766.68		win-reward	ImageDisplay1		0.0		
81	768.92	0.75	win-reward	StartDisplay				
81	769.672		win-reward	ImageDisplay2		0.0		
81	772.681	1.6	win-reward	ChoiceDisplay	1	0.76	1	1
81	773.467	0.84	win-reward	ChosenDisplay		0.0		
81	774.286	0.25	win-reward	TurnDisplay				
81	774.537	0.75	win-reward	OutcomeDisplay				
82	775.289		win-reward	ImageDisplay1		0.0		
82	777.278	0.75	win-reward	StartDisplay				
82	778.031		win-reward	ImageDisplay2		0.0		
82	781.29	1.6	win-reward	ChoiceDisplay	1	0.826	1	1
82	782.143	0.774	win-reward	ChosenDisplay		0.0		
82	782.895	0.25	win-reward	TurnDisplay				
82	783.146	0.75	win-reward	OutcomeDisplay				
83	783.898		win-noreward	ImageDisplay1		0.0		
83	786.138	0.75	win-noreward	StartDisplay				
83	786.89		win-noreward	ImageDisplay2		0.0		
83	789.899	1.6	win-noreward	ChoiceDisplay	1	0.704	1	1
83	790.618	0.896	win-noreward	ChosenDisplay		0.0		
83	791.504	0.25	win-noreward	TurnDisplay				
83	791.755	0.75	win-noreward	OutcomeDisplay				
84	792.507		control-reward	ImageDisplay1		0.0		
84	794.496	0.75	control-reward	StartDisplay				
84	795.249		control-reward	ImageDisplay2		0.0		
84	798.508	1.6	control-reward	ChoiceDisplay	1	0.789	1	1
84	799.311	0.811	control-reward	ChosenDisplay		0.0		
84	800.113	0.25	control-reward	TurnDisplay				
84	800.364	0.75	control-reward	OutcomeDisplay				
85	801.116		control-reward	ImageDisplay1		0.0		
85	803.356	0.75	control-reward	StartDisplay				
85	804.108		control-reward	ImageDisplay2		0.0		
85	807.117	1.6	control-reward	ChoiceDisplay	1	0.746	1	1
85	807.886	0.854	control-reward	ChosenDisplay		0.0		
85	808.722	0.25	control-reward	TurnDisplay				
85	808.973	0.75	control-reward	OutcomeDisplay				
86	809.725		win-noreward	ImageDisplay1		0.0		
86	811.714	0.75	win-noreward	StartDisplay				
86	812.467		win-noreward	ImageDisplay2		0.0		
86	815.726	1.6	win-noreward	ChoiceDisplay	1	0.834	1	1
86	816.579	0.766	win-noreward	ChosenDisplay		0.0		
86	817.331	0.25	win-noreward	TurnDisplay				
86	817.582	0.75	win-noreward	OutcomeDisplay				
87	818.334		loss-noreward	ImageDisplay1		0.0		
87	820.323	0.75	loss-noreward	StartDisplay				
87	821.076		loss-noreward	ImageDisplay2		0.0		
87	824.335	1.6	loss-noreward	ChoiceDisplay	1	0.704	1	1
87	825.054	0.896	loss-noreward	ChosenDisplay		0.0		
87	825.94	0.25	loss-noreward	TurnDisplay				
87	826.191	0.75	loss-noreward	OutcomeDisplay				
88	826.943		control-noreward	ImageDisplay1		0.0		
88	828.932	0.75	control-noreward	StartDisplay				
88	829.685		control-noreward	ImageDisplay2		0.0		
88	832.944	1.6	control-noreward	ChoiceDisplay	1	0.806	1	1
88	833.764	0.794	control-noreward	ChosenDisplay		0.0		
88	834.549	0.25	control-noreward	TurnDisplay				
88	834.8	0.75	control-noreward	OutcomeDisplay				
89	835.552		loss-noreward	ImageDisplay1		0.0		
89	837.541	0.75	loss-noreward	StartDisplay				
89	838.294		loss-noreward	ImageDisplay2		0.0		
89	841.553	1.6	loss-noreward	ChoiceDisplay	1	0.774	1	1
89	842.339	0.826	loss-noreward	ChosenDisplay		0.0		
89	843.158	0.25	loss-noreward	TurnDisplay				
89	843.409	0.75	loss-noreward	OutcomeDisplay				
90	844.161		win-noreward	ImageDisplay1		0.0		
90	846.401	0.75	win-noreward	StartDisplay				
90	847.153		win-noreward	ImageDisplay2		0.0		
90	850.162	1.6	win-noreward	ChoiceDisplay	1	0.735	1	1
90	850.915	0.865	win-noreward	ChosenDisplay		0.0		
90	851.767	0.25	win-noreward	TurnDisplay				
90	852.018	0.75	win-noreward	OutcomeDisplay				
91	852.77		loss-noreward	ImageDisplay1		0.0		
91	854.759	0.75	loss-noreward	StartDisplay				
91	855.512		loss-noreward	ImageDisplay2		0.0		
91	858.771	1.6	loss-noreward	ChoiceDisplay	1	0.875	1	1
91	859.657	0.725	loss-noreward	ChosenDisplay		0.0		
91	860.376	0.25	loss-noreward	TurnDisplay				
91	860.627	0.75	loss-noreward	OutcomeDisplay				
92	861.379		control-noreward	ImageDisplay1		0.0		
92	863.619	0.75	control-noreward	StartDisplay				
92	864.371		control-noreward	ImageDisplay2		0.0		
92	867.38	1.6	control-noreward	ChoiceDisplay	1	0.932	1	1
92	868.333	0.668	control-noreward	ChosenDisplay		0.0		
92	868.985	0.25	control-noreward	TurnDisplay				
92	869.236	0.75	control-noreward	OutcomeDisplay				
93	869.988		control-noreward	ImageDisplay1		0.0		
93	872.228	0.75	control-noreward	StartDisplay				
93	872.98		control-noreward	ImageDisplay2		0.0		
93	875.989	1.6	control-noreward	ChoiceDisplay	1	0.705	1	1
93	876.708	0.895	control-noreward	ChosenDisplay		0.0		
93	877.594	0.25	control-noreward	TurnDisplay				
93	877.845	0.75	control-noreward	OutcomeDisplay				
94	878.597		win-reward	ImageDisplay1		0.0		
94	880.586	0.75	win-reward	StartDisplay				
94	881.339		win-reward	ImageDisplay2		0.0		
94	884.598	1.6	win-reward	ChoiceDisplay	1	0.814	1	1
94	885.434	0.786	win-reward	ChosenDisplay		0.0		
94	886.203	0.25	win-reward	TurnDisplay				
94	886.454	0.75	win-reward	OutcomeDisplay				
95	887.206		loss-noreward	ImageDisplay1		0.0		
95	889.195	0.75	loss-noreward	StartDisplay				
95	889.948		loss-noreward	ImageDisplay2		0.0		
95	893.207	1.6	loss-noreward	ChoiceDisplay	1	0.665	1	1
95	893.893	0.935	loss-noreward	ChosenDisplay		0.0		
95	894.812	0.25	loss-noreward	TurnDisplay				
95	895.063	0.75	loss-noreward	OutcomeDisplay				
