onset	duration	trial_type	response_time	stim_file	accuracy
424.635	1.0	go	0.449	Go_O	1.0
427.243	1.0	go	0.39	Go_X	1.0
429.767	1.0	go	0.417	Go_X	1.0
432.291	1.0	go	0.332	Go_O	1.0
434.815	1.0	go	0.388	Go_O	1.0
437.339	1.0	go	0.326	Go_X	1.0
439.863	0.25	stopfail	0.331	Go_O	0.0
442.388	1.0	go	0.399	Go_X	1.0
444.912	0.2	stopsuccess	0.0	Go_X	1.0
447.436	1.0	go	0.229	Go_O	1.0
449.96	1.0	go	0.438	Go_X	1.0
452.484	1.0	go	0.403	Go_O	1.0
455.008	0.25	stopsuccess	0.0	Go_O	1.0
457.533	1.0	go	0.511	Go_X	1.0
460.057	1.0	go	0.277	Go_O	1.0
462.581	0.3	stopfail	0.39	Go_X	0.0
465.105	0.25	stopfail	0.322	Go_O	0.0
467.629	1.0	go	0.612	Go_O	1.0
470.153	1.0	go	0.318	Go_X	1.0
472.678	0.2	stopsuccess	0.0	Go_X	1.0
475.202	1.0	go	0.382	Go_X	1.0
477.726	1.0	go	0.286	Go_O	1.0
480.25	0.25	stopsuccess	0.0	Go_O	1.0
482.774	1.0	go	0.363	Go_O	1.0
485.299	1.0	go	0.344	Go_X	1.0
487.823	0.3	stopfail	0.346	Go_X	0.0
490.347	1.0	go	0.448	Go_O	1.0
492.871	1.0	go	0.398	Go_X	1.0
495.395	0.25	stopfail	0.366	Go_O	0.0
497.919	1.0	go	0.447	Go_X	1.0
500.444	1.0	go	0.587	Go_O	1.0
502.968	1.0	go	0.362	Go_X	1.0
505.492	1.0	go	0.47	Go_O	1.0
508.016	1.0	go	0.38	Go_O	1.0
510.54	0.2	stopsuccess	0.0	Go_X	1.0
513.064	1.0	go	0.492	Go_X	1.0
515.589	1.0	go	0.338	Go_O	1.0
518.113	1.0	go	0.391	Go_X	1.0
520.637	1.0	go	0.503	Go_O	1.0
523.161	1.0	go	0.481	Go_X	1.0
525.685	0.25	stopsuccess	0.0	Go_O	1.0
528.209	1.0	go	0.332	Go_X	1.0
530.734	1.0	go	0.279	Go_O	1.0
533.258	1.0	go	0.556	Go_O	1.0
535.782	1.0	go	0.344	Go_X	1.0
538.306	1.0	go	0.525	Go_O	1.0
540.83	1.0	go	0.352	Go_X	1.0
543.354	0.3	stopfail	0.39	Go_X	0.0
545.879	1.0	go	0.382	Go_O	1.0
548.403	1.0	go	0.466	Go_X	1.0
550.927	0.25	stopfail	0.404	Go_O	0.0
553.451	1.0	go	0.357	Go_O	1.0
555.975	0.2	stopfail	0.345	Go_X	0.0
558.5	0.15	stopsuccess	0.0	Go_O	1.0
561.024	1.0	go	0.296	Go_X	1.0
563.548	1.0	go	0.417	Go_X	1.0
566.072	1.0	go	0.425	Go_O	1.0
568.596	1.0	go	0.555	Go_X	1.0
571.12	0.2	stopfail	0.47	Go_X	0.0
573.645	1.0	go	0.391	Go_O	1.0
576.169	0.15	stopsuccess	0.0	Go_O	1.0
578.693	1.0	go	0.397	Go_O	1.0
581.217	1.0	go	0.374	Go_X	1.0
583.741	1.0	go	0.358	Go_X	1.0
586.265	1.0	go	0.432	Go_O	1.0
588.79	1.0	go	0.331	Go_O	1.0
591.314	1.0	go	0.316	Go_X	1.0
593.838	1.0	go	0.341	Go_O	1.0
596.362	1.0	go	0.261	Go_X	1.0
598.886	1.0	go	0.244	Go_O	1.0
601.41	0.2	stopsuccess	0.0	Go_X	1.0
603.935	1.0	go	0.384	Go_X	1.0
606.459	1.0	go	0.299	Go_O	1.0
608.983	1.0	go	0.4	Go_X	1.0
611.507	0.25	stopfail	0.355	Go_O	0.0
614.031	1.0	go	0.409	Go_O	1.0
616.555	1.0	go	0.369	Go_X	1.0
619.08	1.0	go	0.457	Go_X	1.0
621.604	1.0	go	0.34	Go_O	1.0
624.128	1.0	go	0.405	Go_X	1.0
626.652	1.0	go	0.419	Go_O	1.0
629.176	0.2	stopfail	0.272	Go_X	0.0
631.7	1.0	go	0.443	Go_X	1.0
634.225	1.0	go	0.326	Go_O	1.0
636.749	0.15	stopsuccess	0.0	Go_O	1.0
639.273	1.0	go	0.385	Go_X	1.0
641.797	1.0	go	0.364	Go_O	1.0
644.321	0.2	stopfail	0.292	Go_X	0.0
646.846	1.0	go	0.318	Go_O	1.0
649.37	0.15	stopsuccess	0.0	Go_O	1.0
651.894	1.0	go	0.353	Go_X	1.0
654.418	1.0	go	0.368	Go_X	1.0
656.942	1.0	go	0.41	Go_O	1.0
659.466	1.0	go	0.447	Go_X	1.0
661.991	1.0	go	0.306	Go_O	1.0
664.515	0.2	stopsuccess	0.0	Go_X	1.0
667.039	0.25	stopfail	0.319	Go_O	0.0
669.563	1.0	go	0.397	Go_O	1.0
672.087	1.0	go	0.36	Go_X	1.0
674.611	0.2	stopsuccess	0.0	Go_X	1.0
677.136	1.0	go	0.336	Go_O	1.0
679.66	1.0	go	0.351	Go_X	1.0
682.184	1.0	go	0.397	Go_X	1.0
684.708	1.0	go	0.382	Go_O	1.0
687.232	1.0	go	0.394	Go_X	0.0
689.756	1.0	go	0.397	Go_O	1.0
692.281	0.25	stopsuccess	0.0	Go_O	1.0
694.805	1.0	go	0.403	Go_O	1.0
697.329	1.0	go	0.261	Go_X	1.0
699.853	1.0	go	0.412	Go_O	1.0
702.377	1.0	go	0.36	Go_X	1.0
704.901	1.0	go	0.414	Go_X	1.0
707.426	0.3	stopfail	0.455	Go_X	0.0
709.95	1.0	go	0.34	Go_O	1.0
712.474	1.0	go	0.454	Go_O	1.0
714.998	1.0	go	0.318	Go_X	1.0
717.522	1.0	go	0.368	Go_O	1.0
720.046	0.25	stopsuccess	0.0	Go_O	1.0
722.571	1.0	go	0.382	Go_X	1.0
725.095	1.0	go	0.474	Go_O	1.0
727.619	0.3	stopsuccess	0.0	Go_X	1.0
730.143	1.0	go	0.369	Go_X	1.0
732.667	0.35	stopfail	0.327	Go_O	0.0
735.192	1.0	go	0.502	Go_O	1.0
737.716	1.0	go	0.378	Go_X	1.0
740.24	1.0	go	0.374	Go_X	1.0
742.764	1.0	go	0.341	Go_O	1.0
745.288	1.0	go	0.353	Go_O	1.0
747.812	1.0	go	0.397	Go_X	1.0
750.337	1.0	go	0.523	Go_O	1.0
752.861	0.3	stopsuccess	0.0	Go_X	1.0
755.385	1.0	go	0.59	Go_X	1.0
757.909	1.0	go	0.369	Go_X	1.0
760.433	1.0	go	0.394	Go_O	1.0
762.957	0.35	stopfail	0.431	Go_O	0.0
765.482	1.0	go	0.534	Go_X	1.0
768.006	1.0	go	0.401	Go_O	1.0
770.53	1.0	go	0.426	Go_X	1.0
773.054	1.0	go	0.501	Go_O	1.0
775.578	0.3	stopfail	0.387	Go_X	0.0
778.102	1.0	go	0.441	Go_O	1.0
780.627	1.0	go	0.453	Go_X	1.0
783.151	0.25	stopfail	0.36	Go_O	0.0
785.675	1.0	go	0.348	Go_X	1.0
788.199	1.0	go	0.352	Go_O	1.0
790.723	0.2	stopfail	0.337	Go_X	0.0
793.247	1.0	go	0.307	Go_O	1.0
795.772	1.0	go	0.336	Go_X	1.0
798.296	0.15	stopsuccess	0.0	Go_O	1.0
800.82	1.0	go	0.347	Go_O	1.0
803.344	1.0	go	0.392	Go_X	1.0
805.868	1.0	go	0.416	Go_X	1.0
808.393	1.0	go	0.392	Go_O	1.0
810.917	1.0	go	0.549	Go_X	1.0
813.441	1.0	go	0.295	Go_O	1.0
815.965	0.2	stopfail	0.253	Go_X	0.0
818.489	1.0	go	0.27	Go_X	1.0
821.013	0.15	stopfail	0.283	Go_O	0.0
823.538	1.0	go	0.37	Go_O	1.0
826.062	1.0	go	0.348	Go_X	1.0
828.586	1.0	go	0.412	Go_O	1.0
831.11	1.0	go	0.35	Go_O	1.0
833.634	1.0	go	0.341	Go_X	1.0
836.158	0.1	stopsuccess	0.0	Go_X	1.0
838.683	1.0	go	0.285	Go_O	1.0
841.207	1.0	go	0.268	Go_X	1.0
843.731	1.0	go	0.381	Go_X	1.0
846.255	0.15	stopsuccess	0.0	Go_O	1.0
848.779	0.2	stopfail	0.301	Go_X	0.0
851.303	0.15	stopsuccess	0.0	Go_O	1.0
853.828	1.0	go	0.56	Go_O	1.0
856.352	0.2	stopsuccess	0.0	Go_X	1.0
858.876	1.0	go	0.336	Go_O	1.0
861.4	1.0	go	0.456	Go_X	1.0
863.924	1.0	go	0.293	Go_X	1.0
866.448	1.0	go	0.346	Go_O	1.0
868.973	1.0	go	0.314	Go_O	1.0
871.497	1.0	go	0.393	Go_X	1.0
874.021	1.0	go	0.423	Go_X	1.0
876.545	1.0	go	0.311	Go_O	1.0
879.069	0.25	stopfail	0.391	Go_O	0.0
881.593	1.0	go	0.365	Go_X	1.0
884.118	1.0	go	0.403	Go_O	1.0
886.642	0.2	stopfail	0.376	Go_X	0.0
889.166	1.0	go	0.299	Go_O	1.0
891.69	1.0	go	0.322	Go_X	1.0
894.214	1.0	go	0.403	Go_O	1.0
896.739	1.0	go	0.32	Go_X	1.0
899.263	1.0	go	0.362	Go_O	1.0
901.787	0.15	stopsuccess	0.0	Go_O	1.0
904.311	1.0	go	0.37	Go_X	1.0
906.835	1.0	go	0.326	Go_O	1.0
909.359	1.0	go	0.387	Go_X	1.0
911.884	0.2	stopsuccess	0.0	Go_X	1.0
914.408	1.0	go	0.36	Go_X	1.0
916.932	0.25	stopfail	0.339	Go_O	0.0
919.456	1.0	go	0.409	Go_O	1.0
921.98	1.0	go	0.401	Go_O	1.0
924.504	1.0	go	0.484	Go_X	1.0
927.029	1.0	go	0.402	Go_O	1.0
929.553	1.0	go	0.303	Go_X	1.0
932.077	1.0	go	0.518	Go_X	1.0
934.601	1.0	go	0.428	Go_O	1.0
937.125	0.2	stopsuccess	0.0	Go_X	1.0
939.649	1.0	go	0.343	Go_O	1.0
942.174	1.0	go	0.288	Go_X	1.0
944.698	1.0	go	0.398	Go_X	1.0
947.222	1.0	go	0.381	Go_O	1.0
949.746	0.25	stopsuccess	0.0	Go_O	1.0
952.27	1.0	go	0.356	Go_X	1.0
954.794	0.3	stopfail	0.371	Go_X	0.0
957.319	1.0	go	0.417	Go_O	1.0
959.843	1.0	go	0.544	Go_X	1.0
962.367	0.25	stopsuccess	0.0	Go_O	1.0
964.891	1.0	go	0.541	Go_O	1.0
967.415	1.0	go	0.371	Go_X	1.0
969.94	1.0	go	0.385	Go_O	1.0
972.464	1.0	go	0.359	Go_X	1.0
974.988	1.0	go	0.526	Go_O	1.0
977.512	1.0	go	0.415	Go_O	1.0
980.036	1.0	go	0.414	Go_X	1.0
982.56	1.0	go	0.351	Go_O	1.0
985.085	1.0	go	0.0	Go_X	0.0
987.609	1.0	go	0.447	Go_X	1.0
990.133	0.3	stopsuccess	0.0	Go_X	1.0
992.657	1.0	go	0.424	Go_O	1.0
995.181	1.0	go	0.559	Go_O	1.0
997.705	0.35	stopsuccess	0.0	Go_O	1.0
1000.23	1.0	go	0.517	Go_X	1.0
1002.754	0.4	stopfail	0.508	Go_X	0.0
1005.278	1.0	go	0.518	Go_X	1.0
1007.802	1.0	go	0.601	Go_O	1.0
1010.326	0.35	stopsuccess	0.0	Go_O	1.0
1012.85	1.0	go	0.334	Go_O	1.0
1015.375	0.4	stopfail	0.328	Go_X	0.0
1017.899	1.0	go	0.797	Go_X	1.0
1020.423	1.0	go	0.959	Go_O	1.0
1022.947	1.0	go	0.681	Go_X	1.0
1025.471	0.35	stopfail	0.437	Go_O	0.0
1027.995	1.0	go	0.391	Go_X	1.0
1030.52	1.0	go	0.579	Go_O	1.0
1033.044	1.0	go	0.483	Go_X	1.0
1035.568	1.0	go	0.446	Go_O	1.0
1038.092	0.3	stopfail	0.393	Go_X	0.0
1040.616	1.0	go	0.48	Go_X	1.0
1043.14	1.0	go	0.369	Go_O	1.0
1045.665	0.25	stopfail	0.377	Go_O	0.0
1048.189	1.0	go	0.464	Go_X	1.0
1050.713	1.0	go	0.585	Go_O	1.0
1053.237	1.0	go	0.493	Go_O	1.0
1055.761	1.0	go	0.422	Go_X	1.0
1058.286	0.2	stopsuccess	0.0	Go_X	1.0
1060.81	1.0	go	0.387	Go_X	1.0
1063.334	0.25	stopsuccess	0.0	Go_O	1.0
1065.858	1.0	go	0.36	Go_O	1.0
1068.382	1.0	go	0.356	Go_X	1.0
1070.906	0.3	stopfail	0.477	Go_X	0.0
1073.431	1.0	go	0.761	Go_O	1.0
1075.955	1.0	go	0.396	Go_X	1.0
1078.479	1.0	go	0.42	Go_O	1.0
1081.003	1.0	go	0.413	Go_X	1.0
1083.527	0.25	stopsuccess	0.0	Go_O	1.0
1086.051	1.0	go	0.446	Go_O	1.0
1088.576	0.3	stopsuccess	0.0	Go_X	1.0
1091.1	1.0	go	0.513	Go_O	1.0
1093.624	1.0	go	0.714	Go_X	0.0
1096.148	1.0	go	0.44	Go_X	1.0
1098.672	1.0	go	0.395	Go_O	1.0
1101.196	1.0	go	0.371	Go_X	1.0
1103.721	1.0	go	0.375	Go_O	1.0
1106.245	0.35	stopfail	0.431	Go_O	0.0
1108.769	1.0	go	0.344	Go_X	1.0
1111.293	1.0	go	0.396	Go_O	1.0
1113.817	0.3	stopfail	0.385	Go_X	0.0
1116.341	1.0	go	0.35	Go_O	1.0
1118.866	1.0	go	0.457	Go_X	1.0
1121.39	0.25	stopfail	0.371	Go_O	0.0
1123.914	1.0	go	0.455	Go_X	1.0
1126.438	1.0	go	0.367	Go_O	1.0
1128.962	1.0	go	0.326	Go_O	1.0
1131.486	1.0	go	0.299	Go_X	1.0
1134.011	0.2	stopsuccess	0.0	Go_X	1.0
1136.535	1.0	go	0.453	Go_X	1.0
1139.059	0.25	stopsuccess	0.0	Go_O	1.0
1141.583	1.0	go	0.602	Go_O	1.0
1144.107	1.0	go	0.627	Go_X	1.0
1146.632	1.0	go	0.639	Go_O	1.0
1149.156	1.0	go	0.588	Go_X	1.0
1151.68	1.0	go	0.413	Go_O	1.0
1154.204	0.3	stopfail	0.384	Go_X	0.0
1156.728	1.0	go	0.439	Go_O	1.0
1159.252	1.0	go	0.513	Go_X	1.0
1161.777	0.25	stopsuccess	0.0	Go_O	1.0
1164.301	0.3	stopfail	0.426	Go_X	0.0
1166.825	1.0	go	0.433	Go_O	1.0
1169.349	1.0	go	0.542	Go_X	1.0
1171.873	1.0	go	0.53	Go_O	1.0
1174.397	1.0	go	0.604	Go_X	1.0
1176.922	0.25	stopfail	0.419	Go_O	0.0
1179.446	1.0	go	0.591	Go_O	1.0
