onset	duration	trial_type	response_time	stim_file	accuracy
32.748	1.0	go	0.611	Go_O	1.0
35.282	1.0	go	0.61	Go_X	1.0
37.815	1.0	go	0.805	Go_O	1.0
40.348	1.0	go	0.616	Go_X	1.0
42.881	1.0	go	0.919	Go_X	1.0
45.415	1.0	go	0.67	Go_O	1.0
47.948	0.25	stopsuccess	0.0	Go_O	1.0
50.481	1.0	go	0.729	Go_O	1.0
53.014	0.3	stopsuccess	0.0	Go_X	1.0
55.548	1.0	go	0.47	Go_X	1.0
58.081	1.0	go	0.754	Go_X	1.0
60.614	1.0	go	0.6	Go_O	1.0
63.147	0.35	stopsuccess	0.0	Go_O	1.0
65.681	1.0	go	0.55	Go_X	1.0
68.214	1.0	go	0.761	Go_O	1.0
70.747	0.4	stopsuccess	0.0	Go_X	1.0
73.28	0.45	stopfail	0.458	Go_O	0.0
75.814	1.0	go	0.731	Go_X	1.0
78.347	1.0	go	0.713	Go_O	1.0
80.88	0.4	stopsuccess	0.0	Go_X	1.0
83.413	1.0	go	0.589	Go_X	1.0
85.947	1.0	go	0.643	Go_O	1.0
88.48	0.45	stopsuccess	0.0	Go_O	1.0
91.013	1.0	go	0.652	Go_X	1.0
93.546	1.0	go	0.799	Go_O	1.0
96.08	0.5	stopsuccess	0.0	Go_X	1.0
98.613	1.0	go	0.514	Go_O	1.0
101.146	1.0	go	0.753	Go_X	1.0
103.679	0.55	stopfail	0.529	Go_O	0.0
106.213	1.0	go	0.664	Go_O	1.0
108.746	1.0	go	0.689	Go_X	1.0
111.279	1.0	go	0.657	Go_X	1.0
113.812	1.0	go	0.618	Go_O	1.0
116.346	1.0	go	0.961	Go_O	1.0
118.879	0.5	stopsuccess	0.0	Go_X	1.0
121.412	1.0	go	0.599	Go_X	1.0
123.946	1.0	go	0.769	Go_O	1.0
126.495	1.0	go	0.834	Go_X	1.0
129.029	1.0	go	0.86	Go_O	1.0
131.562	1.0	go	0.628	Go_X	1.0
134.095	0.55	stopfail	0.595	Go_O	0.0
136.628	1.0	go	0.584	Go_X	1.0
139.162	1.0	go	0.815	Go_O	1.0
141.695	1.0	go	0.711	Go_X	1.0
144.228	1.0	go	0.913	Go_O	1.0
146.761	1.0	go	0.0	Go_X	0.0
149.295	1.0	go	0.536	Go_O	1.0
151.828	0.5	stopfail	0.631	Go_X	0.0
154.361	1.0	go	0.65	Go_O	1.0
156.894	1.0	go	0.849	Go_X	1.0
159.428	0.45	stopsuccess	0.0	Go_O	1.0
161.961	1.0	go	0.741	Go_X	1.0
164.494	0.5	stopsuccess	0.0	Go_X	1.0
167.027	0.55	stopfail	0.619	Go_O	0.0
169.561	1.0	go	0.783	Go_O	1.0
172.094	1.0	go	0.792	Go_X	1.0
174.627	1.0	go	0.624	Go_O	1.0
177.16	1.0	go	0.686	Go_X	1.0
179.694	0.5	stopsuccess	0.0	Go_X	1.0
182.227	1.0	go	0.512	Go_O	1.0
184.76	0.55	stopfail	0.618	Go_O	0.0
187.293	1.0	go	0.694	Go_O	1.0
189.827	1.0	go	0.611	Go_X	1.0
192.36	1.0	go	0.631	Go_X	1.0
194.893	1.0	go	0.676	Go_O	1.0
197.427	1.0	go	0.678	Go_X	1.0
199.976	1.0	go	0.647	Go_O	1.0
202.51	1.0	go	0.876	Go_O	1.0
205.043	1.0	go	0.8	Go_X	1.0
207.576	1.0	go	0.724	Go_O	1.0
210.109	0.5	stopsuccess	0.0	Go_X	1.0
212.643	1.0	go	0.622	Go_X	1.0
215.176	1.0	go	0.643	Go_X	1.0
217.709	1.0	go	0.616	Go_O	1.0
220.242	0.55	stopfail	0.689	Go_O	0.0
222.776	1.0	go	0.763	Go_O	1.0
225.309	1.0	go	0.777	Go_X	1.0
227.842	1.0	go	0.704	Go_X	1.0
230.375	1.0	go	0.69	Go_O	1.0
232.909	1.0	go	0.839	Go_O	1.0
235.442	1.0	go	0.769	Go_X	1.0
237.975	0.5	stopsuccess	0.0	Go_X	1.0
240.508	1.0	go	0.963	Go_X	1.0
243.042	1.0	go	0.592	Go_O	1.0
245.575	0.55	stopfail	0.583	Go_O	0.0
248.108	1.0	go	0.602	Go_O	1.0
250.641	1.0	go	0.496	Go_X	1.0
253.175	0.5	stopfail	0.693	Go_X	0.0
255.708	1.0	go	0.365	Go_O	1.0
258.241	0.45	stopsuccess	0.0	Go_O	1.0
260.774	1.0	go	0.621	Go_X	1.0
263.308	1.0	go	0.693	Go_X	1.0
265.841	1.0	go	0.514	Go_O	1.0
268.374	1.0	go	0.685	Go_X	1.0
270.908	1.0	go	0.631	Go_O	1.0
273.457	0.5	stopsuccess	0.0	Go_X	1.0
275.991	0.55	stopfail	0.471	Go_O	0.0
278.524	1.0	go	0.918	Go_O	1.0
281.057	1.0	go	0.315	Go_X	1.0
283.59	0.5	stopsuccess	0.0	Go_X	1.0
286.124	1.0	go	0.393	Go_O	1.0
288.657	1.0	go	0.673	Go_X	1.0
291.19	1.0	go	0.795	Go_X	1.0
293.723	1.0	go	0.636	Go_O	1.0
296.257	1.0	go	0.536	Go_X	1.0
298.79	1.0	go	0.0	Go_O	0.0
301.323	0.55	stopfail	0.576	Go_O	0.0
303.856	1.0	go	0.831	Go_O	1.0
306.39	1.0	go	0.533	Go_X	1.0
308.923	1.0	go	0.0	Go_O	0.0
311.456	1.0	go	0.0	Go_X	0.0
313.989	1.0	go	0.545	Go_X	1.0
316.523	0.5	stopsuccess	0.0	Go_X	1.0
319.056	1.0	go	0.481	Go_O	1.0
321.589	1.0	go	0.789	Go_O	1.0
324.122	1.0	go	0.787	Go_X	1.0
326.656	1.0	go	0.837	Go_O	1.0
329.189	0.55	stopfail	0.587	Go_O	0.0
331.722	1.0	go	0.806	Go_X	1.0
334.255	1.0	go	0.0	Go_X	0.0
336.789	0.5	stopfail	0.365	Go_X	0.0
339.322	1.0	go	0.594	Go_O	1.0
341.855	0.45	stopsuccess	0.0	Go_O	1.0
344.388	1.0	go	0.732	Go_O	1.0
346.922	1.0	go	0.644	Go_X	1.0
349.455	1.0	go	0.0	Go_O	0.0
351.988	1.0	go	0.685	Go_X	1.0
354.522	1.0	go	0.677	Go_O	1.0
357.071	1.0	go	0.836	Go_X	1.0
359.605	1.0	go	0.642	Go_X	1.0
362.138	0.5	stopsuccess	0.0	Go_X	1.0
364.671	1.0	go	0.618	Go_O	1.0
367.204	1.0	go	0.585	Go_X	1.0
369.738	1.0	go	0.611	Go_O	1.0
372.271	0.55	stopfail	0.631	Go_O	0.0
374.804	1.0	go	0.6	Go_O	1.0
377.337	1.0	go	0.623	Go_X	1.0
379.871	1.0	go	0.631	Go_O	1.0
382.404	1.0	go	0.809	Go_X	1.0
384.937	0.5	stopfail	0.598	Go_X	0.0
387.47	1.0	go	0.798	Go_X	1.0
390.004	1.0	go	0.574	Go_O	1.0
392.537	0.45	stopfail	0.56	Go_O	0.0
395.07	1.0	go	0.528	Go_X	1.0
397.603	1.0	go	0.704	Go_O	1.0
400.137	0.4	stopsuccess	0.0	Go_X	1.0
402.67	1.0	go	0.574	Go_O	1.0
405.203	1.0	go	0.75	Go_X	1.0
407.736	0.45	stopfail	0.514	Go_O	0.0
410.27	1.0	go	0.652	Go_O	1.0
412.803	1.0	go	0.666	Go_X	1.0
415.336	1.0	go	0.69	Go_O	1.0
417.869	1.0	go	0.775	Go_X	1.0
420.403	1.0	go	0.0	Go_X	0.0
422.936	1.0	go	0.658	Go_O	1.0
425.469	0.4	stopfail	0.528	Go_X	0.0
428.003	1.0	go	0.844	Go_X	1.0
430.552	0.35	stopsuccess	0.0	Go_O	1.0
433.086	1.0	go	0.535	Go_O	1.0
435.619	1.0	go	0.65	Go_X	1.0
438.152	1.0	go	0.703	Go_O	1.0
440.685	1.0	go	0.589	Go_O	1.0
443.219	1.0	go	0.577	Go_X	1.0
445.752	0.4	stopsuccess	0.0	Go_X	1.0
448.285	1.0	go	0.56	Go_X	1.0
450.818	1.0	go	0.705	Go_O	1.0
453.352	1.0	go	0.643	Go_O	1.0
455.885	0.45	stopsuccess	0.0	Go_O	1.0
458.418	0.5	stopsuccess	0.0	Go_X	1.0
460.951	0.55	stopsuccess	0.0	Go_O	1.0
463.485	1.0	go	0.0	Go_X	0.0
466.018	0.6	stopfail	0.602	Go_X	0.0
468.551	1.0	go	0.645	Go_X	1.0
471.084	1.0	go	0.482	Go_O	1.0
473.618	1.0	go	0.696	Go_X	1.0
476.151	1.0	go	0.707	Go_O	1.0
478.684	1.0	go	0.72	Go_O	1.0
481.217	1.0	go	0.611	Go_X	1.0
483.751	1.0	go	0.695	Go_O	1.0
486.284	1.0	go	0.687	Go_X	1.0
488.817	0.55	stopfail	0.683	Go_O	0.0
491.35	1.0	go	0.778	Go_O	1.0
493.884	1.0	go	0.0	Go_X	0.0
496.417	0.5	stopfail	0.648	Go_X	0.0
498.95	1.0	go	0.75	Go_X	1.0
501.484	1.0	go	0.593	Go_O	1.0
504.033	1.0	go	0.549	Go_O	1.0
506.567	1.0	go	0.769	Go_X	1.0
509.1	1.0	go	0.822	Go_X	1.0
511.633	0.45	stopfail	0.6	Go_O	0.0
514.166	1.0	go	0.651	Go_O	1.0
516.7	1.0	go	0.597	Go_O	1.0
519.233	1.0	go	0.61	Go_X	1.0
521.766	0.4	stopsuccess	0.0	Go_X	1.0
524.299	1.0	go	0.518	Go_X	1.0
526.833	0.45	stopfail	0.641	Go_O	0.0
529.366	1.0	go	0.645	Go_O	1.0
531.899	1.0	go	0.725	Go_X	1.0
534.432	1.0	go	0.509	Go_O	1.0
536.966	1.0	go	0.685	Go_X	1.0
539.499	1.0	go	0.568	Go_O	1.0
542.032	1.0	go	0.578	Go_X	1.0
544.565	1.0	go	0.57	Go_O	1.0
547.099	0.4	stopsuccess	0.0	Go_X	1.0
549.632	1.0	go	0.441	Go_X	1.0
552.165	1.0	go	0.0	Go_O	0.0
554.698	1.0	go	0.432	Go_X	1.0
557.232	1.0	go	0.576	Go_O	1.0
559.765	0.45	stopsuccess	0.0	Go_O	1.0
562.298	1.0	go	0.701	Go_X	0.0
564.831	0.5	stopfail	0.539	Go_X	0.0
567.365	1.0	go	0.678	Go_O	1.0
569.898	1.0	go	0.696	Go_O	1.0
572.431	0.45	stopfail	0.556	Go_O	0.0
574.964	1.0	go	0.631	Go_X	1.0
577.498	1.0	go	0.605	Go_O	1.0
580.031	1.0	go	0.465	Go_X	1.0
582.564	1.0	go	0.759	Go_O	1.0
585.097	1.0	go	0.589	Go_X	1.0
587.631	1.0	go	0.656	Go_O	1.0
590.164	1.0	go	0.938	Go_X	1.0
592.697	1.0	go	0.759	Go_X	1.0
595.231	1.0	go	0.86	Go_O	1.0
597.78	1.0	go	0.674	Go_X	1.0
600.314	0.4	stopsuccess	0.0	Go_X	1.0
602.847	1.0	go	0.603	Go_O	1.0
605.38	1.0	go	0.571	Go_X	1.0
607.913	0.45	stopsuccess	0.0	Go_O	1.0
610.447	1.0	go	0.817	Go_O	1.0
612.98	0.5	stopsuccess	0.0	Go_X	1.0
615.513	1.0	go	0.772	Go_O	1.0
618.046	1.0	go	0.0	Go_X	0.0
620.58	0.55	stopsuccess	0.0	Go_O	1.0
623.113	1.0	go	0.556	Go_O	1.0
625.646	0.6	stopfail	0.689	Go_X	0.0
628.179	1.0	go	0.645	Go_X	1.0
630.713	1.0	go	0.8	Go_O	1.0
633.246	1.0	go	0.692	Go_X	1.0
635.779	0.55	stopsuccess	0.0	Go_O	1.0
638.312	1.0	go	0.587	Go_O	1.0
640.846	1.0	go	0.803	Go_X	1.0
643.379	1.0	go	0.809	Go_X	0.0
645.912	1.0	go	0.63	Go_O	1.0
648.445	0.6	stopfail	0.82	Go_X	0.0
650.979	1.0	go	0.753	Go_X	1.0
653.512	1.0	go	0.869	Go_O	1.0
656.045	0.55	stopsuccess	0.0	Go_O	1.0
658.579	1.0	go	0.632	Go_X	0.0
661.128	1.0	go	0.0	Go_O	0.0
663.662	1.0	go	0.464	Go_O	1.0
666.195	1.0	go	0.571	Go_X	1.0
668.728	0.6	stopfail	0.557	Go_X	0.0
671.261	1.0	go	0.664	Go_X	1.0
673.795	0.55	stopfail	0.466	Go_O	0.0
676.328	1.0	go	0.483	Go_O	1.0
678.861	1.0	go	0.596	Go_O	1.0
681.394	0.5	stopsuccess	0.0	Go_X	1.0
683.928	1.0	go	0.575	Go_X	1.0
686.461	1.0	go	0.779	Go_O	1.0
688.994	1.0	go	0.633	Go_X	0.0
691.527	1.0	go	0.0	Go_X	0.0
694.061	0.55	stopfail	0.563	Go_O	0.0
696.594	1.0	go	0.543	Go_O	1.0
699.127	0.5	stopfail	0.717	Go_X	0.0
701.66	1.0	go	0.584	Go_X	1.0
704.194	1.0	go	0.489	Go_O	1.0
706.727	1.0	go	0.317	Go_X	1.0
709.26	1.0	go	0.539	Go_O	1.0
711.793	1.0	go	0.556	Go_O	1.0
714.327	1.0	go	0.635	Go_X	1.0
716.86	0.45	stopfail	0.52	Go_O	0.0
719.393	1.0	go	0.412	Go_X	1.0
721.926	1.0	go	0.69	Go_O	1.0
724.46	0.4	stopsuccess	0.0	Go_X	1.0
726.993	1.0	go	0.0	Go_O	0.0
729.526	1.0	go	0.0	Go_X	0.0
732.059	0.45	stopfail	0.501	Go_O	0.0
734.593	1.0	go	0.0	Go_X	0.0
737.126	1.0	go	0.637	Go_O	1.0
739.659	1.0	go	0.0	Go_O	0.0
742.192	1.0	go	0.0	Go_X	0.0
744.726	0.4	stopsuccess	0.0	Go_X	1.0
747.259	1.0	go	0.0	Go_X	0.0
749.792	0.45	stopsuccess	0.0	Go_O	1.0
752.326	1.0	go	0.506	Go_O	1.0
754.875	1.0	go	0.0	Go_O	0.0
757.409	1.0	go	0.492	Go_X	1.0
759.942	1.0	go	0.955	Go_O	1.0
762.475	1.0	go	0.676	Go_X	1.0
765.008	0.5	stopfail	0.695	Go_X	0.0
767.542	1.0	go	0.644	Go_O	1.0
770.075	1.0	go	0.351	Go_X	1.0
772.608	0.45	stopsuccess	0.0	Go_O	1.0
775.141	0.5	stopfail	0.591	Go_X	0.0
777.675	1.0	go	0.0	Go_X	0.0
780.208	1.0	go	0.0	Go_O	0.0
782.741	1.0	go	0.609	Go_X	1.0
785.274	1.0	go	0.622	Go_O	1.0
787.808	0.45	stopfail	0.54	Go_O	0.0
790.341	1.0	go	0.0	Go_X	0.0
