onset	duration	trial_type	response_time	stim_file	accuracy
212.905	1.0	go	0.803	Go_O	1.0
215.43	1.0	go	0.374	Go_X	1.0
217.954	1.0	go	0.899	Go_O	0.0
220.478	1.0	go	0.643	Go_X	0.0
223.002	1.0	go	0.786	Go_X	0.0
225.527	1.0	go	0.768	Go_O	0.0
228.051	0.25	stop	0.0	Go_O	1.0
230.592	1.0	go	0.751	Go_X	0.0
233.116	0.3	stop	0.0	Go_X	1.0
235.64	1.0	go	0.496	Go_O	0.0
238.164	1.0	go	0.897	Go_X	0.0
240.689	1.0	go	0.814	Go_O	0.0
243.213	0.35	stop	0.0	Go_O	1.0
245.754	1.0	go	0.586	Go_O	0.0
248.278	1.0	go	0.693	Go_X	0.0
250.819	0.4	stop	0.0	Go_X	1.0
253.343	0.45	stop	0.521	Go_O	0.0
255.884	1.0	go	0.678	Go_X	0.0
258.408	1.0	go	0.762	Go_O	0.0
260.933	0.4	stop	0.0	Go_X	1.0
263.473	1.0	go	0.689	Go_O	0.0
265.998	1.0	go	0.911	Go_X	0.0
268.522	0.45	stop	0.0	Go_O	1.0
271.063	1.0	go	0.636	Go_O	0.0
273.604	1.0	go	0.799	Go_X	0.0
276.145	0.5	stop	0.0	Go_X	1.0
278.686	1.0	go	0.0	Go_X	0.0
281.227	1.0	go	0.833	Go_O	0.0
283.751	0.55	stop	0.0	Go_O	1.0
286.292	1.0	go	0.85	Go_O	0.0
288.816	1.0	go	0.0	Go_X	0.0
291.357	1.0	go	0.606	Go_X	0.0
293.881	1.0	go	0.827	Go_O	0.0
296.405	1.0	go	0.776	Go_O	0.0
298.93	0.6	stop	0.0	Go_X	1.0
301.471	1.0	go	0.868	Go_X	1.0
303.995	1.0	go	0.851	Go_X	0.0
306.519	1.0	go	0.674	Go_O	0.0
309.043	1.0	go	0.923	Go_O	0.0
311.567	1.0	go	0.0	Go_X	0.0
314.092	0.65	stop	0.795	Go_O	0.0
316.616	1.0	go	0.633	Go_O	0.0
319.14	1.0	go	0.754	Go_X	0.0
321.664	1.0	go	0.0	Go_X	0.0
324.189	1.0	go	0.817	Go_O	0.0
326.73	1.0	go	0.829	Go_O	0.0
329.254	1.0	go	0.827	Go_X	0.0
331.795	0.6	stop	0.611	Go_X	0.0
334.336	1.0	go	0.654	Go_X	0.0
336.877	1.0	go	0.214	Go_O	0.0
339.401	0.55	stop	0.0	Go_O	1.0
341.925	1.0	go	0.916	Go_O	0.0
344.449	0.6	stop	0.0	Go_X	1.0
346.974	0.65	stop	0.0	Go_O	1.0
349.498	1.0	go	0.743	Go_X	0.0
352.022	1.0	go	0.0	Go_X	0.0
354.546	1.0	go	0.849	Go_O	0.0
357.07	1.0	go	0.947	Go_O	1.0
359.595	0.7	stop	0.0	Go_X	1.0
362.136	1.0	go	0.545	Go_X	0.0
364.676	0.75	stop	0.626	Go_O	0.0
367.217	1.0	go	0.806	Go_X	0.0
369.742	1.0	go	0.988	Go_O	0.0
372.266	1.0	go	0.865	Go_O	0.0
374.79	1.0	go	0.944	Go_X	0.0
377.314	1.0	go	0.0	Go_O	0.0
379.839	1.0	go	0.0	Go_X	0.0
382.38	1.0	go	0.733	Go_X	0.0
384.904	1.0	go	0.846	Go_O	0.0
387.428	1.0	go	0.741	Go_X	0.0
389.952	0.7	stop	0.807	Go_X	0.0
392.493	1.0	go	0.895	Go_O	0.0
395.017	1.0	go	0.935	Go_X	0.0
397.558	1.0	go	0.0	Go_O	0.0
400.082	0.65	stop	0.0	Go_O	1.0
402.623	1.0	go	0.954	Go_X	0.0
405.148	1.0	go	0.967	Go_O	0.0
407.689	1.0	go	0.0	Go_O	0.0
410.213	1.0	go	0.801	Go_X	0.0
412.754	1.0	go	0.968	Go_O	0.0
415.278	1.0	go	0.0	Go_X	0.0
417.802	0.7	stop	0.0	Go_X	1.0
420.326	1.0	go	0.568	Go_X	0.0
422.851	1.0	go	0.822	Go_O	0.0
425.375	0.75	stop	0.0	Go_O	1.0
427.916	1.0	go	0.0	Go_X	0.0
430.44	1.0	go	0.81	Go_O	0.0
432.964	0.8	stop	0.0	Go_X	1.0
435.505	1.0	go	0.883	Go_O	0.0
438.029	0.85	stop	0.886	Go_O	0.0
440.554	1.0	go	0.785	Go_X	0.0
443.078	1.0	go	0.997	Go_O	0.0
445.602	1.0	go	0.0	Go_X	0.0
448.126	1.0	go	0.964	Go_O	0.0
450.651	1.0	go	0.693	Go_X	0.0
453.179	0.8	stop	0.907	Go_X	0.0
455.732	0.75	stop	0.0	Go_O	1.0
458.257	1.0	go	0.843	Go_X	0.0
460.781	1.0	go	0.921	Go_O	0.0
463.305	0.8	stop	0.931	Go_X	0.0
465.846	1.0	go	0.374	Go_O	0.0
468.387	1.0	go	0.305	Go_X	0.0
470.911	1.0	go	0.324	Go_O	0.0
473.435	1.0	go	0.946	Go_X	0.0
475.96	1.0	go	0.968	Go_O	0.0
478.484	1.0	go	0.0	Go_X	0.0
481.008	0.75	stop	0.0	Go_O	1.0
483.532	1.0	go	0.638	Go_X	0.0
486.057	1.0	go	0.86	Go_O	0.0
488.598	1.0	go	0.78	Go_X	0.0
491.122	1.0	go	0.0	Go_O	0.0
493.663	1.0	go	0.0	Go_O	0.0
496.187	0.8	stop	0.907	Go_X	0.0
498.728	1.0	go	0.0	Go_X	0.0
501.252	1.0	go	0.0	Go_O	0.0
503.776	1.0	go	0.0	Go_X	0.0
506.301	1.0	go	0.853	Go_O	0.0
508.842	0.75	stop	0.427	Go_O	0.0
511.366	1.0	go	0.748	Go_X	0.0
513.893	1.0	go	0.747	Go_O	0.0
516.414	0.7	stop	0.0	Go_X	1.0
518.938	1.0	go	0.846	Go_X	0.0
521.463	0.75	stop	0.467	Go_O	0.0
523.987	1.0	go	0.813	Go_O	0.0
526.511	1.0	go	0.824	Go_X	0.0
529.035	1.0	go	0.0	Go_X	0.0
531.559	1.0	go	0.0	Go_O	0.0
534.084	1.0	go	0.488	Go_O	0.0
536.608	1.0	go	0.0	Go_X	0.0
539.132	1.0	go	0.0	Go_X	0.0
541.656	0.7	stop	0.0	Go_X	1.0
544.197	1.0	go	0.641	Go_O	0.0
546.722	1.0	go	0.885	Go_O	0.0
549.246	1.0	go	0.0	Go_X	0.0
551.787	0.75	stop	0.0	Go_O	1.0
554.328	1.0	go	0.628	Go_X	0.0
556.852	1.0	go	0.0	Go_O	0.0
559.376	1.0	go	0.0	Go_X	0.0
561.9	1.0	go	0.826	Go_O	0.0
564.425	0.8	stop	0.901	Go_X	0.0
566.966	1.0	go	0.0	Go_O	0.0
569.49	1.0	go	0.0	Go_X	0.0
572.014	0.75	stop	0.0	Go_O	1.0
574.555	1.0	go	0.821	Go_X	0.0
577.079	1.0	go	0.767	Go_O	0.0
579.603	0.8	stop	0.0	Go_X	1.0
582.128	1.0	go	0.975	Go_X	0.0
584.652	1.0	go	0.712	Go_O	0.0
587.176	0.85	stop	0.964	Go_O	0.0
589.717	1.0	go	0.0	Go_O	0.0
592.258	1.0	go	0.0	Go_X	0.0
594.782	1.0	go	0.0	Go_X	0.0
597.306	1.0	go	0.0	Go_O	0.0
599.831	1.0	go	0.0	Go_O	0.0
602.372	1.0	go	0.0	Go_X	0.0
604.896	0.8	stop	0.0	Go_X	1.0
607.437	1.0	go	0.965	Go_X	0.0
609.961	0.85	stop	0.0	Go_O	1.0
612.502	1.0	go	0.965	Go_O	0.0
615.026	1.0	go	0.0	Go_O	0.0
617.567	1.0	go	0.0	Go_X	0.0
620.091	1.0	go	0.0	Go_O	0.0
622.615	1.0	go	0.0	Go_X	0.0
625.14	0.9	stop	0.0	Go_X	1.0
627.681	1.0	go	0.72	Go_X	0.0
630.222	1.0	go	0.241	Go_O	0.0
632.746	1.0	go	0.0	Go_O	0.0
635.27	0.95	stop	0.0	Go_O	1.0
637.794	1.0	stop	0.0	Go_X	1.0
640.335	1.05	stop	0.0	Go_O	1.0
642.943	1.0	go	0.0	Go_X	0.0
645.467	1.1	stop	0.0	Go_X	1.0
648.125	1.0	go	0.0	Go_X	0.0
650.649	1.0	go	0.0	Go_O	0.0
653.174	1.0	go	0.0	Go_X	0.0
655.698	1.0	go	0.0	Go_O	0.0
658.222	1.0	go	0.0	Go_X	0.0
660.746	1.0	go	0.0	Go_O	0.0
663.271	1.0	go	0.0	Go_X	0.0
665.795	1.0	go	0.0	Go_O	0.0
668.319	1.15	stop	0.0	Go_O	1.0
671.01	1.0	go	0.0	Go_O	0.0
673.535	1.0	go	0.0	Go_X	0.0
676.059	1.2	stop	0.0	Go_X	1.0
678.8	1.0	go	0.946	Go_O	0.0
681.325	1.0	go	0.829	Go_X	0.0
683.849	1.0	go	0.0	Go_O	0.0
686.373	1.0	go	0.0	Go_X	0.0
688.897	1.0	go	0.0	Go_X	0.0
691.421	1.25	stop	0.0	Go_O	1.0
694.213	1.0	go	0.0	Go_O	0.0
696.737	1.0	go	0.0	Go_X	0.0
699.262	1.0	go	0.0	Go_O	0.0
701.803	1.3	stop	0.0	Go_X	1.0
704.644	1.0	go	0.0	Go_X	0.0
707.169	1.35	stop	0.0	Go_O	1.0
710.077	1.0	go	0.0	Go_O	0.0
712.602	1.0	go	0.0	Go_X	0.0
715.126	1.0	go	0.0	Go_O	0.0
717.667	1.0	go	0.0	Go_O	0.0
720.191	1.0	go	0.0	Go_X	0.0
722.715	1.0	go	0.0	Go_O	0.0
725.239	1.0	go	0.0	Go_X	0.0
727.764	1.4	stop	0.0	Go_X	1.0
730.706	1.0	go	0.0	Go_X	0.0
733.23	1.0	go	0.0	Go_O	0.0
735.754	1.0	go	0.0	Go_X	0.0
738.278	1.0	go	0.0	Go_O	0.0
740.803	1.45	stop	0.0	Go_O	1.0
743.812	1.0	go	0.0	Go_O	0.0
746.336	1.5	stop	0.0	Go_X	1.0
749.378	1.0	go	0.0	Go_X	0.0
751.903	1.0	go	0.0	Go_O	0.0
754.427	1.55	stop	0.0	Go_O	1.0
757.519	1.0	go	0.0	Go_X	0.0
760.044	1.0	go	0.0	Go_X	0.0
762.585	1.0	go	0.0	Go_O	0.0
765.109	1.0	go	0.0	Go_X	0.0
767.633	1.0	go	0.054	Go_O	1.0
770.157	1.0	go	0.0	Go_O	0.0
772.681	1.0	go	0.0	Go_X	0.0
775.206	1.0	go	0.0	Go_X	0.0
777.73	1.0	go	0.0	Go_O	0.0
780.254	1.0	go	0.0	Go_O	0.0
782.778	1.6	stop	0.0	Go_X	1.0
785.921	1.0	go	0.0	Go_X	0.0
788.445	1.0	go	0.0	Go_O	0.0
790.97	1.65	stop	0.0	Go_O	1.0
794.162	1.0	go	0.0	Go_X	0.0
796.687	1.7	stop	0.0	Go_X	1.0
799.946	1.0	go	0.0	Go_O	0.0
802.471	1.0	go	0.0	Go_X	0.0
804.995	1.75	stop	0.0	Go_O	1.0
808.288	1.0	go	0.0	Go_O	0.0
810.812	1.8	stop	0.0	Go_X	1.0
814.156	1.0	go	0.0	Go_X	0.0
816.68	1.0	go	0.46	Go_O	0.0
819.204	1.0	go	0.0	Go_X	0.0
821.728	1.85	stop	0.0	Go_O	1.0
825.139	1.0	go	0.736	Go_O	0.0
827.663	1.0	go	0.0	Go_X	0.0
830.187	1.0	go	0.0	Go_O	0.0
832.711	1.0	go	0.0	Go_X	0.0
835.252	1.9	stop	0.0	Go_X	1.0
838.696	1.0	go	0.632	Go_O	0.0
841.22	1.0	go	0.604	Go_X	0.0
843.744	1.95	stop	0.0	Go_O	1.0
847.238	1.0	go	0.0	Go_O	0.0
849.762	1.0	go	0.0	Go_X	0.0
852.303	1.0	go	0.0	Go_X	0.0
854.827	1.0	go	0.0	Go_O	0.0
857.352	2.0	stop	0.0	Go_X	1.0
860.896	1.0	go	0.0	Go_O	0.0
863.42	2.05	stop	0.0	Go_O	1.0
867.031	1.0	go	0.0	Go_X	0.0
869.555	1.0	go	0.0	Go_X	0.0
872.096	2.1	stop	0.0	Go_X	1.0
875.74	1.0	go	0.0	Go_O	0.0
878.264	1.0	go	0.0	Go_X	0.0
880.788	1.0	go	0.0	Go_O	0.0
883.313	1.0	go	0.0	Go_X	0.0
885.837	2.15	stop	0.0	Go_O	1.0
889.531	1.0	go	0.0	Go_O	0.0
892.056	2.2	stop	0.0	Go_X	1.0
895.817	1.0	go	0.745	Go_X	0.0
898.341	1.0	go	0.0	Go_O	0.0
900.865	1.0	go	0.0	Go_O	0.0
903.389	1.0	go	0.0	Go_X	0.0
905.93	1.0	go	0.0	Go_O	0.0
908.455	1.0	go	0.0	Go_X	0.0
910.979	2.25	stop	0.0	Go_O	1.0
914.774	1.0	go	0.0	Go_X	0.0
917.298	1.0	go	0.0	Go_O	0.0
919.822	2.3	stop	0.0	Go_X	1.0
923.684	1.0	go	0.0	Go_X	0.0
926.224	1.0	go	0.0	Go_O	0.0
928.749	2.35	stop	0.0	Go_O	1.0
932.66	1.0	go	0.0	Go_X	0.0
935.185	1.0	go	0.0	Go_O	0.0
937.709	1.0	go	0.0	Go_O	0.0
940.233	1.0	go	0.0	Go_X	0.0
942.757	2.4	stop	0.0	Go_X	1.0
946.702	1.0	go	0.0	Go_O	0.0
949.227	2.45	stop	0.0	Go_O	1.0
953.239	1.0	go	0.0	Go_X	0.0
955.763	1.0	go	0.0	Go_O	0.0
958.287	1.0	go	0.0	Go_X	0.0
960.811	1.0	go	0.0	Go_X	0.0
963.336	1.0	go	0.0	Go_O	0.0
965.86	2.5	stop	0.0	Go_X	1.0
969.905	1.0	go	0.0	Go_O	0.0
972.43	1.0	go	0.0	Go_X	0.0
974.954	2.55	stop	0.0	Go_O	1.0
979.066	2.6	stop	0.0	Go_X	1.0
983.212	1.0	go	0.0	Go_X	0.0
985.736	1.0	go	0.189	Go_O	1.0
988.26	1.0	go	0.0	Go_X	0.0
990.784	1.0	go	0.0	Go_O	0.0
993.309	2.65	stop	0.0	Go_O	1.0
997.505	1.0	go	0.0	Go_O	0.0
