onset	duration	trial_type	response_time	stim_file	accuracy
74.204	1.0	go	0.775	Go_X	1.0
76.728	1.0	go	0.561	Go_O	1.0
79.252	1.0	go	0.691	Go_X	1.0
81.776	1.0	go	0.594	Go_O	1.0
84.301	1.0	go	0.676	Go_O	1.0
86.825	1.0	go	0.746	Go_X	1.0
89.349	0.25	stop	0.0	Go_O	1.0
91.873	1.0	go	0.467	Go_O	1.0
94.397	0.3	stop	0.0	Go_X	1.0
96.922	1.0	go	0.571	Go_X	0.0
99.446	1.0	go	0.461	Go_X	1.0
101.97	1.0	go	0.531	Go_O	1.0
104.494	0.35	stop	0.0	Go_O	1.0
107.018	1.0	go	0.587	Go_X	1.0
109.543	1.0	go	0.587	Go_O	1.0
112.067	0.4	stop	0.0	Go_X	1.0
114.591	0.45	stop	0.437	Go_O	0.0
117.115	1.0	go	0.496	Go_O	1.0
119.639	1.0	go	0.794	Go_X	1.0
122.164	0.4	stop	0.0	Go_X	1.0
124.688	1.0	go	0.673	Go_X	1.0
127.212	1.0	go	0.834	Go_O	1.0
129.736	0.45	stop	0.0	Go_O	1.0
132.26	1.0	go	0.883	Go_X	1.0
134.785	1.0	go	0.0	Go_O	0.0
137.309	0.5	stop	0.0	Go_X	1.0
139.833	1.0	go	0.951	Go_X	1.0
142.357	1.0	go	0.888	Go_O	1.0
144.881	0.55	stop	0.0	Go_O	1.0
147.406	1.0	go	0.856	Go_O	1.0
149.93	1.0	go	0.785	Go_X	1.0
152.454	1.0	go	0.82	Go_X	1.0
154.978	1.0	go	0.885	Go_O	1.0
157.502	1.0	go	0.707	Go_X	1.0
160.027	0.6	stop	0.0	Go_X	1.0
162.551	1.0	go	0.682	Go_O	1.0
165.075	1.0	go	0.875	Go_O	1.0
167.599	1.0	go	0.0	Go_X	0.0
170.123	1.0	go	0.688	Go_O	1.0
172.648	1.0	go	0.525	Go_X	1.0
175.172	0.65	stop	0.0	Go_O	1.0
177.696	1.0	go	0.713	Go_X	1.0
180.22	1.0	go	0.906	Go_O	1.0
182.744	1.0	go	0.554	Go_X	1.0
185.269	1.0	go	0.864	Go_O	1.0
187.793	1.0	go	0.655	Go_X	1.0
190.317	1.0	go	0.936	Go_O	1.0
192.841	0.7	stop	0.565	Go_X	0.0
195.365	1.0	go	0.835	Go_O	1.0
197.89	1.0	go	0.741	Go_X	1.0
200.414	0.65	stop	0.0	Go_O	1.0
202.938	1.0	go	0.738	Go_X	1.0
205.462	0.7	stop	0.689	Go_X	0.0
207.986	0.65	stop	0.0	Go_O	1.0
210.511	1.0	go	0.84	Go_O	1.0
213.035	1.0	go	0.653	Go_O	1.0
215.559	1.0	go	0.552	Go_X	1.0
218.083	1.0	go	0.848	Go_O	1.0
220.608	0.7	stop	0.649	Go_X	0.0
223.132	1.0	go	0.0	Go_X	0.0
225.656	0.65	stop	0.65	Go_O	0.0
228.18	1.0	go	0.803	Go_X	1.0
230.704	1.0	go	0.611	Go_O	1.0
233.229	1.0	go	0.0	Go_O	0.0
235.753	1.0	go	0.832	Go_X	1.0
238.277	1.0	go	0.723	Go_O	1.0
240.801	1.0	go	0.68	Go_X	1.0
243.325	1.0	go	0.943	Go_O	1.0
245.85	1.0	go	0.776	Go_X	1.0
248.374	1.0	go	0.664	Go_X	1.0
250.898	0.6	stop	0.0	Go_X	1.0
253.422	1.0	go	0.976	Go_O	1.0
255.946	1.0	go	0.775	Go_X	1.0
258.471	1.0	go	0.561	Go_O	1.0
260.995	0.65	stop	0.745	Go_O	0.0
263.519	1.0	go	0.929	Go_O	1.0
266.043	1.0	go	0.803	Go_X	1.0
268.567	1.0	go	0.585	Go_O	1.0
271.092	1.0	go	0.716	Go_X	1.0
273.616	1.0	go	0.896	Go_O	1.0
276.14	1.0	go	0.905	Go_X	1.0
278.664	0.6	stop	0.0	Go_X	1.0
281.188	1.0	go	0.0	Go_O	0.0
283.713	1.0	go	0.698	Go_X	1.0
286.237	0.65	stop	0.0	Go_O	1.0
288.761	1.0	go	0.0	Go_O	0.0
291.285	1.0	go	0.0	Go_X	0.0
293.809	0.7	stop	0.715	Go_X	0.0
296.334	1.0	go	0.0	Go_O	0.0
298.858	0.65	stop	0.067	Go_O	0.0
301.382	1.0	go	0.704	Go_X	1.0
303.906	1.0	go	0.601	Go_X	1.0
306.43	1.0	go	0.0	Go_O	0.0
308.955	1.0	go	0.707	Go_X	1.0
311.479	1.0	go	0.542	Go_O	1.0
314.003	0.6	stop	0.621	Go_X	0.0
316.527	0.55	stop	0.0	Go_O	1.0
319.051	1.0	go	0.763	Go_X	1.0
321.576	1.0	go	0.744	Go_O	1.0
324.1	0.6	stop	0.728	Go_X	0.0
326.624	1.0	go	0.927	Go_O	1.0
329.148	1.0	go	0.721	Go_X	1.0
331.672	1.0	go	0.85	Go_O	1.0
334.197	1.0	go	0.758	Go_X	1.0
336.721	1.0	go	0.0	Go_O	0.0
339.245	1.0	go	0.291	Go_X	1.0
341.769	0.55	stop	0.0	Go_O	1.0
344.293	1.0	go	0.0	Go_O	0.0
346.818	1.0	go	0.536	Go_X	1.0
349.342	1.0	go	0.409	Go_X	0.0
351.866	1.0	go	0.725	Go_O	1.0
354.39	1.0	go	0.587	Go_X	1.0
356.914	0.6	stop	0.0	Go_X	1.0
359.439	1.0	go	0.699	Go_O	1.0
361.963	1.0	go	0.0	Go_O	0.0
364.487	1.0	go	0.652	Go_X	1.0
367.011	1.0	go	0.0	Go_O	0.0
369.535	0.65	stop	0.0	Go_O	1.0
372.06	1.0	go	0.318	Go_X	1.0
374.584	1.0	go	0.551	Go_O	1.0
377.108	0.7	stop	0.0	Go_X	1.0
379.632	1.0	go	0.468	Go_X	1.0
382.156	0.75	stop	0.0	Go_O	1.0
384.681	1.0	go	0.0	Go_X	0.0
387.205	1.0	go	0.0	Go_O	0.0
389.729	1.0	go	0.511	Go_O	1.0
392.253	1.0	go	0.0	Go_X	0.0
394.778	1.0	go	0.591	Go_O	1.0
397.302	1.0	go	0.657	Go_X	1.0
399.826	1.0	go	0.0	Go_O	0.0
402.35	0.8	stop	0.0	Go_X	1.0
404.874	1.0	go	0.587	Go_X	1.0
407.399	1.0	go	0.0	Go_O	0.0
409.923	1.0	go	0.0	Go_X	0.0
412.447	0.85	stop	0.344	Go_O	0.0
414.971	1.0	go	0.0	Go_X	0.0
417.495	1.0	go	0.0	Go_O	0.0
420.02	1.0	go	0.0	Go_X	0.0
422.544	1.0	go	0.37	Go_O	0.0
425.068	0.8	stop	0.929	Go_X	0.0
427.592	1.0	go	0.0	Go_X	0.0
430.116	1.0	go	0.0	Go_O	0.0
432.641	0.75	stop	0.759	Go_O	0.0
435.165	1.0	go	0.0	Go_O	0.0
437.689	1.0	go	0.411	Go_X	0.0
440.213	0.7	stop	0.614	Go_X	0.0
442.737	1.0	go	0.0	Go_O	0.0
445.262	1.0	go	0.0	Go_X	0.0
447.786	0.65	stop	0.406	Go_O	0.0
450.31	1.0	go	0.746	Go_X	1.0
452.834	1.0	go	0.85	Go_O	1.0
455.358	1.0	go	0.827	Go_O	1.0
457.883	1.0	go	0.0	Go_X	0.0
460.407	1.0	go	0.616	Go_X	1.0
462.931	1.0	go	0.663	Go_O	1.0
465.455	0.6	stop	0.633	Go_X	0.0
467.979	1.0	go	0.761	Go_O	1.0
470.504	0.55	stop	0.773	Go_O	0.0
473.028	1.0	go	0.65	Go_X	1.0
475.552	1.0	go	0.524	Go_O	0.0
478.076	1.0	go	0.618	Go_X	1.0
480.6	1.0	go	0.628	Go_X	1.0
483.125	1.0	go	0.474	Go_O	1.0
485.649	0.5	stop	0.39	Go_X	0.0
488.173	1.0	go	0.0	Go_O	0.0
490.697	1.0	go	0.508	Go_X	1.0
493.221	1.0	go	0.502	Go_X	1.0
495.746	0.45	stop	0.0	Go_O	1.0
498.27	0.5	stop	0.0	Go_X	1.0
500.794	0.55	stop	0.685	Go_O	0.0
503.318	1.0	go	0.0	Go_O	0.0
505.842	0.5	stop	0.512	Go_X	0.0
508.367	1.0	go	0.485	Go_X	0.0
510.891	1.0	go	0.487	Go_O	1.0
513.415	1.0	go	0.634	Go_X	1.0
515.939	1.0	go	0.823	Go_O	1.0
518.463	1.0	go	0.583	Go_X	1.0
520.988	1.0	go	0.513	Go_O	1.0
523.512	1.0	go	0.403	Go_X	1.0
526.036	1.0	go	0.0	Go_O	0.0
528.56	0.45	stop	0.0	Go_O	1.0
531.084	1.0	go	0.398	Go_O	1.0
533.609	1.0	go	0.368	Go_X	1.0
536.133	0.5	stop	0.0	Go_X	1.0
538.657	1.0	go	0.0	Go_X	0.0
541.181	1.0	go	0.44	Go_O	1.0
543.706	1.0	go	0.521	Go_X	1.0
546.23	1.0	go	0.0	Go_O	0.0
548.754	1.0	go	0.0	Go_O	0.0
551.278	0.55	stop	0.515	Go_O	0.0
553.802	1.0	go	0.79	Go_X	1.0
556.327	1.0	go	0.595	Go_O	1.0
558.851	1.0	go	0.53	Go_X	1.0
561.375	0.5	stop	0.0	Go_X	1.0
563.899	1.0	go	0.698	Go_O	1.0
566.423	0.55	stop	0.661	Go_O	0.0
568.948	1.0	go	0.0	Go_X	0.0
571.472	1.0	go	0.649	Go_O	1.0
573.996	1.0	go	0.0	Go_X	0.0
576.52	1.0	go	0.261	Go_O	0.0
579.044	1.0	go	0.538	Go_X	1.0
581.569	1.0	go	0.0	Go_O	0.0
584.093	1.0	go	0.426	Go_X	1.0
586.617	0.5	stop	0.162	Go_X	0.0
589.141	1.0	go	0.0	Go_O	0.0
591.665	1.0	go	0.532	Go_X	1.0
594.19	1.0	go	0.0	Go_O	0.0
596.714	1.0	go	0.0	Go_X	0.0
599.238	0.45	stop	0.5	Go_O	0.0
601.762	1.0	go	0.564	Go_X	1.0
604.286	0.4	stop	0.328	Go_X	0.0
606.811	1.0	go	0.0	Go_O	0.0
609.335	1.0	go	0.467	Go_O	1.0
611.859	0.35	stop	0.461	Go_O	0.0
614.383	1.0	go	0.586	Go_X	0.0
616.907	1.0	go	0.596	Go_O	1.0
619.432	1.0	go	0.0	Go_X	0.0
621.956	1.0	go	0.0	Go_O	0.0
624.48	1.0	go	0.438	Go_X	1.0
627.004	1.0	go	0.316	Go_X	1.0
629.528	1.0	go	0.0	Go_O	0.0
632.053	1.0	go	0.773	Go_X	1.0
634.577	1.0	go	0.0	Go_O	0.0
637.101	1.0	go	0.0	Go_X	0.0
639.625	0.3	stop	0.0	Go_X	1.0
642.149	1.0	go	0.795	Go_O	1.0
644.674	1.0	go	0.415	Go_O	1.0
647.198	0.35	stop	0.467	Go_O	0.0
649.722	1.0	go	0.604	Go_X	1.0
652.246	0.3	stop	0.0	Go_X	1.0
654.77	1.0	go	0.0	Go_O	0.0
657.295	1.0	go	0.0	Go_X	0.0
659.819	0.35	stop	0.32	Go_O	0.0
662.343	1.0	go	0.423	Go_O	1.0
664.867	0.3	stop	0.0	Go_X	1.0
667.391	1.0	go	0.809	Go_X	1.0
669.916	1.0	go	0.597	Go_X	1.0
672.44	1.0	go	0.0	Go_O	0.0
674.964	0.35	stop	0.295	Go_O	0.0
677.488	1.0	go	0.0	Go_X	0.0
680.012	1.0	go	0.685	Go_O	1.0
682.537	1.0	go	0.672	Go_O	1.0
685.061	1.0	go	0.0	Go_X	0.0
687.585	0.3	stop	0.0	Go_X	1.0
690.109	1.0	go	0.623	Go_X	1.0
692.633	1.0	go	0.949	Go_O	1.0
695.158	0.35	stop	0.615	Go_O	0.0
697.682	1.0	go	0.761	Go_O	1.0
700.206	1.0	go	0.0	Go_X	0.0
702.73	1.0	go	0.0	Go_X	0.0
705.254	1.0	go	0.0	Go_O	0.0
707.779	0.3	stop	0.55	Go_X	0.0
710.303	1.0	go	0.489	Go_O	1.0
712.827	0.25	stop	0.0	Go_O	1.0
715.351	1.0	go	0.0	Go_X	0.0
717.876	1.0	go	0.0	Go_O	0.0
720.4	0.3	stop	0.635	Go_X	0.0
722.924	1.0	go	0.51	Go_X	0.0
725.448	1.0	go	0.744	Go_O	1.0
727.972	1.0	go	0.768	Go_X	0.0
730.497	1.0	go	0.0	Go_X	0.0
733.021	0.25	stop	0.387	Go_O	0.0
735.545	1.0	go	0.0	Go_O	0.0
738.069	0.2	stop	0.0	Go_X	1.0
740.593	1.0	go	0.0	Go_O	0.0
743.118	1.0	go	0.0	Go_X	0.0
745.658	1.0	go	0.836	Go_O	1.0
748.183	1.0	go	0.285	Go_X	1.0
750.707	1.0	go	0.295	Go_O	0.0
753.231	1.0	go	0.47	Go_X	1.0
755.755	0.25	stop	0.504	Go_O	0.0
758.279	1.0	go	0.556	Go_O	1.0
760.804	1.0	go	0.598	Go_X	1.0
763.328	0.2	stop	0.0	Go_X	1.0
765.852	1.0	go	0.423	Go_O	1.0
768.376	1.0	go	0.845	Go_X	1.0
770.901	0.25	stop	0.0	Go_O	1.0
773.425	1.0	go	0.537	Go_O	1.0
775.949	1.0	go	0.0	Go_X	0.0
778.473	1.0	go	0.605	Go_O	1.0
780.997	1.0	go	0.0	Go_X	0.0
783.521	0.3	stop	0.0	Go_X	1.0
786.062	1.0	go	0.0	Go_O	0.0
788.587	0.35	stop	0.0	Go_O	1.0
791.111	1.0	go	0.0	Go_X	0.0
793.635	1.0	go	0.496	Go_O	1.0
796.159	1.0	go	0.0	Go_X	0.0
798.683	1.0	go	0.0	Go_O	0.0
801.208	1.0	go	0.0	Go_X	0.0
803.732	0.4	stop	0.0	Go_X	1.0
806.256	1.0	go	0.569	Go_X	1.0
808.78	1.0	go	0.0	Go_O	0.0
811.304	0.45	stop	0.0	Go_O	1.0
813.829	0.5	stop	0.0	Go_X	1.0
816.353	1.0	go	0.0	Go_X	0.0
818.877	1.0	go	0.0	Go_O	0.0
821.401	1.0	go	0.414	Go_X	1.0
823.925	1.0	go	0.53	Go_O	1.0
826.45	0.55	stop	0.385	Go_O	0.0
828.974	1.0	go	0.44	Go_O	1.0
