onset	duration	trial_type	response_time	stim_file	accuracy
55.982	1.0	go	0.0	Go_O	0.0
58.507	1.0	go	0.519	Go_X	0.0
61.031	1.0	go	0.299	Go_O	0.0
63.555	1.0	go	0.507	Go_X	0.0
66.079	1.0	go	0.431	Go_O	0.0
68.603	1.0	go	0.779	Go_X	0.0
71.128	0.25	stopfail	0.322	Go_O	0.0
73.652	1.0	go	0.319	Go_X	0.0
76.176	0.2	stopsuccess	0.0	Go_X	1.0
78.7	1.0	go	0.453	Go_O	0.0
81.225	1.0	go	0.337	Go_X	0.0
83.749	1.0	go	0.685	Go_O	0.0
86.273	0.25	stopsuccess	0.0	Go_O	1.0
88.797	1.0	go	0.307	Go_X	0.0
91.321	1.0	go	0.581	Go_O	0.0
93.846	0.3	stopsuccess	0.0	Go_X	1.0
96.37	0.35	stopfail	0.582	Go_O	0.0
98.894	1.0	go	0.388	Go_X	0.0
101.418	1.0	go	0.435	Go_O	0.0
103.942	0.3	stopfail	0.471	Go_X	0.0
106.467	1.0	go	0.855	Go_X	0.0
108.991	1.0	go	0.479	Go_O	0.0
111.515	0.25	stopfail	0.434	Go_O	0.0
114.039	1.0	go	0.671	Go_O	0.0
116.564	1.0	go	0.856	Go_X	0.0
119.088	0.2	stopsuccess	0.0	Go_X	1.0
121.612	1.0	go	0.399	Go_O	0.0
124.136	1.0	go	0.638	Go_X	0.0
126.66	0.25	stopsuccess	0.0	Go_O	1.0
129.185	1.0	go	0.662	Go_X	0.0
131.709	1.0	go	0.96	Go_O	0.0
134.233	1.0	go	0.642	Go_X	0.0
136.757	1.0	go	0.517	Go_O	0.0
139.281	1.0	go	0.61	Go_X	0.0
141.806	0.3	stopsuccess	0.0	Go_X	1.0
144.33	1.0	go	0.468	Go_O	0.0
146.854	1.0	go	0.589	Go_X	0.0
149.378	1.0	go	0.72	Go_O	0.0
151.903	1.0	go	0.798	Go_O	0.0
154.427	1.0	go	0.556	Go_X	0.0
156.951	0.35	stopsuccess	0.0	Go_O	1.0
159.475	1.0	go	0.409	Go_O	0.0
161.999	1.0	go	0.499	Go_X	0.0
164.524	1.0	go	0.506	Go_O	0.0
167.048	1.0	go	0.356	Go_X	0.0
169.572	1.0	go	0.702	Go_X	1.0
172.096	1.0	go	0.597	Go_O	0.0
174.62	0.4	stopfail	0.443	Go_X	0.0
177.145	1.0	go	0.986	Go_X	0.0
179.669	1.0	go	0.428	Go_O	0.0
182.193	0.35	stopfail	0.537	Go_O	0.0
184.717	1.0	go	0.663	Go_O	0.0
187.241	0.3	stopsuccess	0.0	Go_X	1.0
189.766	0.35	stopfail	0.573	Go_O	0.0
192.29	1.0	go	0.633	Go_X	0.0
194.814	1.0	go	0.729	Go_O	0.0
197.338	1.0	go	0.657	Go_X	0.0
199.863	1.0	go	0.728	Go_O	1.0
202.387	0.3	stopsuccess	0.0	Go_X	1.0
204.911	1.0	go	0.442	Go_X	0.0
207.435	0.35	stopsuccess	0.0	Go_O	1.0
209.959	1.0	go	0.61	Go_X	0.0
212.484	1.0	go	0.673	Go_O	1.0
215.008	1.0	go	0.645	Go_O	1.0
217.532	1.0	go	0.541	Go_X	0.0
220.056	1.0	go	0.709	Go_O	1.0
222.58	1.0	go	0.584	Go_X	0.0
225.105	1.0	go	0.871	Go_X	0.0
227.629	1.0	go	0.605	Go_O	1.0
230.153	1.0	go	0.456	Go_X	0.0
232.677	0.4	stopfail	0.464	Go_X	0.0
235.202	1.0	go	0.469	Go_O	1.0
237.726	1.0	go	0.516	Go_X	0.0
240.25	1.0	go	0.535	Go_O	1.0
242.774	0.35	stopsuccess	0.0	Go_O	1.0
245.298	1.0	go	0.562	Go_O	1.0
247.823	1.0	go	0.701	Go_X	0.0
250.347	1.0	go	0.595	Go_X	0.0
252.871	1.0	go	0.608	Go_O	1.0
255.395	1.0	go	0.638	Go_O	1.0
257.919	1.0	go	0.708	Go_X	0.0
260.444	0.4	stopsuccess	0.0	Go_X	1.0
262.968	1.0	go	0.605	Go_O	1.0
265.492	1.0	go	0.475	Go_X	0.0
268.016	0.45	stopfail	0.525	Go_O	0.0
270.541	1.0	go	0.883	Go_X	0.0
273.065	1.0	go	0.69	Go_O	1.0
275.589	0.4	stopfail	0.373	Go_X	0.0
278.113	1.0	go	0.795	Go_O	1.0
280.637	0.35	stopfail	0.42	Go_O	0.0
283.162	1.0	go	0.541	Go_X	0.0
285.686	1.0	go	0.663	Go_O	1.0
288.21	1.0	go	0.736	Go_X	0.0
290.734	1.0	go	0.835	Go_O	1.0
293.258	1.0	go	0.479	Go_X	0.0
295.783	0.3	stopsuccess	0.0	Go_X	1.0
298.307	0.35	stopfail	0.397	Go_O	0.0
300.831	1.0	go	0.637	Go_X	0.0
303.355	1.0	go	0.427	Go_O	1.0
305.88	0.3	stopfail	0.479	Go_X	0.0
308.404	1.0	go	0.429	Go_X	0.0
310.928	1.0	go	0.703	Go_O	1.0
313.452	1.0	go	0.835	Go_O	1.0
315.976	1.0	go	0.689	Go_X	0.0
318.501	1.0	go	0.763	Go_O	1.0
321.025	1.0	go	0.488	Go_X	0.0
323.549	0.25	stopfail	0.478	Go_O	0.0
326.073	1.0	go	0.676	Go_X	0.0
328.597	1.0	go	0.681	Go_O	1.0
331.122	1.0	go	0.759	Go_X	0.0
333.646	1.0	go	0.736	Go_O	1.0
336.17	1.0	go	0.869	Go_O	1.0
338.694	0.2	stopsuccess	0.0	Go_X	1.0
341.219	1.0	go	0.574	Go_X	0.0
343.743	1.0	go	0.588	Go_O	1.0
346.267	1.0	go	0.716	Go_X	0.0
348.791	1.0	go	0.645	Go_O	1.0
351.315	0.25	stopsuccess	0.0	Go_O	1.0
353.84	1.0	go	0.488	Go_X	0.0
356.364	1.0	go	0.284	Go_O	1.0
358.888	0.3	stopsuccess	0.0	Go_X	1.0
361.412	1.0	go	0.364	Go_X	0.0
363.936	0.35	stopsuccess	0.0	Go_O	1.0
366.461	1.0	go	0.726	Go_X	0.0
368.985	1.0	go	0.604	Go_O	1.0
371.509	1.0	go	0.715	Go_X	0.0
374.033	1.0	go	0.634	Go_O	1.0
376.558	1.0	go	0.556	Go_X	0.0
379.082	1.0	go	0.611	Go_O	1.0
381.606	1.0	go	0.58	Go_O	1.0
384.13	0.4	stopsuccess	0.0	Go_X	1.0
386.654	1.0	go	0.517	Go_X	0.0
389.179	1.0	go	0.617	Go_O	1.0
391.703	1.0	go	0.608	Go_X	0.0
394.227	0.45	stopsuccess	0.0	Go_O	1.0
396.751	1.0	go	0.642	Go_O	1.0
399.275	1.0	go	0.891	Go_X	0.0
401.8	1.0	go	0.72	Go_O	1.0
404.324	1.0	go	0.653	Go_X	0.0
406.848	0.5	stopfail	0.556	Go_X	0.0
409.372	1.0	go	0.449	Go_O	1.0
411.897	1.0	go	0.699	Go_X	0.0
414.421	0.45	stopsuccess	0.0	Go_O	1.0
416.945	1.0	go	0.889	Go_X	0.0
419.469	1.0	go	0.0	Go_O	0.0
421.993	0.5	stopfail	0.418	Go_X	0.0
424.518	1.0	go	0.6	Go_X	0.0
427.042	1.0	go	0.556	Go_O	1.0
429.566	0.45	stopsuccess	0.0	Go_O	1.0
432.09	1.0	go	0.89	Go_O	1.0
434.614	1.0	go	0.428	Go_X	0.0
437.139	1.0	go	0.744	Go_X	0.0
439.663	1.0	go	0.855	Go_O	1.0
442.187	1.0	go	0.735	Go_X	0.0
444.711	1.0	go	0.691	Go_O	1.0
447.236	0.5	stopfail	0.524	Go_X	0.0
449.76	1.0	go	0.338	Go_O	1.0
452.284	0.45	stopfail	0.477	Go_O	0.0
454.808	1.0	go	0.398	Go_X	0.0
457.332	1.0	go	0.588	Go_O	1.0
459.857	1.0	go	0.398	Go_X	0.0
462.381	1.0	go	0.412	Go_O	1.0
464.905	1.0	go	0.299	Go_X	0.0
467.429	0.4	stopsuccess	0.0	Go_X	1.0
469.953	1.0	go	0.544	Go_X	0.0
472.478	1.0	go	0.0	Go_O	0.0
475.002	1.0	go	0.573	Go_X	0.0
477.526	0.45	stopsuccess	0.0	Go_O	1.0
480.05	0.5	stopfail	0.596	Go_X	0.0
482.575	0.45	stopfail	0.496	Go_O	0.0
485.099	1.0	go	0.571	Go_O	1.0
487.623	0.4	stopsuccess	0.0	Go_X	1.0
490.147	1.0	go	0.789	Go_X	0.0
492.671	1.0	go	0.653	Go_O	1.0
495.196	1.0	go	0.577	Go_X	0.0
497.72	1.0	go	0.513	Go_O	1.0
500.244	1.0	go	0.472	Go_O	1.0
502.768	1.0	go	0.618	Go_X	0.0
505.292	1.0	go	0.863	Go_O	1.0
507.817	1.0	go	0.942	Go_X	0.0
510.341	0.45	stopfail	0.593	Go_O	0.0
512.865	1.0	go	0.689	Go_O	1.0
515.389	1.0	go	0.754	Go_X	0.0
517.913	0.4	stopfail	0.509	Go_X	0.0
520.438	1.0	go	0.811	Go_O	1.0
522.962	1.0	go	0.374	Go_X	0.0
525.486	1.0	go	0.446	Go_X	0.0
528.01	1.0	go	0.493	Go_O	1.0
530.535	1.0	go	0.686	Go_O	1.0
533.059	0.35	stopfail	0.609	Go_O	0.0
535.583	1.0	go	0.483	Go_X	0.0
538.107	1.0	go	0.54	Go_X	0.0
540.631	1.0	go	0.632	Go_O	1.0
543.156	0.3	stopsuccess	0.0	Go_X	1.0
545.68	1.0	go	0.432	Go_X	0.0
548.204	0.35	stopsuccess	0.0	Go_O	1.0
550.728	1.0	go	0.594	Go_O	1.0
553.253	1.0	go	0.64	Go_X	0.0
555.777	1.0	go	0.0	Go_O	0.0
558.301	1.0	go	0.348	Go_O	1.0
560.825	1.0	go	0.543	Go_X	0.0
563.349	1.0	go	0.408	Go_O	1.0
565.874	1.0	go	0.588	Go_X	0.0
568.398	0.4	stopfail	0.481	Go_X	0.0
570.922	1.0	go	0.574	Go_O	1.0
573.446	1.0	go	0.454	Go_X	0.0
575.97	1.0	go	0.535	Go_X	0.0
578.495	1.0	go	0.616	Go_O	1.0
581.019	0.35	stopfail	0.433	Go_O	0.0
583.543	1.0	go	0.575	Go_O	1.0
586.067	0.3	stopfail	0.57	Go_X	0.0
588.592	1.0	go	0.577	Go_X	0.0
591.116	1.0	go	0.639	Go_O	1.0
593.64	0.25	stopsuccess	0.0	Go_O	1.0
596.164	1.0	go	0.541	Go_X	0.0
598.688	1.0	go	0.0	Go_X	0.0
601.213	1.0	go	0.426	Go_O	1.0
603.737	1.0	go	0.467	Go_X	0.0
606.261	1.0	go	0.432	Go_O	1.0
608.785	1.0	go	0.488	Go_X	0.0
611.309	1.0	go	0.436	Go_O	1.0
613.834	1.0	go	0.461	Go_O	1.0
616.358	1.0	go	0.489	Go_X	0.0
618.882	1.0	go	0.714	Go_O	1.0
621.406	0.3	stopfail	0.596	Go_X	0.0
623.93	1.0	go	0.474	Go_X	0.0
626.455	1.0	go	0.482	Go_O	1.0
628.979	0.25	stopsuccess	0.0	Go_O	1.0
631.503	1.0	go	0.486	Go_X	0.0
634.027	0.3	stopsuccess	0.0	Go_X	1.0
636.552	1.0	go	0.812	Go_X	0.0
639.076	1.0	go	0.0	Go_O	0.0
641.6	0.35	stopfail	0.356	Go_O	0.0
644.124	1.0	go	0.618	Go_O	1.0
646.648	0.3	stopfail	0.493	Go_X	0.0
649.173	1.0	go	0.631	Go_X	0.0
651.697	1.0	go	0.383	Go_X	0.0
654.221	1.0	go	0.713	Go_O	1.0
656.745	0.25	stopsuccess	0.0	Go_O	1.0
659.269	1.0	go	0.636	Go_X	0.0
661.794	1.0	go	0.748	Go_O	1.0
664.318	1.0	go	0.734	Go_X	0.0
666.842	1.0	go	0.583	Go_O	1.0
669.366	0.3	stopsuccess	0.0	Go_X	1.0
671.891	1.0	go	0.923	Go_X	0.0
674.415	1.0	go	0.684	Go_O	1.0
676.939	0.35	stopfail	0.466	Go_O	0.0
679.463	1.0	go	0.532	Go_O	1.0
681.987	1.0	go	0.809	Go_X	0.0
684.512	1.0	go	0.484	Go_O	1.0
687.036	1.0	go	0.535	Go_X	0.0
689.56	0.3	stopsuccess	0.0	Go_X	1.0
692.084	1.0	go	0.589	Go_O	1.0
694.608	0.35	stopsuccess	0.0	Go_O	1.0
697.133	1.0	go	0.628	Go_X	0.0
699.657	1.0	go	0.43	Go_O	1.0
702.181	0.4	stopfail	0.567	Go_X	0.0
704.705	1.0	go	0.396	Go_X	0.0
707.23	1.0	go	0.0	Go_O	0.0
709.754	1.0	go	0.756	Go_X	0.0
712.278	1.0	go	0.686	Go_X	0.0
714.802	0.35	stopfail	0.614	Go_O	0.0
717.326	1.0	go	0.324	Go_O	1.0
719.851	0.3	stopsuccess	0.0	Go_X	1.0
722.375	1.0	go	0.634	Go_O	1.0
724.899	1.0	go	0.51	Go_X	0.0
727.423	1.0	go	0.557	Go_O	1.0
729.947	1.0	go	0.881	Go_X	0.0
732.472	1.0	go	0.325	Go_X	0.0
734.996	1.0	go	0.475	Go_O	1.0
737.52	0.35	stopfail	0.594	Go_O	0.0
740.044	1.0	go	0.33	Go_X	0.0
742.569	1.0	go	0.0	Go_O	0.0
745.093	0.3	stopfail	0.503	Go_X	0.0
747.617	1.0	go	0.524	Go_X	0.0
750.141	1.0	go	0.59	Go_O	1.0
752.665	0.25	stopsuccess	0.0	Go_O	1.0
755.19	1.0	go	0.403	Go_O	1.0
757.714	1.0	go	0.564	Go_X	0.0
760.238	1.0	go	0.462	Go_O	1.0
762.762	1.0	go	0.745	Go_X	0.0
765.286	0.3	stopfail	0.448	Go_X	0.0
767.811	1.0	go	0.5	Go_O	1.0
770.335	0.25	stopsuccess	0.0	Go_O	1.0
772.859	1.0	go	0.479	Go_X	0.0
775.383	1.0	go	0.673	Go_O	1.0
777.908	1.0	go	0.677	Go_X	0.0
780.432	1.0	go	0.714	Go_O	1.0
782.956	1.0	go	0.517	Go_X	0.0
785.48	0.3	stopsuccess	0.0	Go_X	1.0
788.004	1.0	go	0.542	Go_O	1.0
790.529	1.0	go	0.582	Go_X	0.0
793.053	0.35	stopsuccess	0.0	Go_O	1.0
795.577	0.4	stopfail	0.597	Go_X	0.0
798.102	1.0	go	0.417	Go_X	0.0
800.625	1.0	go	0.656	Go_O	1.0
803.15	1.0	go	0.595	Go_O	1.0
805.674	1.0	go	0.519	Go_X	0.0
808.198	0.35	stopsuccess	0.0	Go_O	1.0
810.722	1.0	go	0.333	Go_O	1.0
