frame	onset	duration	trial_type	event_type	response_type	response_time	stim_file	accuracy
0	74.598		control-reward	ImageDisplay1		0.0		
0	76.838	0.75	control-reward	StartDisplay				
0	77.591		control-reward	ImageDisplay2		0.0		
0	80.583	1.6	control-reward	ChoiceDisplay	1	0.667	1	1
0	81.268	0.933	control-reward	ChosenDisplay		0.0		
0	82.188	0.25	control-reward	TurnDisplay				
0	82.439	0.75	control-reward	OutcomeDisplay				
1	83.191		win-noreward	ImageDisplay1		0.0		
1	85.431	0.75	win-noreward	StartDisplay				
1	86.183		win-noreward	ImageDisplay2		0.0		
1	89.192	1.6	win-noreward	ChoiceDisplay	1	1.108	1	1
1	90.312	0.492	win-noreward	ChosenDisplay		0.0		
1	90.797	0.25	win-noreward	TurnDisplay				
1	91.048	0.75	win-noreward	OutcomeDisplay				
2	91.8		control-noreward	ImageDisplay1		0.0		
2	94.04	0.75	control-noreward	StartDisplay				
2	94.792		control-noreward	ImageDisplay2		0.0		
2	97.801	1.6	control-noreward	ChoiceDisplay	1	0.904	1	1
2	98.72	0.696	control-noreward	ChosenDisplay		0.0		
2	99.406	0.25	control-noreward	TurnDisplay				
2	99.657	0.75	control-noreward	OutcomeDisplay				
3	100.409		win-reward	ImageDisplay1		0.0		
3	102.649	0.75	win-reward	StartDisplay				
3	103.401		win-reward	ImageDisplay2		0.0		
3	106.41	1.6	win-reward	ChoiceDisplay		0.0		
3	107.998	0.0	win-reward	ChosenDisplay		0.0		
3	108.015	0.25	win-reward	TurnDisplay				
3	108.249	0.75	win-reward	OutcomeDisplay				
4	109.001		loss-reward	ImageDisplay1		0.0		
4	111.007	0.75	loss-reward	StartDisplay				
4	111.759		loss-reward	ImageDisplay2		0.0		
4	115.002	1.6	loss-reward	ChoiceDisplay	1	0.915	1	1
4	115.938	0.685	loss-reward	ChosenDisplay		0.0		
4	116.607	0.25	loss-reward	TurnDisplay				
4	116.858	0.75	loss-reward	OutcomeDisplay				
5	117.61		loss-noreward	ImageDisplay1		0.0		
5	119.599	0.75	loss-noreward	StartDisplay				
5	120.352		loss-noreward	ImageDisplay2		0.0		
5	123.611	1.6	loss-noreward	ChoiceDisplay	1	0.925	1	1
5	124.547	0.675	loss-noreward	ChosenDisplay		0.0		
5	125.216	0.25	loss-noreward	TurnDisplay				
5	125.467	0.75	loss-noreward	OutcomeDisplay				
6	126.219		control-reward	ImageDisplay1		0.0		
6	128.208	0.75	control-reward	StartDisplay				
6	128.961		control-reward	ImageDisplay2		0.0		
6	132.22	1.6	control-reward	ChoiceDisplay	1	0.804	1	1
6	133.039	0.796	control-reward	ChosenDisplay		0.0		
6	133.825	0.25	control-reward	TurnDisplay				
6	134.076	0.75	control-reward	OutcomeDisplay				
7	134.828		control-reward	ImageDisplay1		0.0		
7	137.068	0.75	control-reward	StartDisplay				
7	137.82		control-reward	ImageDisplay2		0.0		
7	140.829	1.6	control-reward	ChoiceDisplay	1	0.806	1	1
7	141.648	0.794	control-reward	ChosenDisplay		0.0		
7	142.434	0.25	control-reward	TurnDisplay				
7	142.685	0.75	control-reward	OutcomeDisplay				
8	143.437		win-reward	ImageDisplay1		0.0		
8	145.426	0.75	win-reward	StartDisplay				
8	146.179		win-reward	ImageDisplay2		0.0		
8	149.438	1.6	win-reward	ChoiceDisplay	1	0.839	1	1
8	150.291	0.761	win-reward	ChosenDisplay		0.0		
8	151.043	0.25	win-reward	TurnDisplay				
8	151.294	0.75	win-reward	OutcomeDisplay				
9	152.046		loss-noreward	ImageDisplay1		0.0		
9	154.286	0.75	loss-noreward	StartDisplay				
9	155.038		loss-noreward	ImageDisplay2		0.0		
9	158.047	1.6	loss-noreward	ChoiceDisplay	1	0.762	1	1
9	158.833	0.838	loss-noreward	ChosenDisplay		0.0		
9	159.652	0.25	loss-noreward	TurnDisplay				
9	159.903	0.75	loss-noreward	OutcomeDisplay				
10	160.655		loss-reward	ImageDisplay1		0.0		
10	162.644	0.75	loss-reward	StartDisplay				
10	163.397		loss-reward	ImageDisplay2		0.0		
10	166.656	1.6	loss-reward	ChoiceDisplay	1	0.966	1	1
10	167.643	0.634	loss-reward	ChosenDisplay		0.0		
10	168.261	0.25	loss-reward	TurnDisplay				
10	168.512	0.75	loss-reward	OutcomeDisplay				
11	169.264		win-noreward	ImageDisplay1		0.0		
11	171.504	0.75	win-noreward	StartDisplay				
11	172.256		win-noreward	ImageDisplay2		0.0		
11	175.265	1.6	win-noreward	ChoiceDisplay	1	0.996	1	1
11	176.285	0.604	win-noreward	ChosenDisplay		0.0		
11	176.87	0.25	win-noreward	TurnDisplay				
11	177.121	0.75	win-noreward	OutcomeDisplay				
12	177.873		win-noreward	ImageDisplay1		0.0		
12	180.113	0.75	win-noreward	StartDisplay				
12	180.865		win-noreward	ImageDisplay2		0.0		
12	183.874	1.6	win-noreward	ChoiceDisplay	1	0.764	1	1
12	184.66	0.836	win-noreward	ChosenDisplay		0.0		
12	185.479	0.25	win-noreward	TurnDisplay				
12	185.73	0.75	win-noreward	OutcomeDisplay				
13	186.482		win-reward	ImageDisplay1		0.0		
13	188.722	0.75	win-reward	StartDisplay				
13	189.474		win-reward	ImageDisplay2		0.0		
13	192.483	1.6	win-reward	ChoiceDisplay	1	1.077	1	1
13	193.587	0.523	win-reward	ChosenDisplay		0.0		
13	194.088	0.25	win-reward	TurnDisplay				
13	194.339	0.75	win-reward	OutcomeDisplay				
14	195.091		control-noreward	ImageDisplay1		0.0		
14	197.08	0.75	control-noreward	StartDisplay				
14	197.833		control-noreward	ImageDisplay2		0.0		
14	201.092	1.6	control-noreward	ChoiceDisplay	1	0.737	1	1
14	201.844	0.863	control-noreward	ChosenDisplay		0.0		
14	202.697	0.25	control-noreward	TurnDisplay				
14	202.948	0.75	control-noreward	OutcomeDisplay				
15	203.7		win-noreward	ImageDisplay1		0.0		
15	205.94	0.75	win-noreward	StartDisplay				
15	206.692		win-noreward	ImageDisplay2		0.0		
15	209.701	1.6	win-noreward	ChoiceDisplay	1	0.755	1	1
15	210.47	0.845	win-noreward	ChosenDisplay		0.0		
15	211.306	0.25	win-noreward	TurnDisplay				
15	211.557	0.75	win-noreward	OutcomeDisplay				
16	212.309		control-noreward	ImageDisplay1		0.0		
16	214.549	0.75	control-noreward	StartDisplay				
16	215.301		control-noreward	ImageDisplay2		0.0		
16	218.31	1.6	control-noreward	ChoiceDisplay	1	0.739	1	1
16	219.062	0.861	control-noreward	ChosenDisplay		0.0		
16	219.915	0.25	control-noreward	TurnDisplay				
16	220.166	0.75	control-noreward	OutcomeDisplay				
17	220.918		control-reward	ImageDisplay1		0.0		
17	223.158	0.75	control-reward	StartDisplay				
17	223.91		control-reward	ImageDisplay2		0.0		
17	226.919	1.6	control-reward	ChoiceDisplay	1	0.79	1	1
17	227.722	0.81	control-reward	ChosenDisplay		0.0		
17	228.524	0.25	control-reward	TurnDisplay				
17	228.775	0.75	control-reward	OutcomeDisplay				
18	229.527		win-noreward	ImageDisplay1		0.0		
18	231.767	0.75	win-noreward	StartDisplay				
18	232.519		win-noreward	ImageDisplay2		0.0		
18	235.528	1.6	win-noreward	ChoiceDisplay	1	1.238	1	1
18	236.782	0.362	win-noreward	ChosenDisplay		0.0		
18	237.133	0.25	win-noreward	TurnDisplay				
18	237.384	0.75	win-noreward	OutcomeDisplay				
19	238.136		control-noreward	ImageDisplay1		0.0		
19	240.125	0.75	control-noreward	StartDisplay				
19	240.878		control-noreward	ImageDisplay2		0.0		
19	244.137	1.6	control-noreward	ChoiceDisplay	1	0.84	1	1
19	244.99	0.76	control-noreward	ChosenDisplay		0.0		
19	245.742	0.25	control-noreward	TurnDisplay				
19	245.993	0.75	control-noreward	OutcomeDisplay				
20	246.745		win-reward	ImageDisplay1		0.0		
20	248.734	0.75	win-reward	StartDisplay				
20	249.487		win-reward	ImageDisplay2		0.0		
20	252.746	1.6	win-reward	ChoiceDisplay	1	1.205	1	1
20	253.967	0.395	win-reward	ChosenDisplay		0.0		
20	254.351	0.25	win-reward	TurnDisplay				
20	254.602	0.75	win-reward	OutcomeDisplay				
21	255.354		loss-reward	ImageDisplay1		0.0		
21	257.594	0.75	loss-reward	StartDisplay				
21	258.346		loss-reward	ImageDisplay2		0.0		
21	261.355	1.6	loss-reward	ChoiceDisplay	1	0.915	1	1
21	262.291	0.685	loss-reward	ChosenDisplay		0.0		
21	262.96	0.25	loss-reward	TurnDisplay				
21	263.211	0.75	loss-reward	OutcomeDisplay				
22	263.963		control-noreward	ImageDisplay1		0.0		
22	266.203	0.75	control-noreward	StartDisplay				
22	266.955		control-noreward	ImageDisplay2		0.0		
22	269.964	1.6	control-noreward	ChoiceDisplay	1	0.997	1	1
22	270.984	0.603	control-noreward	ChosenDisplay		0.0		
22	271.569	0.25	control-noreward	TurnDisplay				
22	271.82	0.75	control-noreward	OutcomeDisplay				
23	272.572		control-reward	ImageDisplay1		0.0		
23	274.561	0.75	control-reward	StartDisplay				
23	275.314		control-reward	ImageDisplay2		0.0		
23	278.573	1.6	control-reward	ChoiceDisplay	1	0.954	1	1
23	279.543	0.646	control-reward	ChosenDisplay		0.0		
23	280.178	0.25	control-reward	TurnDisplay				
23	280.429	0.75	control-reward	OutcomeDisplay				
24	281.181		loss-noreward	ImageDisplay1		0.0		
24	283.421	0.75	loss-noreward	StartDisplay				
24	284.173		loss-noreward	ImageDisplay2		0.0		
24	287.182	1.6	loss-noreward	ChoiceDisplay	1	0.895	1	1
24	288.102	0.705	loss-noreward	ChosenDisplay		0.0		
24	288.787	0.25	loss-noreward	TurnDisplay				
24	289.038	0.75	loss-noreward	OutcomeDisplay				
25	289.79		win-noreward	ImageDisplay1		0.0		
25	291.779	0.75	win-noreward	StartDisplay				
25	292.532		win-noreward	ImageDisplay2		0.0		
25	295.791	1.6	win-noreward	ChoiceDisplay	1	0.894	1	1
25	296.711	0.706	win-noreward	ChosenDisplay		0.0		
25	297.396	0.25	win-noreward	TurnDisplay				
25	297.647	0.75	win-noreward	OutcomeDisplay				
26	298.399		win-noreward	ImageDisplay1		0.0		
26	300.388	0.75	win-noreward	StartDisplay				
26	301.141		win-noreward	ImageDisplay2		0.0		
26	304.4	1.6	win-noreward	ChoiceDisplay	1	1.106	1	1
26	305.52	0.494	win-noreward	ChosenDisplay		0.0		
26	306.005	0.25	win-noreward	TurnDisplay				
26	306.256	0.75	win-noreward	OutcomeDisplay				
27	307.008		win-reward	ImageDisplay1		0.0		
27	309.248	0.75	win-reward	StartDisplay				
27	310.0		win-reward	ImageDisplay2		0.0		
27	313.009	1.6	win-reward	ChoiceDisplay	1	0.755	1	1
27	313.778	0.845	win-reward	ChosenDisplay		0.0		
27	314.614	0.25	win-reward	TurnDisplay				
27	314.865	0.75	win-reward	OutcomeDisplay				
28	315.617		control-reward	ImageDisplay1		0.0		
28	317.606	0.75	control-reward	StartDisplay				
28	318.359		control-reward	ImageDisplay2		0.0		
28	321.618	1.6	control-reward	ChoiceDisplay	1	0.502	1	1
28	322.136	1.098	control-reward	ChosenDisplay		0.0		
28	323.223	0.25	control-reward	TurnDisplay				
28	323.474	0.75	control-reward	OutcomeDisplay				
29	324.226		control-noreward	ImageDisplay1		0.0		
29	326.466	0.75	control-noreward	StartDisplay				
29	327.218		control-noreward	ImageDisplay2		0.0		
29	330.227	1.6	control-noreward	ChoiceDisplay	1	0.835	1	1
29	331.08	0.765	control-noreward	ChosenDisplay		0.0		
29	331.832	0.25	control-noreward	TurnDisplay				
29	332.083	0.75	control-noreward	OutcomeDisplay				
30	332.835		loss-noreward	ImageDisplay1		0.0		
30	335.075	0.75	loss-noreward	StartDisplay				
30	335.827		loss-noreward	ImageDisplay2		0.0		
30	338.836	1.6	loss-noreward	ChoiceDisplay	1	1.017	1	1
30	339.873	0.583	loss-noreward	ChosenDisplay		0.0		
30	340.441	0.25	loss-noreward	TurnDisplay				
30	340.692	0.75	loss-noreward	OutcomeDisplay				
31	341.444		win-noreward	ImageDisplay1		0.0		
31	343.433	0.75	win-noreward	StartDisplay				
31	344.186		win-noreward	ImageDisplay2		0.0		
31	347.445	1.6	win-noreward	ChoiceDisplay	1	0.985	1	1
31	348.448	0.615	win-noreward	ChosenDisplay		0.0		
31	349.05	0.25	win-noreward	TurnDisplay				
31	349.301	0.75	win-noreward	OutcomeDisplay				
32	350.053		control-reward	ImageDisplay1		0.0		
32	352.293	0.75	control-reward	StartDisplay				
32	353.045		control-reward	ImageDisplay2		0.0		
32	356.054	1.6	control-reward	ChoiceDisplay	1	0.639	1	1
32	356.706	0.961	control-reward	ChosenDisplay		0.0		
32	357.659	0.25	control-reward	TurnDisplay				
32	357.91	0.75	control-reward	OutcomeDisplay				
33	358.662		loss-reward	ImageDisplay1		0.0		
33	360.902	0.75	loss-reward	StartDisplay				
33	361.654		loss-reward	ImageDisplay2		0.0		
33	364.663	1.6	loss-reward	ChoiceDisplay	1	1.14	1	1
33	365.817	0.46	loss-reward	ChosenDisplay		0.0		
33	366.268	0.25	loss-reward	TurnDisplay				
33	366.519	0.75	loss-reward	OutcomeDisplay				
34	367.271		loss-reward	ImageDisplay1		0.0		
34	369.511	0.75	loss-reward	StartDisplay				
34	370.263		loss-reward	ImageDisplay2		0.0		
34	373.272	1.6	loss-reward	ChoiceDisplay	1	1.147	1	1
34	374.442	0.453	loss-reward	ChosenDisplay		0.0		
34	374.877	0.25	loss-reward	TurnDisplay				
34	375.128	0.75	loss-reward	OutcomeDisplay				
35	375.88		control-reward	ImageDisplay1		0.0		
35	378.12	0.75	control-reward	StartDisplay				
35	378.872		control-reward	ImageDisplay2		0.0		
35	381.881	1.6	control-reward	ChoiceDisplay	1	1.044	1	1
35	382.951	0.556	control-reward	ChosenDisplay		0.0		
35	383.486	0.25	control-reward	TurnDisplay				
35	383.737	0.75	control-reward	OutcomeDisplay				
36	384.489		loss-noreward	ImageDisplay1		0.0		
36	386.478	0.75	loss-noreward	StartDisplay				
36	387.231		loss-noreward	ImageDisplay2		0.0		
36	390.49	1.6	loss-noreward	ChoiceDisplay	1	1.11	1	1
36	391.627	0.49	loss-noreward	ChosenDisplay		0.0		
36	392.095	0.25	loss-noreward	TurnDisplay				
36	392.346	0.75	loss-noreward	OutcomeDisplay				
37	393.098		loss-reward	ImageDisplay1		0.0		
37	395.338	0.75	loss-reward	StartDisplay				
37	396.09		loss-reward	ImageDisplay2		0.0		
37	399.099	1.6	loss-reward	ChoiceDisplay	1	1.059	1	1
37	400.169	0.541	loss-reward	ChosenDisplay		0.0		
37	400.704	0.25	loss-reward	TurnDisplay				
37	400.955	0.75	loss-reward	OutcomeDisplay				
38	401.707		win-reward	ImageDisplay1		0.0		
38	403.696	0.75	win-reward	StartDisplay				
38	404.449		win-reward	ImageDisplay2		0.0		
38	407.708	1.6	win-reward	ChoiceDisplay	1	1.092	1	1
38	408.812	0.508	win-reward	ChosenDisplay		0.0		
38	409.313	0.25	win-reward	TurnDisplay				
38	409.564	0.75	win-reward	OutcomeDisplay				
39	410.316		control-noreward	ImageDisplay1		0.0		
39	412.305	0.75	control-noreward	StartDisplay				
39	413.058		control-noreward	ImageDisplay2		0.0		
39	416.317	1.6	control-noreward	ChoiceDisplay	1	0.931	1	1
39	417.27	0.669	control-noreward	ChosenDisplay		0.0		
39	417.922	0.25	control-noreward	TurnDisplay				
39	418.173	0.75	control-noreward	OutcomeDisplay				
40	418.925		win-reward	ImageDisplay1		0.0		
40	421.165	0.75	win-reward	StartDisplay				
40	421.917		win-reward	ImageDisplay2		0.0		
40	424.926	1.6	win-reward	ChoiceDisplay		0.0		
40	426.514	0.0	win-reward	ChosenDisplay		0.0		
40	426.531	0.25	win-reward	TurnDisplay				
40	426.765	0.75	win-reward	OutcomeDisplay				
41	427.517		control-noreward	ImageDisplay1		0.0		
41	429.523	0.75	control-noreward	StartDisplay				
41	430.276		control-noreward	ImageDisplay2		0.0		
41	433.519	1.6	control-noreward	ChoiceDisplay	1	1.179	1	1
41	434.722	0.421	control-noreward	ChosenDisplay		0.0		
41	435.123	0.25	control-noreward	TurnDisplay				
41	435.374	0.75	control-noreward	OutcomeDisplay				
42	436.126		control-noreward	ImageDisplay1		0.0		
42	438.116	0.75	control-noreward	StartDisplay				
42	438.868		control-noreward	ImageDisplay2		0.0		
42	442.128	1.6	control-noreward	ChoiceDisplay		0.0		
42	443.716	0.0	control-noreward	ChosenDisplay		0.0		
42	443.732	0.25	control-noreward	TurnDisplay				
42	443.966	0.75	control-noreward	OutcomeDisplay				
43	444.719		win-noreward	ImageDisplay1		0.0		
43	446.725	0.75	win-noreward	StartDisplay				
43	447.477		win-noreward	ImageDisplay2		0.0		
43	450.72	1.6	win-noreward	ChoiceDisplay	1	0.681	1	1
43	451.422	0.919	win-noreward	ChosenDisplay		0.0		
43	452.325	0.25	win-noreward	TurnDisplay				
43	452.575	0.75	win-noreward	OutcomeDisplay				
44	453.328		control-reward	ImageDisplay1		0.0		
44	455.317	0.75	control-reward	StartDisplay				
44	456.069		control-reward	ImageDisplay2		0.0		
44	459.329	1.6	control-reward	ChoiceDisplay		0.0		
44	460.917	0.0	control-reward	ChosenDisplay		0.0		
44	460.934	0.25	control-reward	TurnDisplay				
44	461.168	0.75	control-reward	OutcomeDisplay				
45	461.92		loss-reward	ImageDisplay1		0.0		
45	463.926	0.75	loss-reward	StartDisplay				
45	464.678		loss-reward	ImageDisplay2		0.0		
45	467.921	1.6	loss-reward	ChoiceDisplay	1	1.186	1	1
45	469.125	0.414	loss-reward	ChosenDisplay		0.0		
45	469.526	0.25	loss-reward	TurnDisplay				
45	469.777	0.75	loss-reward	OutcomeDisplay				
46	470.529		loss-reward	ImageDisplay1		0.0		
46	472.769	0.75	loss-reward	StartDisplay				
46	473.521		loss-reward	ImageDisplay2		0.0		
46	476.53	1.6	loss-reward	ChoiceDisplay	1	1.021	1	1
46	477.567	0.579	loss-reward	ChosenDisplay		0.0		
46	478.135	0.25	loss-reward	TurnDisplay				
46	478.386	0.75	loss-reward	OutcomeDisplay				
47	479.138		loss-noreward	ImageDisplay1		0.0		
47	481.378	0.75	loss-noreward	StartDisplay				
47	482.13		loss-noreward	ImageDisplay2		0.0		
47	485.139	1.6	loss-noreward	ChoiceDisplay	1	1.191	1	1
47	486.343	0.409	loss-noreward	ChosenDisplay		0.0		
47	486.744	0.25	loss-noreward	TurnDisplay				
47	486.995	0.75	loss-noreward	OutcomeDisplay				
48	487.747		win-reward	ImageDisplay1		0.0		
48	489.736	0.75	win-reward	StartDisplay				
48	490.488		win-reward	ImageDisplay2		0.0		
48	493.748	1.6	win-reward	ChoiceDisplay	1	0.943	1	1
48	494.718	0.657	win-reward	ChosenDisplay		0.0		
48	495.353	0.25	win-reward	TurnDisplay				
48	495.604	0.75	win-reward	OutcomeDisplay				
49	496.356		loss-reward	ImageDisplay1		0.0		
49	498.345	0.75	loss-reward	StartDisplay				
49	499.097		loss-reward	ImageDisplay2		0.0		
49	502.357	1.6	loss-reward	ChoiceDisplay	1	0.882	1	1
49	503.26	0.718	loss-reward	ChosenDisplay		0.0		
49	503.962	0.25	loss-reward	TurnDisplay				
49	504.213	0.75	loss-reward	OutcomeDisplay				
50	504.965		win-noreward	ImageDisplay1		0.0		
50	507.205	0.75	win-noreward	StartDisplay				
50	507.957		win-noreward	ImageDisplay2		0.0		
50	510.966	1.6	win-noreward	ChoiceDisplay	1	1.29	1	1
50	512.27	0.31	win-noreward	ChosenDisplay		0.0		
50	512.571	0.25	win-noreward	TurnDisplay				
50	512.822	0.75	win-noreward	OutcomeDisplay				
51	513.574		loss-noreward	ImageDisplay1		0.0		
51	515.563	0.75	loss-noreward	StartDisplay				
51	516.315		loss-noreward	ImageDisplay2		0.0		
51	519.575	1.6	loss-noreward	ChoiceDisplay	1	1.405	1	1
51	520.996	0.195	loss-noreward	ChosenDisplay		0.0		
51	521.18	0.25	loss-noreward	TurnDisplay				
51	521.431	0.75	loss-noreward	OutcomeDisplay				
52	522.183		win-reward	ImageDisplay1		0.0		
52	524.172	0.75	win-reward	StartDisplay				
52	524.924		win-reward	ImageDisplay2		0.0		
52	528.184	1.6	win-reward	ChoiceDisplay		0.0		
52	529.772	0.0	win-reward	ChosenDisplay		0.0		
52	529.789	0.25	win-reward	TurnDisplay				
52	530.023	0.75	win-reward	OutcomeDisplay				
53	530.775		loss-reward	ImageDisplay1		0.0		
53	533.032	0.75	loss-reward	StartDisplay				
53	533.784		loss-reward	ImageDisplay2		0.0		
53	536.776	1.6	loss-reward	ChoiceDisplay	1	1.072	1	1
53	537.863	0.528	loss-reward	ChosenDisplay		0.0		
53	538.381	0.25	loss-reward	TurnDisplay				
53	538.632	0.75	loss-reward	OutcomeDisplay				
54	539.384		control-noreward	ImageDisplay1		0.0		
54	541.624	0.75	control-noreward	StartDisplay				
54	542.376		control-noreward	ImageDisplay2		0.0		
54	545.385	1.6	control-noreward	ChoiceDisplay	1	0.719	1	1
54	546.121	0.881	control-noreward	ChosenDisplay		0.0		
54	546.99	0.25	control-noreward	TurnDisplay				
54	547.241	0.75	control-noreward	OutcomeDisplay				
55	547.993		win-noreward	ImageDisplay1		0.0		
55	549.982	0.75	win-noreward	StartDisplay				
55	550.735		win-noreward	ImageDisplay2		0.0		
55	553.994	1.6	win-noreward	ChoiceDisplay		0.0		
55	555.582	0.0	win-noreward	ChosenDisplay		0.0		
55	555.599	0.25	win-noreward	TurnDisplay				
55	555.833	0.75	win-noreward	OutcomeDisplay				
56	556.585		control-reward	ImageDisplay1		0.0		
56	558.591	0.75	control-reward	StartDisplay				
56	559.344		control-reward	ImageDisplay2		0.0		
56	562.587	1.6	control-reward	ChoiceDisplay	1	1.009	1	1
56	563.623	0.591	control-reward	ChosenDisplay		0.0		
56	564.191	0.25	control-reward	TurnDisplay				
56	564.442	0.75	control-reward	OutcomeDisplay				
57	565.194		control-reward	ImageDisplay1		0.0		
57	567.184	0.75	control-reward	StartDisplay				
57	567.936		control-reward	ImageDisplay2		0.0		
57	571.196	1.6	control-reward	ChoiceDisplay	1	0.814	1	1
57	572.031	0.786	control-reward	ChosenDisplay		0.0		
57	572.8	0.25	control-reward	TurnDisplay				
57	573.051	0.75	control-reward	OutcomeDisplay				
58	573.803		control-reward	ImageDisplay1		0.0		
58	576.043	0.75	control-reward	StartDisplay				
58	576.796		control-reward	ImageDisplay2		0.0		
58	579.805	1.6	control-reward	ChoiceDisplay	1	0.939	1	1
58	580.758	0.661	control-reward	ChosenDisplay		0.0		
58	581.409	0.25	control-reward	TurnDisplay				
58	581.66	0.75	control-reward	OutcomeDisplay				
59	582.412		loss-reward	ImageDisplay1		0.0		
59	584.652	0.75	loss-reward	StartDisplay				
59	585.405		loss-reward	ImageDisplay2		0.0		
59	588.414	1.6	loss-reward	ChoiceDisplay	1	1.306	1	1
59	589.734	0.294	loss-reward	ChosenDisplay		0.0		
59	590.018	0.25	loss-reward	TurnDisplay				
59	590.269	0.75	loss-reward	OutcomeDisplay				
60	591.021		loss-reward	ImageDisplay1		0.0		
60	593.011	0.75	loss-reward	StartDisplay				
60	593.763		loss-reward	ImageDisplay2		0.0		
60	597.023	1.6	loss-reward	ChoiceDisplay	1	1.318	1	1
60	598.36	0.282	loss-reward	ChosenDisplay		0.0		
60	598.627	0.25	loss-reward	TurnDisplay				
60	598.878	0.75	loss-reward	OutcomeDisplay				
61	599.63		win-reward	ImageDisplay1		0.0		
61	601.87	0.75	win-reward	StartDisplay				
61	602.623		win-reward	ImageDisplay2		0.0		
61	605.632	1.6	win-reward	ChoiceDisplay	1	0.974	1	1
61	606.618	0.626	win-reward	ChosenDisplay		0.0		
61	607.236	0.25	win-reward	TurnDisplay				
61	607.487	0.75	win-reward	OutcomeDisplay				
62	608.239		win-reward	ImageDisplay1		0.0		
62	610.479	0.75	win-reward	StartDisplay				
62	611.232		win-reward	ImageDisplay2		0.0		
62	614.241	1.6	win-reward	ChoiceDisplay	1	1.079	1	1
62	615.344	0.521	win-reward	ChosenDisplay		0.0		
62	615.845	0.25	win-reward	TurnDisplay				
62	616.096	0.75	win-reward	OutcomeDisplay				
63	616.848		loss-reward	ImageDisplay1		0.0		
63	618.838	0.75	loss-reward	StartDisplay				
63	619.59		loss-reward	ImageDisplay2		0.0		
63	622.85	1.6	loss-reward	ChoiceDisplay	1	0.445	1	1
63	623.318	1.155	loss-reward	ChosenDisplay		0.0		
63	624.454	0.25	loss-reward	TurnDisplay				
63	624.705	0.75	loss-reward	OutcomeDisplay				
64	625.457		win-reward	ImageDisplay1		0.0		
64	627.447	0.75	win-reward	StartDisplay				
64	628.199		win-reward	ImageDisplay2		0.0		
64	631.459	1.6	win-reward	ChoiceDisplay		0.0		
64	633.047	0.0	win-reward	ChosenDisplay		0.0		
64	633.063	0.25	win-reward	TurnDisplay				
64	633.297	0.75	win-reward	OutcomeDisplay				
65	634.05		control-reward	ImageDisplay1		0.0		
65	636.306	0.75	control-reward	StartDisplay				
65	637.059		control-reward	ImageDisplay2		0.0		
65	640.051	1.6	control-reward	ChoiceDisplay		0.0		
65	641.656	0.0	control-reward	ChosenDisplay		0.0		
65	641.672	0.25	control-reward	TurnDisplay				
65	641.906	0.75	control-reward	OutcomeDisplay				
66	642.659		loss-noreward	ImageDisplay1		0.0		
66	644.648	0.75	loss-noreward	StartDisplay				
66	645.4		loss-noreward	ImageDisplay2		0.0		
66	648.66	1.6	loss-noreward	ChoiceDisplay	1	0.945	1	1
66	649.63	0.655	loss-noreward	ChosenDisplay		0.0		
66	650.265	0.25	loss-noreward	TurnDisplay				
66	650.515	0.75	loss-noreward	OutcomeDisplay				
67	651.268		win-noreward	ImageDisplay1		0.0		
67	653.508	0.75	win-noreward	StartDisplay				
67	654.26		win-noreward	ImageDisplay2		0.0		
67	657.269	1.6	win-noreward	ChoiceDisplay		0.0		
67	658.857	0.0	win-noreward	ChosenDisplay		0.0		
67	658.874	0.25	win-noreward	TurnDisplay				
67	659.108	0.75	win-noreward	OutcomeDisplay				
68	659.86		win-reward	ImageDisplay1		0.0		
68	661.866	0.75	win-reward	StartDisplay				
68	662.618		win-reward	ImageDisplay2		0.0		
68	665.861	1.6	win-reward	ChoiceDisplay		0.0		
68	667.466	0.0	win-reward	ChosenDisplay		0.0		
68	667.483	0.25	win-reward	TurnDisplay				
68	667.717	0.75	win-reward	OutcomeDisplay				
69	668.469		win-reward	ImageDisplay1		0.0		
69	670.458	0.75	win-reward	StartDisplay				
69	671.211		win-reward	ImageDisplay2		0.0		
69	674.47	1.6	win-reward	ChoiceDisplay		0.0		
69	676.058	0.0	win-reward	ChosenDisplay		0.0		
69	676.075	0.25	win-reward	TurnDisplay				
69	676.309	0.75	win-reward	OutcomeDisplay				
70	677.061		control-noreward	ImageDisplay1		0.0		
70	679.318	0.75	control-noreward	StartDisplay				
70	680.07		control-noreward	ImageDisplay2		0.0		
70	683.063	1.6	control-noreward	ChoiceDisplay	1	0.969	1	1
70	684.049	0.631	control-noreward	ChosenDisplay		0.0		
70	684.667	0.25	control-noreward	TurnDisplay				
70	684.918	0.75	control-noreward	OutcomeDisplay				
71	685.67		control-noreward	ImageDisplay1		0.0		
71	687.66	0.75	control-noreward	StartDisplay				
71	688.412		control-noreward	ImageDisplay2		0.0		
71	691.672	1.6	control-noreward	ChoiceDisplay	1	1.24	1	1
71	692.925	0.36	control-noreward	ChosenDisplay		0.0		
71	693.276	0.25	control-noreward	TurnDisplay				
71	693.527	0.75	control-noreward	OutcomeDisplay				
72	694.279		loss-noreward	ImageDisplay1		0.0		
72	696.519	0.75	loss-noreward	StartDisplay				
72	697.272		loss-noreward	ImageDisplay2		0.0		
72	700.281	1.6	loss-noreward	ChoiceDisplay	1	1.402	1	1
72	701.701	0.198	loss-noreward	ChosenDisplay		0.0		
72	701.885	0.25	loss-noreward	TurnDisplay				
72	702.136	0.75	loss-noreward	OutcomeDisplay				
73	702.888		loss-reward	ImageDisplay1		0.0		
73	704.878	0.75	loss-reward	StartDisplay				
73	705.63		loss-reward	ImageDisplay2		0.0		
73	708.89	1.6	loss-reward	ChoiceDisplay		0.0		
73	710.478	0.0	loss-reward	ChosenDisplay		0.0		
73	710.494	0.25	loss-reward	TurnDisplay				
73	710.728	0.75	loss-reward	OutcomeDisplay				
74	711.481		loss-reward	ImageDisplay1		0.0		
74	713.737	0.75	loss-reward	StartDisplay				
74	714.49		loss-reward	ImageDisplay2		0.0		
74	717.482	1.6	loss-reward	ChoiceDisplay	1	1.092	1	1
74	718.585	0.508	loss-reward	ChosenDisplay		0.0		
74	719.087	0.25	loss-reward	TurnDisplay				
74	719.337	0.75	loss-reward	OutcomeDisplay				
75	720.09		win-noreward	ImageDisplay1		0.0		
75	722.079	0.75	win-noreward	StartDisplay				
75	722.831		win-noreward	ImageDisplay2		0.0		
75	726.091	1.6	win-noreward	ChoiceDisplay		0.0		
75	727.679	0.0	win-noreward	ChosenDisplay		0.0		
75	727.696	0.25	win-noreward	TurnDisplay				
75	727.93	0.75	win-noreward	OutcomeDisplay				
76	728.682		control-noreward	ImageDisplay1		0.0		
76	730.688	0.75	control-noreward	StartDisplay				
76	731.44		control-noreward	ImageDisplay2		0.0		
76	734.683	1.6	control-noreward	ChoiceDisplay		0.0		
76	736.288	0.0	control-noreward	ChosenDisplay		0.0		
76	736.305	0.25	control-noreward	TurnDisplay				
76	736.539	0.75	control-noreward	OutcomeDisplay				
77	737.291		loss-reward	ImageDisplay1		0.0		
77	739.531	0.75	loss-reward	StartDisplay				
77	740.283		loss-reward	ImageDisplay2		0.0		
77	743.292	1.6	loss-reward	ChoiceDisplay		0.0		
77	744.88	0.0	loss-reward	ChosenDisplay		0.0		
77	744.897	0.25	loss-reward	TurnDisplay				
77	745.131	0.75	loss-reward	OutcomeDisplay				
78	745.883		loss-noreward	ImageDisplay1		0.0		
78	747.889	0.75	loss-noreward	StartDisplay				
78	748.641		loss-noreward	ImageDisplay2		0.0		
78	751.884	1.6	loss-noreward	ChoiceDisplay		0.0		
78	753.489	0.0	loss-noreward	ChosenDisplay		0.0		
78	753.506	0.25	loss-noreward	TurnDisplay				
78	753.74	0.75	loss-noreward	OutcomeDisplay				
79	754.492		win-reward	ImageDisplay1		0.0		
79	756.481	0.75	win-reward	StartDisplay				
79	757.234		win-reward	ImageDisplay2		0.0		
79	760.493	1.6	win-reward	ChoiceDisplay	1	1.369	1	1
79	761.881	0.231	win-reward	ChosenDisplay		0.0		
79	762.098	0.25	win-reward	TurnDisplay				
79	762.349	0.75	win-reward	OutcomeDisplay				
80	763.101		loss-reward	ImageDisplay1		0.0		
80	765.09	0.75	loss-reward	StartDisplay				
80	765.843		loss-reward	ImageDisplay2		0.0		
80	769.102	1.6	loss-reward	ChoiceDisplay	1	0.81	1	1
80	769.938	0.79	loss-reward	ChosenDisplay		0.0		
80	770.707	0.25	loss-reward	TurnDisplay				
80	770.958	0.75	loss-reward	OutcomeDisplay				
81	771.71		loss-noreward	ImageDisplay1		0.0		
81	773.95	0.75	loss-noreward	StartDisplay				
81	774.702		loss-noreward	ImageDisplay2		0.0		
81	777.711	1.6	loss-noreward	ChoiceDisplay		0.0		
81	779.299	0.0	loss-noreward	ChosenDisplay		0.0		
81	779.316	0.25	loss-noreward	TurnDisplay				
81	779.55	0.75	loss-noreward	OutcomeDisplay				
82	780.302		loss-noreward	ImageDisplay1		0.0		
82	782.559	0.75	loss-noreward	StartDisplay				
82	783.311		loss-noreward	ImageDisplay2		0.0		
82	786.304	1.6	loss-noreward	ChoiceDisplay	1	0.488	1	1
82	786.805	1.112	loss-noreward	ChosenDisplay		0.0		
82	787.908	0.25	loss-noreward	TurnDisplay				
82	788.159	0.75	loss-noreward	OutcomeDisplay				
83	788.911		control-reward	ImageDisplay1		0.0		
83	791.151	0.75	control-reward	StartDisplay				
83	791.904		control-reward	ImageDisplay2		0.0		
83	794.913	1.6	control-reward	ChoiceDisplay	1	1.499	1	1
83	796.434	0.0	control-reward	ChosenDisplay		0.0		
83	796.517	0.25	control-reward	TurnDisplay				
83	796.668	0.75	control-reward	OutcomeDisplay				
84	797.42		control-reward	ImageDisplay1		0.0		
84	799.409	0.75	control-reward	StartDisplay				
84	800.162		control-reward	ImageDisplay2		0.0		
84	803.421	1.6	control-reward	ChoiceDisplay		0.0		
84	805.009	0.0	control-reward	ChosenDisplay		0.0		
84	805.026	0.25	control-reward	TurnDisplay				
84	805.26	0.75	control-reward	OutcomeDisplay				
85	806.012		win-reward	ImageDisplay1		0.0		
85	808.269	0.75	win-reward	StartDisplay				
85	809.021		win-reward	ImageDisplay2		0.0		
85	812.014	1.6	win-reward	ChoiceDisplay	1	1.13	1	1
85	813.167	0.47	win-reward	ChosenDisplay		0.0		
85	813.618	0.25	win-reward	TurnDisplay				
85	813.869	0.75	win-reward	OutcomeDisplay				
86	814.621		control-noreward	ImageDisplay1		0.0		
86	816.861	0.75	control-noreward	StartDisplay				
86	817.614		control-noreward	ImageDisplay2		0.0		
86	820.623	1.6	control-noreward	ChoiceDisplay		0.0		
86	822.211	0.0	control-noreward	ChosenDisplay		0.0		
86	822.227	0.25	control-noreward	TurnDisplay				
86	822.461	0.75	control-noreward	OutcomeDisplay				
87	823.214		control-noreward	ImageDisplay1		0.0		
87	825.22	0.75	control-noreward	StartDisplay				
87	825.972		control-noreward	ImageDisplay2		0.0		
87	829.215	1.6	control-noreward	ChoiceDisplay		0.0		
87	830.82	0.0	control-noreward	ChosenDisplay		0.0		
87	830.836	0.25	control-noreward	TurnDisplay				
87	831.07	0.75	control-noreward	OutcomeDisplay				
88	831.823		loss-noreward	ImageDisplay1		0.0		
88	833.812	0.75	loss-noreward	StartDisplay				
88	834.564		loss-noreward	ImageDisplay2		0.0		
88	837.824	1.6	loss-noreward	ChoiceDisplay		0.0		
88	839.412	0.0	loss-noreward	ChosenDisplay		0.0		
88	839.429	0.25	loss-noreward	TurnDisplay				
88	839.663	0.75	loss-noreward	OutcomeDisplay				
89	840.415		win-noreward	ImageDisplay1		0.0		
89	842.421	0.75	win-noreward	StartDisplay				
89	843.173		win-noreward	ImageDisplay2		0.0		
89	846.416	1.6	win-noreward	ChoiceDisplay		0.0		
89	848.021	0.0	win-noreward	ChosenDisplay		0.0		
89	848.038	0.25	win-noreward	TurnDisplay				
89	848.272	0.75	win-noreward	OutcomeDisplay				
90	849.024		loss-reward	ImageDisplay1		0.0		
90	851.013	0.75	loss-reward	StartDisplay				
90	851.765		loss-reward	ImageDisplay2		0.0		
90	855.025	1.6	loss-reward	ChoiceDisplay	1	0.939	1	1
90	855.978	0.661	loss-reward	ChosenDisplay		0.0		
90	856.63	0.25	loss-reward	TurnDisplay				
90	856.881	0.75	loss-reward	OutcomeDisplay				
91	857.633		win-reward	ImageDisplay1		0.0		
91	859.873	0.75	win-reward	StartDisplay				
91	860.625		win-reward	ImageDisplay2		0.0		
91	863.634	1.6	win-reward	ChoiceDisplay		0.0		
91	865.222	0.0	win-reward	ChosenDisplay		0.0		
91	865.239	0.25	win-reward	TurnDisplay				
91	865.473	0.75	win-reward	OutcomeDisplay				
92	866.225		control-reward	ImageDisplay1		0.0		
92	868.231	0.75	control-reward	StartDisplay				
92	868.983		control-reward	ImageDisplay2		0.0		
92	872.226	1.6	control-reward	ChoiceDisplay		0.0		
92	873.831	0.0	control-reward	ChosenDisplay		0.0		
92	873.848	0.25	control-reward	TurnDisplay				
92	874.082	0.75	control-reward	OutcomeDisplay				
93	874.834		control-noreward	ImageDisplay1		0.0		
93	877.074	0.75	control-noreward	StartDisplay				
93	877.827		control-noreward	ImageDisplay2		0.0		
93	880.835	1.6	control-noreward	ChoiceDisplay		0.0		
93	882.424	0.0	control-noreward	ChosenDisplay		0.0		
93	882.44	0.25	control-noreward	TurnDisplay				
93	882.674	0.75	control-noreward	OutcomeDisplay				
94	883.427		loss-noreward	ImageDisplay1		0.0		
94	885.433	0.75	loss-noreward	StartDisplay				
94	886.185		loss-noreward	ImageDisplay2		0.0		
94	889.428	1.6	loss-noreward	ChoiceDisplay		0.0		
94	891.033	0.0	loss-noreward	ChosenDisplay		0.0		
94	891.049	0.25	loss-noreward	TurnDisplay				
94	891.283	0.75	loss-noreward	OutcomeDisplay				
95	892.036		win-reward	ImageDisplay1		0.0		
95	894.276	0.75	win-reward	StartDisplay				
95	895.028		win-reward	ImageDisplay2		0.0		
95	898.037	1.6	win-reward	ChoiceDisplay	1	1.026	1	1
95	899.073	0.574	win-reward	ChosenDisplay		0.0		
95	899.642	0.25	win-reward	TurnDisplay				
95	899.892	0.75	win-reward	OutcomeDisplay				
