onset	duration	trial_type	response_time	stim_file	accuracy
80.959	1.0	go	0.631	Go_O	1.0
83.533	1.0	go	0.45	Go_X	1.0
86.057	1.0	go	0.667	Go_O	1.0
88.582	1.0	go	0.525	Go_X	1.0
91.106	1.0	go	0.564	Go_X	1.0
93.63	1.0	go	0.4	Go_O	1.0
96.154	0.25	stopsuccess	0.0	Go_O	1.0
98.678	1.0	go	0.569	Go_X	1.0
101.203	0.3	stopsuccess	0.0	Go_X	1.0
103.727	1.0	go	0.45	Go_O	1.0
106.251	1.0	go	0.752	Go_X	1.0
108.775	1.0	go	0.564	Go_O	1.0
111.299	0.35	stopfail	0.451	Go_O	0.0
113.823	1.0	go	0.642	Go_X	1.0
116.348	1.0	go	0.302	Go_O	1.0
118.872	0.3	stopfail	0.444	Go_X	0.0
121.396	0.25	stopsuccess	0.0	Go_O	1.0
123.92	1.0	go	0.574	Go_X	1.0
126.444	1.0	go	0.606	Go_O	1.0
128.969	0.3	stopsuccess	0.0	Go_X	1.0
131.493	1.0	go	0.669	Go_X	1.0
134.017	1.0	go	0.365	Go_O	1.0
136.541	0.35	stopsuccess	0.0	Go_O	1.0
139.065	1.0	go	0.913	Go_O	1.0
141.59	1.0	go	0.346	Go_X	1.0
144.114	0.4	stopsuccess	0.0	Go_X	1.0
146.638	1.0	go	0.456	Go_O	1.0
149.162	1.0	go	0.586	Go_X	1.0
151.686	0.45	stopfail	0.565	Go_O	0.0
154.211	1.0	go	0.371	Go_O	1.0
156.735	1.0	go	0.713	Go_X	1.0
159.259	1.0	go	0.505	Go_O	1.0
161.783	1.0	go	0.33	Go_X	1.0
164.307	1.0	go	0.425	Go_X	1.0
166.832	0.4	stopfail	0.466	Go_X	0.0
169.356	1.0	go	0.445	Go_O	1.0
171.88	1.0	go	0.187	Go_X	1.0
174.404	1.0	go	0.363	Go_O	1.0
176.928	1.0	go	0.391	Go_X	1.0
179.452	1.0	go	0.393	Go_O	0.0
181.977	0.35	stopfail	0.334	Go_O	0.0
184.501	1.0	go	0.476	Go_O	1.0
187.025	1.0	go	0.343	Go_X	1.0
189.549	1.0	go	0.399	Go_O	1.0
192.073	1.0	go	0.44	Go_X	1.0
194.598	1.0	go	0.459	Go_O	1.0
197.122	1.0	go	0.352	Go_X	1.0
199.646	0.3	stopfail	0.441	Go_X	0.0
202.17	1.0	go	0.443	Go_X	1.0
204.694	1.0	go	0.542	Go_O	1.0
207.219	0.25	stopfail	0.332	Go_O	0.0
209.743	1.0	go	0.413	Go_X	1.0
212.267	0.2	stopfail	0.39	Go_X	0.0
214.791	0.15	stopfail	0.5	Go_O	0.0
217.315	1.0	go	0.546	Go_O	1.0
219.84	1.0	go	0.463	Go_X	1.0
222.364	1.0	go	0.669	Go_O	1.0
224.888	1.0	go	0.441	Go_X	1.0
227.412	0.1	stopsuccess	0.0	Go_X	1.0
229.936	1.0	go	0.483	Go_O	1.0
232.46	0.15	stopfail	0.401	Go_O	0.0
234.985	1.0	go	0.665	Go_O	1.0
237.509	1.0	go	0.499	Go_X	1.0
240.033	1.0	go	0.658	Go_X	1.0
242.557	1.0	go	0.425	Go_O	1.0
245.081	1.0	go	0.571	Go_O	1.0
247.606	1.0	go	0.486	Go_X	1.0
250.13	1.0	go	0.508	Go_O	1.0
252.654	1.0	go	0.535	Go_X	1.0
255.178	1.0	go	0.522	Go_O	1.0
257.702	0.1	stopsuccess	0.0	Go_X	1.0
260.227	1.0	go	0.486	Go_X	1.0
262.751	1.0	go	0.558	Go_X	1.0
265.275	1.0	go	0.471	Go_O	1.0
267.799	0.15	stopsuccess	0.0	Go_O	1.0
270.323	1.0	go	0.669	Go_X	0.0
272.848	1.0	go	0.427	Go_O	1.0
275.372	1.0	go	0.497	Go_O	1.0
277.896	1.0	go	0.45	Go_X	1.0
280.42	1.0	go	0.624	Go_O	1.0
282.944	1.0	go	0.491	Go_X	1.0
285.469	0.2	stopfail	0.467	Go_X	0.0
287.993	1.0	go	0.451	Go_O	1.0
290.517	1.0	go	0.601	Go_X	1.0
293.041	0.15	stopsuccess	0.0	Go_O	1.0
295.565	1.0	go	0.471	Go_X	0.0
298.089	1.0	go	0.561	Go_O	1.0
300.614	0.2	stopfail	0.482	Go_X	0.0
303.138	1.0	go	0.467	Go_O	1.0
305.662	0.15	stopsuccess	0.0	Go_O	1.0
308.186	1.0	go	0.411	Go_X	1.0
310.71	1.0	go	0.721	Go_O	1.0
313.235	1.0	go	0.0	Go_X	0.0
315.759	1.0	go	0.0	Go_X	0.0
318.283	1.0	go	0.399	Go_O	1.0
320.807	0.2	stopfail	0.306	Go_X	0.0
323.331	0.15	stopfail	0.421	Go_O	0.0
325.856	1.0	go	0.508	Go_X	1.0
328.38	1.0	go	0.345	Go_O	1.0
330.904	0.1	stopfail	0.731	Go_X	0.0
333.428	1.0	go	0.406	Go_O	1.0
335.952	1.0	go	0.457	Go_X	1.0
338.477	1.0	go	0.625	Go_X	1.0
341.001	1.0	go	0.463	Go_O	1.0
343.525	1.0	go	0.691	Go_X	1.0
346.049	1.0	go	0.715	Go_O	1.0
348.573	0.05	stopsuccess	0.0	Go_O	1.0
351.098	1.0	go	0.0	Go_X	0.0
353.622	1.0	go	0.495	Go_O	1.0
356.146	1.0	go	0.302	Go_X	1.0
358.67	1.0	go	0.295	Go_O	1.0
361.194	1.0	go	0.5	Go_X	1.0
363.718	0.1	stopsuccess	0.0	Go_X	1.0
366.243	1.0	go	0.488	Go_O	1.0
368.767	1.0	go	0.741	Go_X	1.0
371.291	1.0	go	0.307	Go_O	1.0
373.815	1.0	go	0.336	Go_X	1.0
376.339	0.15	stopsuccess	0.0	Go_O	1.0
378.864	1.0	go	0.68	Go_O	1.0
381.388	1.0	go	0.477	Go_X	1.0
383.912	0.2	stopsuccess	0.0	Go_X	1.0
386.436	1.0	go	0.756	Go_O	1.0
388.96	0.25	stopsuccess	0.0	Go_O	1.0
391.485	1.0	go	0.437	Go_X	1.0
394.009	1.0	go	0.781	Go_O	1.0
396.533	1.0	go	0.0	Go_O	0.0
399.057	1.0	go	0.703	Go_X	1.0
401.581	1.0	go	0.489	Go_O	1.0
404.106	1.0	go	0.381	Go_X	1.0
406.63	1.0	go	0.77	Go_X	1.0
409.154	0.3	stopsuccess	0.0	Go_X	1.0
411.678	1.0	go	0.413	Go_O	1.0
414.202	1.0	go	0.468	Go_O	1.0
416.727	1.0	go	0.416	Go_X	1.0
419.251	0.35	stopfail	0.406	Go_O	0.0
421.775	1.0	go	0.381	Go_X	1.0
424.299	1.0	go	0.37	Go_O	1.0
426.823	1.0	go	0.404	Go_X	1.0
429.347	1.0	go	0.686	Go_O	1.0
431.872	0.3	stopfail	0.477	Go_X	0.0
434.396	1.0	go	0.549	Go_O	1.0
436.92	1.0	go	0.575	Go_X	1.0
439.444	0.25	stopsuccess	0.0	Go_O	1.0
441.968	1.0	go	0.802	Go_X	1.0
444.493	1.0	go	0.391	Go_O	1.0
447.017	0.3	stopfail	0.341	Go_X	0.0
449.541	1.0	go	0.0	Go_O	0.0
452.065	1.0	go	0.0	Go_X	0.0
454.589	0.25	stopsuccess	0.0	Go_O	1.0
457.114	1.0	go	0.336	Go_X	1.0
459.638	1.0	go	0.302	Go_O	1.0
462.162	1.0	go	0.426	Go_O	1.0
464.686	1.0	go	0.301	Go_X	1.0
467.21	1.0	go	0.268	Go_O	1.0
469.735	1.0	go	0.271	Go_X	1.0
472.259	0.3	stopfail	0.651	Go_X	0.0
474.783	1.0	go	0.435	Go_X	1.0
477.307	0.25	stopfail	0.258	Go_O	0.0
479.831	1.0	go	0.388	Go_O	1.0
482.356	1.0	go	0.698	Go_O	1.0
484.88	1.0	go	0.402	Go_X	1.0
487.404	1.0	go	0.669	Go_O	1.0
489.928	1.0	go	0.559	Go_X	1.0
492.452	0.2	stopsuccess	0.0	Go_X	1.0
494.976	1.0	go	0.746	Go_X	1.0
497.501	1.0	go	0.841	Go_O	1.0
500.025	1.0	go	0.572	Go_O	1.0
502.549	0.25	stopsuccess	0.0	Go_O	1.0
505.073	0.3	stopfail	0.563	Go_X	0.0
507.597	0.25	stopfail	0.565	Go_O	0.0
510.122	1.0	go	0.838	Go_X	0.0
512.646	0.2	stopfail	0.481	Go_X	0.0
515.17	1.0	go	0.0	Go_X	0.0
517.694	1.0	go	0.0	Go_O	0.0
520.218	1.0	go	0.403	Go_O	1.0
522.743	1.0	go	0.352	Go_X	1.0
525.267	1.0	go	0.325	Go_X	0.0
527.791	1.0	go	0.307	Go_O	1.0
530.315	1.0	go	0.585	Go_X	1.0
532.839	1.0	go	0.49	Go_O	1.0
535.364	0.15	stopsuccess	0.0	Go_O	1.0
537.888	1.0	go	0.477	Go_X	1.0
540.412	1.0	go	0.537	Go_O	1.0
542.936	0.2	stopsuccess	0.0	Go_X	1.0
545.46	1.0	go	0.826	Go_X	0.0
547.985	1.0	go	0.558	Go_O	1.0
550.509	1.0	go	0.0	Go_O	0.0
553.033	1.0	go	0.473	Go_X	1.0
555.557	1.0	go	0.691	Go_X	1.0
558.081	0.25	stopsuccess	0.0	Go_O	1.0
560.605	1.0	go	0.313	Go_O	1.0
563.13	1.0	go	0.866	Go_O	1.0
565.654	1.0	go	0.439	Go_X	1.0
568.178	0.3	stopsuccess	0.0	Go_X	1.0
570.702	1.0	go	0.997	Go_X	1.0
573.226	0.35	stopfail	0.505	Go_O	0.0
575.751	1.0	go	0.0	Go_O	0.0
578.275	1.0	go	0.0	Go_X	0.0
580.799	1.0	go	0.724	Go_O	1.0
583.323	1.0	go	0.38	Go_X	1.0
585.847	1.0	go	0.357	Go_O	1.0
588.372	1.0	go	0.0	Go_X	0.0
590.896	1.0	go	0.0	Go_O	0.0
593.42	0.3	stopsuccess	0.0	Go_X	1.0
595.944	1.0	go	0.344	Go_O	1.0
598.468	1.0	go	0.604	Go_X	1.0
600.993	1.0	go	0.969	Go_O	1.0
603.517	1.0	go	0.62	Go_X	1.0
606.041	0.35	stopsuccess	0.0	Go_O	1.0
608.565	1.0	go	0.0	Go_X	0.0
611.089	0.4	stopfail	0.433	Go_X	0.0
613.614	1.0	go	0.0	Go_O	0.0
616.138	1.0	go	0.0	Go_O	0.0
618.662	0.35	stopsuccess	0.0	Go_O	1.0
621.186	1.0	go	0.0	Go_X	0.0
623.71	1.0	go	0.0	Go_O	0.0
626.234	1.0	go	0.504	Go_X	1.0
628.759	1.0	go	0.0	Go_X	0.0
631.283	1.0	go	0.464	Go_O	1.0
633.807	1.0	go	0.469	Go_X	1.0
636.331	1.0	go	0.0	Go_O	0.0
638.855	1.0	go	0.0	Go_O	0.0
641.38	1.0	go	0.519	Go_X	1.0
643.904	1.0	go	0.547	Go_X	1.0
646.428	0.4	stopfail	0.536	Go_X	0.0
648.952	1.0	go	0.0	Go_O	0.0
651.476	1.0	go	0.0	Go_X	0.0
654.001	0.35	stopsuccess	0.0	Go_O	1.0
656.525	1.0	go	0.634	Go_O	1.0
659.049	0.4	stopfail	0.505	Go_X	0.0
661.573	1.0	go	0.687	Go_X	1.0
664.097	1.0	go	0.0	Go_O	0.0
666.622	0.35	stopsuccess	0.0	Go_O	1.0
669.146	1.0	go	0.0	Go_O	0.0
671.67	0.4	stopsuccess	0.0	Go_X	1.0
674.194	1.0	go	0.428	Go_X	1.0
676.718	1.0	go	0.381	Go_O	1.0
679.243	1.0	go	0.0	Go_X	0.0
681.767	0.45	stopfail	0.632	Go_O	0.0
684.291	1.0	go	0.0	Go_X	0.0
686.815	1.0	go	0.0	Go_O	0.0
689.339	1.0	go	0.0	Go_O	0.0
691.863	1.0	go	0.0	Go_X	0.0
694.388	0.4	stopsuccess	0.0	Go_X	1.0
696.912	1.0	go	0.0	Go_X	0.0
699.436	1.0	go	0.0	Go_O	0.0
701.96	0.45	stopfail	0.383	Go_O	0.0
704.484	1.0	go	0.591	Go_O	1.0
707.009	1.0	go	0.778	Go_X	1.0
709.533	1.0	go	0.0	Go_O	0.0
712.057	1.0	go	0.0	Go_X	0.0
714.581	0.4	stopsuccess	0.0	Go_X	1.0
717.105	1.0	go	0.0	Go_O	0.0
719.63	0.45	stopfail	0.497	Go_O	0.0
722.154	1.0	go	0.917	Go_X	1.0
724.678	1.0	go	0.0	Go_O	0.0
727.202	0.4	stopsuccess	0.0	Go_X	1.0
729.726	1.0	go	0.0	Go_X	0.0
732.251	1.0	go	0.0	Go_O	0.0
734.775	1.0	go	0.0	Go_X	0.0
737.299	1.0	go	0.0	Go_X	0.0
739.823	0.45	stopsuccess	0.0	Go_O	1.0
742.347	1.0	go	0.0	Go_O	0.0
744.872	0.5	stopsuccess	0.0	Go_X	1.0
747.396	1.0	go	0.0	Go_O	0.0
749.92	1.0	go	0.0	Go_X	0.0
752.444	1.0	go	0.594	Go_X	1.0
754.968	1.0	go	0.5	Go_O	1.0
757.492	1.0	go	0.67	Go_X	1.0
760.017	1.0	go	0.43	Go_O	1.0
762.541	0.55	stopsuccess	0.0	Go_O	1.0
765.065	1.0	go	0.0	Go_O	0.0
767.589	1.0	go	0.0	Go_X	0.0
770.113	0.6	stopsuccess	0.0	Go_X	1.0
772.638	1.0	go	0.0	Go_X	0.0
775.162	1.0	go	0.917	Go_O	1.0
777.686	0.65	stopsuccess	0.0	Go_O	1.0
780.21	1.0	go	0.0	Go_O	0.0
782.734	1.0	go	0.0	Go_X	0.0
785.259	1.0	go	0.0	Go_X	0.0
787.783	1.0	go	0.0	Go_O	0.0
790.307	0.7	stopfail	0.419	Go_X	0.0
792.831	1.0	go	0.0	Go_O	0.0
795.355	0.65	stopsuccess	0.0	Go_O	1.0
797.88	1.0	go	0.0	Go_X	0.0
800.404	1.0	go	0.0	Go_X	0.0
802.928	1.0	go	0.0	Go_O	0.0
805.452	1.0	go	0.0	Go_X	0.0
807.976	1.0	go	0.0	Go_O	0.0
810.501	0.7	stopsuccess	0.0	Go_X	1.0
813.025	1.0	go	0.0	Go_O	0.0
815.549	1.0	go	0.377	Go_X	1.0
818.073	0.75	stopfail	0.318	Go_O	0.0
820.597	0.7	stopfail	0.668	Go_X	0.0
823.121	1.0	go	0.0	Go_O	0.0
825.646	1.0	go	0.0	Go_X	0.0
828.17	1.0	go	0.0	Go_O	0.0
830.694	1.0	go	0.0	Go_X	0.0
833.218	0.65	stopfail	0.535	Go_O	0.0
835.742	1.0	go	0.0	Go_X	0.0
