onset	duration	trial_type	response_time	stim_file	accuracy
258.432	1.0	go	0.945	Go_O	1.0
261.006	1.0	go	0.485	Go_X	1.0
263.53	1.0	go	0.0	Go_O	0.0
266.055	1.0	go	0.319	Go_X	1.0
268.579	1.0	go	0.43	Go_O	1.0
271.103	1.0	go	0.288	Go_X	1.0
273.627	0.25	stopfail	0.397	Go_O	0.0
276.151	1.0	go	0.348	Go_O	1.0
278.675	0.2	stopfail	0.283	Go_X	0.0
281.216	1.0	go	0.461	Go_X	1.0
283.74	1.0	go	0.442	Go_X	1.0
286.265	1.0	go	0.444	Go_O	1.0
288.789	0.15	stopsuccess	0.0	Go_O	1.0
291.313	1.0	go	0.311	Go_O	1.0
293.837	1.0	go	0.508	Go_X	1.0
296.361	0.2	stopfail	0.404	Go_X	0.0
298.885	0.15	stopsuccess	0.0	Go_O	1.0
301.409	1.0	go	0.347	Go_X	1.0
303.934	1.0	go	0.605	Go_O	1.0
306.458	0.2	stopfail	0.327	Go_X	0.0
308.982	1.0	go	0.412	Go_X	1.0
311.506	1.0	go	0.528	Go_O	1.0
314.03	0.15	stopfail	0.369	Go_O	0.0
316.554	1.0	go	0.41	Go_O	1.0
319.079	1.0	go	0.569	Go_X	1.0
321.603	0.1	stopsuccess	0.0	Go_X	1.0
324.127	1.0	go	0.0	Go_O	0.0
326.651	1.0	go	0.309	Go_X	0.0
329.175	0.15	stopsuccess	0.0	Go_O	1.0
331.699	1.0	go	0.513	Go_X	1.0
334.224	1.0	go	0.0	Go_O	0.0
336.748	1.0	go	0.0	Go_X	0.0
339.274	1.0	go	0.599	Go_O	1.0
341.796	1.0	go	0.0	Go_O	0.0
344.32	0.2	stopsuccess	0.0	Go_X	1.0
346.844	1.0	go	0.635	Go_X	1.0
349.369	1.0	go	0.65	Go_X	1.0
351.893	1.0	go	0.543	Go_O	0.0
354.417	1.0	go	0.388	Go_X	1.0
356.941	1.0	go	0.45	Go_O	1.0
359.465	0.25	stopsuccess	0.0	Go_O	1.0
361.989	1.0	go	0.454	Go_O	1.0
364.514	1.0	go	0.0	Go_X	0.0
367.038	1.0	go	0.279	Go_X	1.0
369.562	1.0	go	0.0	Go_O	0.0
372.086	1.0	go	0.944	Go_O	0.0
374.61	1.0	go	0.388	Go_X	1.0
377.134	0.3	stopsuccess	0.0	Go_X	1.0
379.658	1.0	go	0.44	Go_O	1.0
382.183	1.0	go	0.483	Go_X	1.0
384.707	0.35	stopfail	0.486	Go_O	0.0
387.231	1.0	go	0.511	Go_X	1.0
389.756	0.3	stopfail	0.53	Go_X	0.0
392.279	0.25	stopsuccess	0.0	Go_O	1.0
394.803	1.0	go	0.313	Go_O	1.0
397.328	1.0	go	0.561	Go_O	1.0
399.852	1.0	go	0.407	Go_X	1.0
402.376	1.0	go	0.427	Go_O	1.0
404.9	0.3	stopsuccess	0.0	Go_X	1.0
407.424	1.0	go	0.525	Go_X	1.0
409.948	0.35	stopfail	0.425	Go_O	0.0
412.473	1.0	go	0.406	Go_O	1.0
414.997	1.0	go	0.203	Go_X	1.0
417.521	1.0	go	0.398	Go_O	1.0
420.045	1.0	go	0.297	Go_X	1.0
422.569	1.0	go	0.225	Go_O	1.0
425.093	1.0	go	0.609	Go_X	1.0
427.618	1.0	go	0.23	Go_X	0.0
430.142	1.0	go	0.234	Go_O	1.0
432.666	1.0	go	0.359	Go_O	1.0
435.19	0.3	stopfail	0.394	Go_X	0.0
437.714	1.0	go	0.421	Go_X	1.0
440.238	1.0	go	0.154	Go_X	0.0
442.762	1.0	go	0.455	Go_O	1.0
445.287	0.25	stopfail	0.362	Go_O	0.0
447.811	1.0	go	0.822	Go_X	0.0
450.335	1.0	go	0.274	Go_O	0.0
452.859	1.0	go	0.718	Go_X	0.0
455.383	1.0	go	0.432	Go_O	1.0
457.907	1.0	go	0.477	Go_O	1.0
460.432	1.0	go	0.285	Go_X	1.0
462.956	0.2	stopfail	0.551	Go_X	0.0
465.48	1.0	go	0.797	Go_O	1.0
468.004	1.0	go	0.0	Go_X	0.0
470.528	0.15	stopsuccess	0.0	Go_O	1.0
473.069	1.0	go	0.619	Go_X	0.0
475.593	1.0	go	0.31	Go_O	1.0
478.117	0.2	stopsuccess	0.0	Go_X	1.0
480.642	1.0	go	0.364	Go_X	1.0
483.166	0.25	stopsuccess	0.0	Go_O	1.0
485.69	1.0	go	0.486	Go_O	1.0
488.214	1.0	go	0.586	Go_O	1.0
490.738	1.0	go	0.316	Go_X	0.0
493.262	1.0	go	0.501	Go_O	1.0
495.787	1.0	go	0.541	Go_X	1.0
498.311	0.3	stopsuccess	0.0	Go_X	1.0
500.835	0.35	stopsuccess	0.0	Go_O	1.0
503.359	1.0	go	0.301	Go_X	0.0
505.883	1.0	go	0.483	Go_O	1.0
508.407	0.4	stopfail	0.508	Go_X	0.0
510.932	1.0	go	0.476	Go_O	1.0
513.472	1.0	go	0.205	Go_X	1.0
515.997	1.0	go	0.198	Go_O	1.0
518.521	1.0	go	0.252	Go_X	1.0
521.045	1.0	go	0.47	Go_X	1.0
523.569	1.0	go	0.207	Go_O	1.0
526.093	0.35	stopsuccess	0.0	Go_O	1.0
528.617	1.0	go	0.449	Go_O	1.0
531.142	1.0	go	0.733	Go_X	1.0
533.666	1.0	go	0.722	Go_X	1.0
536.19	1.0	go	0.77	Go_O	0.0
538.714	1.0	go	0.0	Go_X	0.0
541.238	0.4	stopsuccess	0.0	Go_X	1.0
543.762	1.0	go	0.0	Go_O	0.0
546.287	1.0	go	0.0	Go_O	0.0
548.811	1.0	go	0.385	Go_X	0.0
551.335	1.0	go	0.0	Go_O	0.0
553.859	0.45	stopfail	0.177	Go_O	0.0
556.383	1.0	go	0.0	Go_X	0.0
558.907	1.0	go	0.0	Go_O	0.0
561.431	0.4	stopfail	0.153	Go_X	0.0
563.956	1.0	go	0.0	Go_X	0.0
566.48	0.35	stopfail	0.443	Go_O	0.0
569.004	1.0	go	0.0	Go_X	0.0
571.528	1.0	go	0.0	Go_O	0.0
574.052	1.0	go	0.0	Go_O	0.0
576.576	1.0	go	0.0	Go_X	0.0
579.101	1.0	go	0.0	Go_X	0.0
581.625	1.0	go	0.0	Go_O	0.0
584.149	1.0	go	0.0	Go_X	0.0
586.673	0.3	stopsuccess	0.0	Go_X	1.0
589.197	1.0	go	0.0	Go_O	0.0
591.721	1.0	go	0.0	Go_O	0.0
594.246	1.0	go	0.0	Go_X	0.0
596.77	0.35	stopsuccess	0.0	Go_O	1.0
599.294	1.0	go	0.0	Go_O	0.0
601.818	1.0	go	0.0	Go_X	0.0
604.342	1.0	go	0.0	Go_X	0.0
606.866	1.0	go	0.0	Go_O	0.0
609.391	0.4	stopsuccess	0.0	Go_X	1.0
611.915	1.0	go	0.0	Go_O	0.0
614.439	1.0	go	0.0	Go_X	0.0
616.963	0.45	stopsuccess	0.0	Go_O	1.0
619.487	1.0	go	0.0	Go_O	0.0
622.011	1.0	go	0.0	Go_X	0.0
624.536	0.5	stopsuccess	0.0	Go_X	1.0
627.06	1.0	go	0.0	Go_O	0.0
629.584	1.0	go	0.0	Go_X	0.0
632.108	0.55	stopsuccess	0.0	Go_O	1.0
634.632	1.0	go	0.0	Go_X	0.0
637.156	1.0	go	0.0	Go_O	0.0
639.68	1.0	go	0.0	Go_O	0.0
642.205	1.0	go	0.0	Go_X	0.0
644.729	1.0	go	0.0	Go_X	0.0
647.253	1.0	go	0.0	Go_O	0.0
649.777	0.6	stopsuccess	0.0	Go_X	1.0
652.301	1.0	go	0.0	Go_O	0.0
654.825	0.65	stopsuccess	0.0	Go_O	1.0
657.35	1.0	go	0.0	Go_X	0.0
659.874	1.0	go	0.0	Go_O	0.0
662.398	1.0	go	0.0	Go_X	0.0
664.922	1.0	go	0.0	Go_X	0.0
667.446	1.0	go	0.0	Go_O	0.0
669.97	0.7	stopsuccess	0.0	Go_X	1.0
672.495	1.0	go	0.0	Go_O	0.0
675.019	1.0	go	0.0	Go_X	0.0
677.543	1.0	go	0.0	Go_X	0.0
680.067	0.75	stopsuccess	0.0	Go_O	1.0
682.591	0.8	stopsuccess	0.0	Go_X	1.0
685.115	0.85	stopsuccess	0.0	Go_O	1.0
687.64	1.0	go	0.0	Go_O	0.0
690.164	0.9	stopsuccess	0.0	Go_X	1.0
692.688	1.0	go	0.0	Go_X	0.0
695.212	1.0	go	0.0	Go_O	0.0
697.736	1.0	go	0.0	Go_O	0.0
700.26	1.0	go	0.0	Go_X	0.0
702.801	1.0	go	0.0	Go_O	0.0
705.325	1.0	go	0.0	Go_X	0.0
707.85	1.0	go	0.0	Go_O	0.0
710.374	1.0	go	0.0	Go_X	0.0
712.898	0.95	stopsuccess	0.0	Go_O	1.0
715.422	1.0	go	0.0	Go_O	0.0
717.946	1.0	go	0.0	Go_X	0.0
720.47	1.0	stopsuccess	0.0	Go_X	1.0
723.011	1.0	go	0.0	Go_O	0.0
725.535	1.0	go	0.0	Go_X	0.0
728.06	1.0	go	0.0	Go_O	0.0
730.584	1.0	go	0.0	Go_X	0.0
733.108	1.0	go	0.0	Go_X	0.0
735.632	1.05	stopsuccess	0.0	Go_O	1.0
738.223	1.0	go	0.0	Go_O	0.0
740.747	1.0	go	0.0	Go_O	0.0
743.271	1.0	go	0.0	Go_X	0.0
745.796	1.1	stopsuccess	0.0	Go_X	1.0
748.437	1.0	go	0.0	Go_X	0.0
750.961	1.15	stopsuccess	0.0	Go_O	1.0
753.652	1.0	go	0.0	Go_O	0.0
756.176	1.0	go	0.0	Go_X	0.0
758.701	1.0	go	0.0	Go_O	0.0
761.225	1.0	go	0.0	Go_X	0.0
763.749	1.0	go	0.0	Go_O	0.0
766.273	1.0	go	0.0	Go_X	0.0
768.797	1.0	go	0.0	Go_O	0.0
771.321	1.2	stopsuccess	0.0	Go_X	1.0
774.063	1.0	go	0.0	Go_O	0.0
776.587	1.0	go	0.0	Go_X	0.0
779.111	1.0	go	0.0	Go_O	0.0
781.635	1.0	go	0.0	Go_X	0.0
784.159	1.25	stopsuccess	0.0	Go_O	1.0
786.951	1.0	go	0.0	Go_X	0.0
789.475	1.3	stopsuccess	0.0	Go_X	1.0
792.317	1.0	go	0.0	Go_O	0.0
794.841	1.0	go	0.0	Go_X	0.0
797.365	1.35	stopsuccess	0.0	Go_O	1.0
800.257	1.0	go	0.0	Go_O	0.0
802.781	1.0	go	0.0	Go_O	0.0
805.306	1.0	go	0.0	Go_X	0.0
807.83	1.0	go	0.0	Go_O	0.0
810.354	1.0	go	0.0	Go_X	0.0
812.878	1.0	go	0.0	Go_O	0.0
815.402	1.0	go	0.0	Go_X	0.0
817.926	1.0	go	0.0	Go_O	0.0
820.451	1.0	go	0.0	Go_X	0.0
822.975	1.0	go	0.0	Go_X	0.0
825.499	1.4	stopsuccess	0.0	Go_X	1.0
828.441	1.0	go	0.0	Go_O	0.0
830.965	1.0	go	0.0	Go_O	0.0
833.489	1.45	stopsuccess	0.0	Go_O	1.0
836.481	1.0	go	0.0	Go_X	0.0
839.006	1.5	stopsuccess	0.0	Go_X	1.0
842.048	1.0	go	0.0	Go_O	0.0
844.572	1.0	go	0.0	Go_X	0.0
847.096	1.55	stopsuccess	0.0	Go_O	1.0
850.189	1.0	go	0.0	Go_X	0.0
852.713	1.6	stopsuccess	0.0	Go_X	1.0
855.858	1.0	go	0.0	Go_O	0.0
858.38	1.0	go	0.0	Go_O	0.0
860.904	1.0	go	0.0	Go_X	0.0
863.428	1.65	stopsuccess	0.0	Go_O	1.0
866.621	1.0	go	0.0	Go_O	0.0
869.145	1.0	go	0.0	Go_X	0.0
871.669	1.0	go	0.0	Go_O	0.0
874.193	1.0	go	0.0	Go_X	0.0
876.718	1.7	stopsuccess	0.0	Go_X	1.0
879.961	1.0	go	0.0	Go_X	0.0
882.485	1.0	go	0.0	Go_O	0.0
885.009	1.75	stopsuccess	0.0	Go_O	1.0
888.302	1.0	go	0.0	Go_X	0.0
890.826	1.0	go	0.0	Go_O	0.0
893.35	1.0	go	0.0	Go_X	0.0
895.891	1.0	go	0.0	Go_O	0.0
898.415	1.8	stopsuccess	0.0	Go_X	1.0
901.759	1.0	go	0.0	Go_O	0.0
904.283	1.85	stopsuccess	0.0	Go_O	1.0
907.676	1.0	go	0.0	Go_X	0.0
910.2	1.0	go	0.0	Go_X	0.0
912.724	1.9	stopsuccess	0.0	Go_X	1.0
916.168	1.0	go	0.0	Go_O	0.0
918.692	1.0	go	0.0	Go_X	0.0
921.216	1.0	go	0.0	Go_O	0.0
923.741	1.0	go	0.0	Go_O	0.0
926.265	1.95	stopsuccess	0.0	Go_O	1.0
929.758	1.0	go	0.0	Go_X	0.0
932.283	2.0	stopsuccess	0.0	Go_X	1.0
935.826	1.0	go	0.0	Go_O	0.0
938.351	1.0	go	0.0	Go_X	0.0
940.875	1.0	go	0.0	Go_X	0.0
943.399	1.0	go	0.0	Go_O	0.0
945.923	1.0	go	0.0	Go_X	0.0
948.447	1.0	go	0.0	Go_O	0.0
950.971	2.05	stopsuccess	0.0	Go_O	1.0
954.565	1.0	go	0.0	Go_O	0.0
957.09	1.0	go	0.0	Go_X	0.0
959.614	2.1	stopsuccess	0.0	Go_X	1.0
963.258	1.0	go	0.0	Go_O	0.0
965.782	1.0	go	0.0	Go_X	0.0
968.306	2.15	stopsuccess	0.0	Go_O	1.0
972.0	1.0	go	0.0	Go_O	0.0
974.525	1.0	go	0.0	Go_X	0.0
977.049	1.0	go	0.0	Go_X	0.0
979.573	1.0	go	0.0	Go_O	0.0
982.097	2.2	stopsuccess	0.0	Go_X	1.0
985.842	1.0	go	0.0	Go_O	0.0
988.366	2.25	stopsuccess	0.0	Go_O	1.0
992.16	1.0	go	0.0	Go_X	0.0
994.684	1.0	go	0.0	Go_X	0.0
997.209	1.0	go	0.0	Go_O	0.0
999.733	1.0	go	0.0	Go_X	0.0
1002.257	1.0	go	0.0	Go_O	0.0
1004.781	2.3	stopsuccess	0.0	Go_X	1.0
1008.626	1.0	go	0.0	Go_O	0.0
1011.15	1.0	go	0.0	Go_X	0.0
1013.674	2.35	stopsuccess	0.0	Go_O	1.0
1017.569	2.4	stopsuccess	0.0	Go_X	1.0
1021.514	1.0	go	0.0	Go_X	0.0
1024.038	1.0	go	0.0	Go_O	0.0
1026.562	1.0	go	0.0	Go_X	0.0
1029.087	1.0	go	0.0	Go_O	0.0
1031.611	2.45	stopsuccess	0.0	Go_O	1.0
1035.606	1.0	go	0.0	Go_O	0.0
