onset	duration	trial_type	response_time	stim_file	accuracy
0.5819999999999936	1.0	go	0.921	Go_X	1.0
3.147999999999996	1.0	go	0.429	Go_O	1.0
5.682000000000016	1.0	go	0.336	Go_X	1.0
8.215000000000003	1.0	go	0.328	Go_O	1.0
10.74799999999999	1.0	go	0.236	Go_O	1.0
13.281000000000006	1.0	go	0.304	Go_X	1.0
15.814999999999998	0.25	stopfail	0.256	Go_O	0.0
18.348000000000013	1.0	go	0.338	Go_X	1.0
20.881	0.2	stopfail	0.344	Go_X	0.0
23.414000000000016	1.0	go	0.418	Go_O	1.0
25.948000000000008	1.0	go	0.332	Go_X	1.0
28.480999999999995	1.0	go	0.482	Go_O	1.0
31.01399999999998	0.15	stopsuccess	0.0	Go_O	1.0
33.54800000000003	1.0	go	0.341	Go_X	1.0
36.08099999999999	1.0	go	0.329	Go_O	1.0
38.614000000000004	0.2	stopfail	0.351	Go_X	0.0
41.14700000000002	0.15	stopfail	0.345	Go_O	0.0
43.68100000000001	1.0	go	0.519	Go_X	1.0
46.21400000000003	1.0	go	0.361	Go_O	1.0
48.746999999999986	0.1	stopsuccess	0.0	Go_X	1.0
51.28	1.0	go	0.289	Go_X	1.0
53.81399999999999	1.0	go	0.34	Go_O	1.0
56.34700000000001	0.15	stopfail	0.487	Go_O	0.0
58.880000000000024	1.0	go	0.437	Go_O	1.0
61.414000000000016	1.0	go	0.363	Go_X	1.0
63.94700000000003	0.1	stopsuccess	0.0	Go_X	1.0
66.47999999999999	1.0	go	0.336	Go_X	1.0
69.013	1.0	go	0.379	Go_O	1.0
71.547	0.15	stopsuccess	0.0	Go_O	1.0
74.08000000000001	1.0	go	0.307	Go_X	1.0
76.61300000000003	1.0	go	0.296	Go_O	1.0
79.14700000000002	1.0	go	0.362	Go_X	1.0
81.696	1.0	go	0.33	Go_O	1.0
84.22999999999999	1.0	go	0.483	Go_O	1.0
86.763	0.2	stopfail	0.377	Go_X	0.0
89.29600000000002	1.0	go	0.334	Go_X	1.0
91.83000000000001	1.0	go	0.387	Go_O	1.0
94.36300000000003	1.0	go	0.377	Go_X	1.0
96.89599999999999	1.0	go	0.4	Go_O	1.0
99.429	1.0	go	0.295	Go_X	1.0
101.963	0.15	stopfail	0.461	Go_O	0.0
104.49600000000001	1.0	go	0.7	Go_O	1.0
107.02900000000002	1.0	go	0.341	Go_X	1.0
109.56199999999998	1.0	go	0.447	Go_O	1.0
112.09600000000003	1.0	go	0.337	Go_X	1.0
114.62899999999999	1.0	go	0.475	Go_O	1.0
117.162	1.0	go	0.347	Go_X	1.0
119.696	0.1	stopsuccess	0.0	Go_X	1.0
122.22900000000001	1.0	go	0.347	Go_O	1.0
124.76200000000003	1.0	go	0.377	Go_X	1.0
127.29499999999999	0.15	stopfail	0.442	Go_O	0.0
129.82899999999998	1.0	go	0.351	Go_O	1.0
132.362	0.1	stopsuccess	0.0	Go_X	1.0
134.895	0.15	stopfail	0.466	Go_O	0.0
137.42800000000003	1.0	go	0.421	Go_X	1.0
139.96200000000002	1.0	go	0.381	Go_O	1.0
142.49499999999998	1.0	go	0.327	Go_X	1.0
145.028	1.0	go	0.36	Go_X	1.0
147.56199999999998	0.1	stopsuccess	0.0	Go_X	1.0
150.095	1.0	go	0.4	Go_O	1.0
152.62800000000001	0.15	stopsuccess	0.0	Go_O	1.0
155.16100000000003	1.0	go	0.352	Go_X	1.0
157.69500000000002	1.0	go	0.45	Go_O	1.0
160.22799999999998	1.0	go	0.622	Go_O	1.0
162.761	1.0	go	0.312	Go_X	1.0
165.294	1.0	go	0.345	Go_O	1.0
167.828	1.0	go	0.356	Go_X	1.0
170.36100000000002	1.0	go	0.365	Go_O	1.0
172.89399999999998	1.0	go	0.368	Go_X	1.0
175.42800000000003	1.0	go	0.397	Go_X	1.0
177.96099999999998	0.2	stopfail	0.366	Go_X	0.0
180.494	1.0	go	0.414	Go_O	1.0
183.02700000000002	1.0	go	0.278	Go_X	1.0
185.561	1.0	go	0.317	Go_O	1.0
188.09400000000002	0.15	stopfail	0.374	Go_O	0.0
190.62699999999998	1.0	go	0.526	Go_O	1.0
193.16100000000003	1.0	go	0.39	Go_X	1.0
195.71	1.0	go	0.354	Go_X	1.0
198.244	1.0	go	0.329	Go_O	1.0
200.77700000000002	1.0	go	0.449	Go_O	1.0
203.31000000000003	1.0	go	0.34	Go_X	1.0
205.84400000000002	0.1	stopsuccess	0.0	Go_X	1.0
208.37699999999998	1.0	go	0.333	Go_O	1.0
210.91	1.0	go	0.359	Go_X	1.0
213.443	0.15	stopsuccess	0.0	Go_O	1.0
215.977	1.0	go	0.365	Go_O	1.0
218.51000000000002	1.0	go	0.438	Go_X	1.0
221.04299999999998	0.2	stopfail	0.351	Go_X	0.0
223.576	1.0	go	0.428	Go_X	1.0
226.10999999999999	0.15	stopsuccess	0.0	Go_O	1.0
228.643	1.0	go	0.477	Go_O	1.0
231.17600000000002	1.0	go	0.487	Go_O	1.0
233.71	1.0	go	0.405	Go_X	1.0
236.24300000000002	1.0	go	0.546	Go_O	1.0
238.77599999999998	1.0	go	0.423	Go_X	1.0
241.309	0.2	stopfail	0.383	Go_X	0.0
243.843	0.15	stopfail	0.376	Go_O	0.0
246.376	1.0	go	0.378	Go_X	1.0
248.90900000000002	1.0	go	0.468	Go_O	1.0
251.44199999999998	0.1	stopsuccess	0.0	Go_X	1.0
253.97600000000003	1.0	go	0.384	Go_X	1.0
256.509	1.0	go	0.36	Go_O	1.0
259.04200000000003	1.0	go	0.535	Go_O	1.0
261.576	1.0	go	0.469	Go_X	1.0
264.10900000000004	1.0	go	0.396	Go_O	1.0
266.64200000000005	1.0	go	0.444	Go_X	1.0
269.17499999999995	0.15	stopsuccess	0.0	Go_O	1.0
271.70900000000006	1.0	go	0.532	Go_O	1.0
274.24199999999996	1.0	go	0.387	Go_X	1.0
276.775	1.0	go	0.452	Go_X	1.0
279.30899999999997	1.0	go	0.516	Go_O	1.0
281.85800000000006	1.0	go	0.424	Go_O	1.0
284.39200000000005	0.2	stopsuccess	0.0	Go_X	1.0
286.92500000000007	1.0	go	0.422	Go_X	1.0
289.4580000000001	1.0	go	0.398	Go_X	1.0
291.9920000000001	1.0	go	0.481	Go_O	1.0
294.525	1.0	go	0.45	Go_X	1.0
297.058	0.25	stopfail	0.342	Go_O	0.0
299.591	1.0	go	0.561	Go_O	1.0
302.125	1.0	go	0.446	Go_O	1.0
304.658	0.2	stopfail	0.502	Go_X	0.0
307.19100000000003	1.0	go	0.401	Go_X	1.0
309.72400000000005	0.15	stopfail	0.347	Go_O	0.0
312.25800000000004	1.0	go	0.448	Go_X	0.0
314.79100000000005	1.0	go	0.315	Go_O	1.0
317.32400000000007	1.0	go	0.521	Go_X	1.0
319.85800000000006	1.0	go	0.427	Go_O	1.0
322.3910000000001	1.0	go	0.38	Go_X	1.0
324.924	1.0	go	0.429	Go_O	1.0
327.457	1.0	go	0.518	Go_O	1.0
329.991	0.1	stopfail	0.414	Go_X	0.0
332.524	1.0	go	0.329	Go_X	1.0
335.057	1.0	go	0.374	Go_X	1.0
337.59000000000003	1.0	go	0.398	Go_O	1.0
340.124	0.05	stopsuccess	0.0	Go_O	1.0
342.65700000000004	1.0	go	0.363	Go_X	1.0
345.19000000000005	1.0	go	0.492	Go_O	1.0
347.72400000000005	1.0	go	0.44	Go_X	1.0
350.25700000000006	1.0	go	0.291	Go_O	1.0
352.7900000000001	0.1	stopsuccess	0.0	Go_X	1.0
355.323	1.0	go	0.559	Go_X	1.0
357.8570000000001	1.0	go	0.337	Go_O	1.0
360.39	0.15	stopsuccess	0.0	Go_O	1.0
362.923	1.0	go	0.474	Go_O	1.0
365.457	1.0	go	0.377	Go_X	1.0
368.0060000000001	0.2	stopsuccess	0.0	Go_X	1.0
370.5400000000001	1.0	go	0.429	Go_X	1.0
373.073	1.0	go	0.514	Go_O	1.0
375.606	0.25	stopsuccess	0.0	Go_O	1.0
378.14	1.0	go	0.553	Go_X	1.0
380.6890000000001	1.0	go	0.579	Go_O	1.0
383.22300000000007	1.0	go	0.468	Go_O	1.0
385.7560000000001	1.0	go	0.443	Go_X	1.0
388.289	1.0	go	0.401	Go_O	1.0
390.823	1.0	go	0.502	Go_X	1.0
393.356	0.3	stopfail	0.496	Go_X	0.0
395.889	1.0	go	0.433	Go_X	1.0
398.422	0.25	stopsuccess	0.0	Go_O	1.0
400.956	1.0	go	0.349	Go_O	1.0
403.48900000000003	1.0	go	0.39	Go_O	1.0
406.02200000000005	1.0	go	0.49	Go_X	1.0
408.55500000000006	1.0	go	0.348	Go_O	1.0
411.08900000000006	1.0	go	0.507	Go_X	1.0
413.62200000000007	0.3	stopfail	0.381	Go_X	0.0
416.1550000000001	1.0	go	0.491	Go_O	1.0
418.6890000000001	1.0	go	0.41	Go_X	1.0
421.222	1.0	go	0.478	Go_X	1.0
423.755	0.25	stopfail	0.312	Go_O	0.0
426.288	0.2	stopfail	0.44	Go_X	0.0
428.822	0.15	stopsuccess	0.0	Go_O	1.0
431.355	1.0	go	0.546	Go_O	1.0
433.88800000000003	0.2	stopsuccess	0.0	Go_X	1.0
436.422	1.0	go	0.464	Go_O	1.0
438.971	1.0	go	0.401	Go_X	1.0
441.505	1.0	go	0.376	Go_O	1.0
444.038	1.0	go	0.446	Go_X	1.0
446.571	1.0	go	0.554	Go_O	1.0
449.105	1.0	go	0.486	Go_X	1.0
451.63800000000003	1.0	go	0.335	Go_O	1.0
454.17100000000005	1.0	go	0.533	Go_X	1.0
456.70400000000006	0.25	stopsuccess	0.0	Go_O	1.0
459.23800000000006	1.0	go	0.528	Go_X	1.0
461.7710000000001	1.0	go	0.458	Go_O	1.0
464.3040000000001	0.3	stopfail	0.47	Go_X	0.0
466.837	1.0	go	0.375	Go_O	1.0
469.371	1.0	go	0.633	Go_X	1.0
471.904	1.0	go	0.424	Go_X	1.0
474.437	1.0	go	0.49	Go_O	1.0
476.971	1.0	go	0.416	Go_O	1.0
479.504	0.25	stopsuccess	0.0	Go_O	1.0
482.03700000000003	1.0	go	0.507	Go_X	1.0
484.57000000000005	1.0	go	0.479	Go_X	1.0
487.10400000000004	1.0	go	0.505	Go_O	1.0
489.63700000000006	0.3	stopfail	0.456	Go_X	0.0
492.1700000000001	1.0	go	0.456	Go_X	1.0
494.7030000000001	0.25	stopfail	0.413	Go_O	0.0
497.2370000000001	1.0	go	0.472	Go_O	1.0
499.77	1.0	go	0.403	Go_X	1.0
502.303	1.0	go	0.388	Go_O	1.0
504.837	1.0	go	0.366	Go_O	1.0
507.37	1.0	go	0.35	Go_X	1.0
509.903	1.0	go	0.398	Go_X	0.0
512.436	1.0	go	0.279	Go_O	1.0
514.97	0.2	stopfail	0.532	Go_X	0.0
517.503	1.0	go	0.361	Go_O	0.0
520.0360000000001	1.0	go	0.408	Go_X	1.0
522.57	1.0	go	0.435	Go_X	1.0
525.119	1.0	go	0.357	Go_O	1.0
527.653	0.15	stopsuccess	0.0	Go_O	1.0
530.186	1.0	go	0.337	Go_X	1.0
532.719	0.2	stopfail	0.481	Go_X	0.0
535.253	1.0	go	0.323	Go_O	1.0
537.7860000000001	1.0	go	0.756	Go_O	1.0
540.3190000000001	0.15	stopsuccess	0.0	Go_O	1.0
542.8520000000001	1.0	go	0.468	Go_X	1.0
545.3860000000001	1.0	go	0.404	Go_X	1.0
547.919	1.0	go	0.378	Go_O	1.0
550.452	1.0	go	0.434	Go_O	1.0
552.985	1.0	go	0.472	Go_X	1.0
555.519	1.0	go	0.446	Go_O	1.0
558.052	1.0	go	0.514	Go_X	1.0
560.585	1.0	go	0.443	Go_X	1.0
563.119	1.0	go	0.6	Go_O	1.0
565.652	1.0	go	0.44	Go_X	1.0
568.1850000000001	0.2	stopsuccess	0.0	Go_X	1.0
570.7180000000001	1.0	go	0.439	Go_O	1.0
573.2520000000001	1.0	go	0.598	Go_X	1.0
575.7850000000001	0.25	stopfail	0.375	Go_O	0.0
578.318	1.0	go	0.588	Go_O	1.0
580.851	0.2	stopsuccess	0.0	Go_X	1.0
583.385	1.0	go	0.48	Go_O	1.0
585.918	1.0	go	0.421	Go_X	1.0
588.451	0.25	stopsuccess	0.0	Go_O	1.0
590.985	1.0	go	0.46	Go_X	1.0
593.518	0.3	stopfail	0.384	Go_X	0.0
596.051	1.0	go	0.552	Go_O	1.0
598.5840000000001	1.0	go	0.479	Go_X	1.0
601.118	1.0	go	0.465	Go_O	1.0
603.6510000000001	0.25	stopfail	0.408	Go_O	0.0
606.1840000000001	1.0	go	0.378	Go_O	1.0
608.7180000000001	1.0	go	0.491	Go_X	1.0
611.267	1.0	go	0.387	Go_X	1.0
613.801	1.0	go	0.511	Go_O	1.0
616.3340000000001	0.2	stopsuccess	0.0	Go_X	1.0
618.8670000000001	1.0	go	0.413	Go_X	1.0
621.4010000000001	1.0	go	0.363	Go_O	1.0
623.9340000000001	0.25	stopsuccess	0.0	Go_O	1.0
626.467	1.0	go	0.411	Go_X	1.0
629.0	1.0	go	0.435	Go_O	1.0
631.534	1.0	go	0.486	Go_X	1.0
634.067	1.0	go	0.409	Go_O	1.0
636.6	0.3	stopsuccess	0.0	Go_X	1.0
639.133	1.0	go	0.441	Go_X	1.0
641.667	0.35	stopfail	0.607	Go_O	0.0
644.2	1.0	go	0.413	Go_O	1.0
646.7330000000001	1.0	go	0.44	Go_X	1.0
649.267	0.3	stopfail	0.424	Go_X	0.0
651.8000000000001	1.0	go	0.394	Go_O	1.0
654.3330000000001	1.0	go	0.405	Go_O	1.0
656.866	1.0	go	0.365	Go_X	1.0
659.4	1.0	go	0.504	Go_X	1.0
661.933	0.25	stopfail	0.31	Go_O	0.0
664.466	1.0	go	0.559	Go_O	1.0
666.999	0.2	stopsuccess	0.0	Go_X	1.0
669.533	1.0	go	0.408	Go_O	1.0
672.066	1.0	go	0.481	Go_X	1.0
674.599	1.0	go	0.529	Go_O	1.0
677.133	1.0	go	0.388	Go_X	1.0
679.666	1.0	go	0.508	Go_O	1.0
682.1990000000001	1.0	go	0.448	Go_X	1.0
684.7320000000001	0.25	stopfail	0.362	Go_O	0.0
687.2660000000001	1.0	go	0.264	Go_X	1.0
689.799	1.0	go	0.415	Go_O	1.0
692.332	0.2	stopfail	0.377	Go_X	0.0
694.865	1.0	go	0.372	Go_X	0.0
697.399	1.0	go	0.348	Go_O	1.0
699.932	0.15	stopfail	0.42	Go_O	0.0
702.465	1.0	go	0.328	Go_X	1.0
704.999	1.0	go	0.448	Go_O	1.0
707.532	1.0	go	0.485	Go_X	1.0
710.065	1.0	go	0.315	Go_O	1.0
712.5980000000001	0.1	stopsuccess	0.0	Go_X	1.0
715.1320000000001	1.0	go	0.402	Go_O	1.0
717.6650000000001	0.15	stopsuccess	0.0	Go_O	1.0
720.198	1.0	go	0.508	Go_X	1.0
722.7320000000001	1.0	go	0.415	Go_O	1.0
725.2810000000001	1.0	go	0.404	Go_X	1.0
727.815	1.0	go	0.462	Go_X	1.0
730.3480000000001	1.0	go	0.489	Go_O	1.0
732.8810000000001	0.2	stopfail	0.453	Go_X	0.0
735.4150000000001	1.0	go	0.512	Go_X	1.0
737.948	1.0	go	0.0	Go_O	0.0
740.481	0.15	stopfail	0.509	Go_O	0.0
743.014	0.1	stopsuccess	0.0	Go_X	1.0
745.548	1.0	go	0.4	Go_O	1.0
748.081	1.0	go	0.404	Go_X	1.0
750.614	1.0	go	0.414	Go_X	1.0
753.147	1.0	go	0.364	Go_O	1.0
755.681	0.15	stopsuccess	0.0	Go_O	1.0
758.214	1.0	go	0.389	Go_O	1.0
