onset	duration	trial_type	response_time	stim_file	accuracy
225.718	1.0	go	0.921	Go_X	1.0
228.284	1.0	go	0.429	Go_O	1.0
230.818	1.0	go	0.336	Go_X	1.0
233.351	1.0	go	0.328	Go_O	1.0
235.884	1.0	go	0.236	Go_O	1.0
238.417	1.0	go	0.304	Go_X	1.0
240.951	0.25	stopfail	0.256	Go_O	0.0
243.484	1.0	go	0.338	Go_X	1.0
246.017	0.2	stopfail	0.344	Go_X	0.0
248.55	1.0	go	0.418	Go_O	1.0
251.084	1.0	go	0.332	Go_X	1.0
253.617	1.0	go	0.482	Go_O	1.0
256.15	0.15	stopsuccess	0.0	Go_O	1.0
258.684	1.0	go	0.341	Go_X	1.0
261.217	1.0	go	0.329	Go_O	1.0
263.75	0.2	stopfail	0.351	Go_X	0.0
266.283	0.15	stopfail	0.345	Go_O	0.0
268.817	1.0	go	0.519	Go_X	1.0
271.35	1.0	go	0.361	Go_O	1.0
273.883	0.1	stopsuccess	0.0	Go_X	1.0
276.416	1.0	go	0.289	Go_X	1.0
278.95	1.0	go	0.34	Go_O	1.0
281.483	0.15	stopfail	0.487	Go_O	0.0
284.016	1.0	go	0.437	Go_O	1.0
286.55	1.0	go	0.363	Go_X	1.0
289.083	0.1	stopsuccess	0.0	Go_X	1.0
291.616	1.0	go	0.336	Go_X	1.0
294.149	1.0	go	0.379	Go_O	1.0
296.683	0.15	stopsuccess	0.0	Go_O	1.0
299.216	1.0	go	0.307	Go_X	1.0
301.749	1.0	go	0.296	Go_O	1.0
304.283	1.0	go	0.362	Go_X	1.0
306.832	1.0	go	0.33	Go_O	1.0
309.366	1.0	go	0.483	Go_O	1.0
311.899	0.2	stopfail	0.377	Go_X	0.0
314.432	1.0	go	0.334	Go_X	1.0
316.966	1.0	go	0.387	Go_O	1.0
319.499	1.0	go	0.377	Go_X	1.0
322.032	1.0	go	0.4	Go_O	1.0
324.565	1.0	go	0.295	Go_X	1.0
327.099	0.15	stopfail	0.461	Go_O	0.0
329.632	1.0	go	0.7	Go_O	1.0
332.165	1.0	go	0.341	Go_X	1.0
334.698	1.0	go	0.447	Go_O	1.0
337.232	1.0	go	0.337	Go_X	1.0
339.765	1.0	go	0.475	Go_O	1.0
342.298	1.0	go	0.347	Go_X	1.0
344.832	0.1	stopsuccess	0.0	Go_X	1.0
347.365	1.0	go	0.347	Go_O	1.0
349.898	1.0	go	0.377	Go_X	1.0
352.431	0.15	stopfail	0.442	Go_O	0.0
354.965	1.0	go	0.351	Go_O	1.0
357.498	0.1	stopsuccess	0.0	Go_X	1.0
360.031	0.15	stopfail	0.466	Go_O	0.0
362.564	1.0	go	0.421	Go_X	1.0
365.098	1.0	go	0.381	Go_O	1.0
367.631	1.0	go	0.327	Go_X	1.0
370.164	1.0	go	0.36	Go_X	1.0
372.698	0.1	stopsuccess	0.0	Go_X	1.0
375.231	1.0	go	0.4	Go_O	1.0
377.764	0.15	stopsuccess	0.0	Go_O	1.0
380.297	1.0	go	0.352	Go_X	1.0
382.831	1.0	go	0.45	Go_O	1.0
385.364	1.0	go	0.622	Go_O	1.0
387.897	1.0	go	0.312	Go_X	1.0
390.43	1.0	go	0.345	Go_O	1.0
392.964	1.0	go	0.356	Go_X	1.0
395.497	1.0	go	0.365	Go_O	1.0
398.03	1.0	go	0.368	Go_X	1.0
400.564	1.0	go	0.397	Go_X	1.0
403.097	0.2	stopfail	0.366	Go_X	0.0
405.63	1.0	go	0.414	Go_O	1.0
408.163	1.0	go	0.278	Go_X	1.0
410.697	1.0	go	0.317	Go_O	1.0
413.23	0.15	stopfail	0.374	Go_O	0.0
415.763	1.0	go	0.526	Go_O	1.0
418.297	1.0	go	0.39	Go_X	1.0
420.846	1.0	go	0.354	Go_X	1.0
423.38	1.0	go	0.329	Go_O	1.0
425.913	1.0	go	0.449	Go_O	1.0
428.446	1.0	go	0.34	Go_X	1.0
430.98	0.1	stopsuccess	0.0	Go_X	1.0
433.513	1.0	go	0.333	Go_O	1.0
436.046	1.0	go	0.359	Go_X	1.0
438.579	0.15	stopsuccess	0.0	Go_O	1.0
441.113	1.0	go	0.365	Go_O	1.0
443.646	1.0	go	0.438	Go_X	1.0
446.179	0.2	stopfail	0.351	Go_X	0.0
448.712	1.0	go	0.428	Go_X	1.0
451.246	0.15	stopsuccess	0.0	Go_O	1.0
453.779	1.0	go	0.477	Go_O	1.0
456.312	1.0	go	0.487	Go_O	1.0
458.846	1.0	go	0.405	Go_X	1.0
461.379	1.0	go	0.546	Go_O	1.0
463.912	1.0	go	0.423	Go_X	1.0
466.445	0.2	stopfail	0.383	Go_X	0.0
468.979	0.15	stopfail	0.376	Go_O	0.0
471.512	1.0	go	0.378	Go_X	1.0
474.045	1.0	go	0.468	Go_O	1.0
476.578	0.1	stopsuccess	0.0	Go_X	1.0
479.112	1.0	go	0.384	Go_X	1.0
481.645	1.0	go	0.36	Go_O	1.0
484.178	1.0	go	0.535	Go_O	1.0
486.712	1.0	go	0.469	Go_X	1.0
489.245	1.0	go	0.396	Go_O	1.0
491.778	1.0	go	0.444	Go_X	1.0
494.311	0.15	stopsuccess	0.0	Go_O	1.0
496.845	1.0	go	0.532	Go_O	1.0
499.378	1.0	go	0.387	Go_X	1.0
501.911	1.0	go	0.452	Go_X	1.0
504.445	1.0	go	0.516	Go_O	1.0
506.994	1.0	go	0.424	Go_O	1.0
509.528	0.2	stopsuccess	0.0	Go_X	1.0
512.061	1.0	go	0.422	Go_X	1.0
514.594	1.0	go	0.398	Go_X	1.0
517.128	1.0	go	0.481	Go_O	1.0
519.661	1.0	go	0.45	Go_X	1.0
522.194	0.25	stopfail	0.342	Go_O	0.0
524.727	1.0	go	0.561	Go_O	1.0
527.261	1.0	go	0.446	Go_O	1.0
529.794	0.2	stopfail	0.502	Go_X	0.0
532.327	1.0	go	0.401	Go_X	1.0
534.86	0.15	stopfail	0.347	Go_O	0.0
537.394	1.0	go	0.448	Go_X	0.0
539.927	1.0	go	0.315	Go_O	1.0
542.46	1.0	go	0.521	Go_X	1.0
544.994	1.0	go	0.427	Go_O	1.0
547.527	1.0	go	0.38	Go_X	1.0
550.06	1.0	go	0.429	Go_O	1.0
552.593	1.0	go	0.518	Go_O	1.0
555.127	0.1	stopfail	0.414	Go_X	0.0
557.66	1.0	go	0.329	Go_X	1.0
560.193	1.0	go	0.374	Go_X	1.0
562.726	1.0	go	0.398	Go_O	1.0
565.26	0.05	stopsuccess	0.0	Go_O	1.0
567.793	1.0	go	0.363	Go_X	1.0
570.326	1.0	go	0.492	Go_O	1.0
572.86	1.0	go	0.44	Go_X	1.0
575.393	1.0	go	0.291	Go_O	1.0
577.926	0.1	stopsuccess	0.0	Go_X	1.0
580.459	1.0	go	0.559	Go_X	1.0
582.993	1.0	go	0.337	Go_O	1.0
585.526	0.15	stopsuccess	0.0	Go_O	1.0
588.059	1.0	go	0.474	Go_O	1.0
590.593	1.0	go	0.377	Go_X	1.0
593.142	0.2	stopsuccess	0.0	Go_X	1.0
595.676	1.0	go	0.429	Go_X	1.0
598.209	1.0	go	0.514	Go_O	1.0
600.742	0.25	stopsuccess	0.0	Go_O	1.0
603.276	1.0	go	0.553	Go_X	1.0
605.825	1.0	go	0.579	Go_O	1.0
608.359	1.0	go	0.468	Go_O	1.0
610.892	1.0	go	0.443	Go_X	1.0
613.425	1.0	go	0.401	Go_O	1.0
615.959	1.0	go	0.502	Go_X	1.0
618.492	0.3	stopfail	0.496	Go_X	0.0
621.025	1.0	go	0.433	Go_X	1.0
623.558	0.25	stopsuccess	0.0	Go_O	1.0
626.092	1.0	go	0.349	Go_O	1.0
628.625	1.0	go	0.39	Go_O	1.0
631.158	1.0	go	0.49	Go_X	1.0
633.691	1.0	go	0.348	Go_O	1.0
636.225	1.0	go	0.507	Go_X	1.0
638.758	0.3	stopfail	0.381	Go_X	0.0
641.291	1.0	go	0.491	Go_O	1.0
643.825	1.0	go	0.41	Go_X	1.0
646.358	1.0	go	0.478	Go_X	1.0
648.891	0.25	stopfail	0.312	Go_O	0.0
651.424	0.2	stopfail	0.44	Go_X	0.0
653.958	0.15	stopsuccess	0.0	Go_O	1.0
656.491	1.0	go	0.546	Go_O	1.0
659.024	0.2	stopsuccess	0.0	Go_X	1.0
661.558	1.0	go	0.464	Go_O	1.0
664.107	1.0	go	0.401	Go_X	1.0
666.641	1.0	go	0.376	Go_O	1.0
669.174	1.0	go	0.446	Go_X	1.0
671.707	1.0	go	0.554	Go_O	1.0
674.241	1.0	go	0.486	Go_X	1.0
676.774	1.0	go	0.335	Go_O	1.0
679.307	1.0	go	0.533	Go_X	1.0
681.84	0.25	stopsuccess	0.0	Go_O	1.0
684.374	1.0	go	0.528	Go_X	1.0
686.907	1.0	go	0.458	Go_O	1.0
689.44	0.3	stopfail	0.47	Go_X	0.0
691.973	1.0	go	0.375	Go_O	1.0
694.507	1.0	go	0.633	Go_X	1.0
697.04	1.0	go	0.424	Go_X	1.0
699.573	1.0	go	0.49	Go_O	1.0
702.107	1.0	go	0.416	Go_O	1.0
704.64	0.25	stopsuccess	0.0	Go_O	1.0
707.173	1.0	go	0.507	Go_X	1.0
709.706	1.0	go	0.479	Go_X	1.0
712.24	1.0	go	0.505	Go_O	1.0
714.773	0.3	stopfail	0.456	Go_X	0.0
717.306	1.0	go	0.456	Go_X	1.0
719.839	0.25	stopfail	0.413	Go_O	0.0
722.373	1.0	go	0.472	Go_O	1.0
724.906	1.0	go	0.403	Go_X	1.0
727.439	1.0	go	0.388	Go_O	1.0
729.973	1.0	go	0.366	Go_O	1.0
732.506	1.0	go	0.35	Go_X	1.0
735.039	1.0	go	0.398	Go_X	0.0
737.572	1.0	go	0.279	Go_O	1.0
740.106	0.2	stopfail	0.532	Go_X	0.0
742.639	1.0	go	0.361	Go_O	0.0
745.172	1.0	go	0.408	Go_X	1.0
747.706	1.0	go	0.435	Go_X	1.0
750.255	1.0	go	0.357	Go_O	1.0
752.789	0.15	stopsuccess	0.0	Go_O	1.0
755.322	1.0	go	0.337	Go_X	1.0
757.855	0.2	stopfail	0.481	Go_X	0.0
760.389	1.0	go	0.323	Go_O	1.0
762.922	1.0	go	0.756	Go_O	1.0
765.455	0.15	stopsuccess	0.0	Go_O	1.0
767.988	1.0	go	0.468	Go_X	1.0
770.522	1.0	go	0.404	Go_X	1.0
773.055	1.0	go	0.378	Go_O	1.0
775.588	1.0	go	0.434	Go_O	1.0
778.121	1.0	go	0.472	Go_X	1.0
780.655	1.0	go	0.446	Go_O	1.0
783.188	1.0	go	0.514	Go_X	1.0
785.721	1.0	go	0.443	Go_X	1.0
788.255	1.0	go	0.6	Go_O	1.0
790.788	1.0	go	0.44	Go_X	1.0
793.321	0.2	stopsuccess	0.0	Go_X	1.0
795.854	1.0	go	0.439	Go_O	1.0
798.388	1.0	go	0.598	Go_X	1.0
800.921	0.25	stopfail	0.375	Go_O	0.0
803.454	1.0	go	0.588	Go_O	1.0
805.987	0.2	stopsuccess	0.0	Go_X	1.0
808.521	1.0	go	0.48	Go_O	1.0
811.054	1.0	go	0.421	Go_X	1.0
813.587	0.25	stopsuccess	0.0	Go_O	1.0
816.121	1.0	go	0.46	Go_X	1.0
818.654	0.3	stopfail	0.384	Go_X	0.0
821.187	1.0	go	0.552	Go_O	1.0
823.72	1.0	go	0.479	Go_X	1.0
826.254	1.0	go	0.465	Go_O	1.0
828.787	0.25	stopfail	0.408	Go_O	0.0
831.32	1.0	go	0.378	Go_O	1.0
833.854	1.0	go	0.491	Go_X	1.0
836.403	1.0	go	0.387	Go_X	1.0
838.937	1.0	go	0.511	Go_O	1.0
841.47	0.2	stopsuccess	0.0	Go_X	1.0
844.003	1.0	go	0.413	Go_X	1.0
846.537	1.0	go	0.363	Go_O	1.0
849.07	0.25	stopsuccess	0.0	Go_O	1.0
851.603	1.0	go	0.411	Go_X	1.0
854.136	1.0	go	0.435	Go_O	1.0
856.67	1.0	go	0.486	Go_X	1.0
859.203	1.0	go	0.409	Go_O	1.0
861.736	0.3	stopsuccess	0.0	Go_X	1.0
864.269	1.0	go	0.441	Go_X	1.0
866.803	0.35	stopfail	0.607	Go_O	0.0
869.336	1.0	go	0.413	Go_O	1.0
871.869	1.0	go	0.44	Go_X	1.0
874.403	0.3	stopfail	0.424	Go_X	0.0
876.936	1.0	go	0.394	Go_O	1.0
879.469	1.0	go	0.405	Go_O	1.0
882.002	1.0	go	0.365	Go_X	1.0
884.536	1.0	go	0.504	Go_X	1.0
887.069	0.25	stopfail	0.31	Go_O	0.0
889.602	1.0	go	0.559	Go_O	1.0
892.135	0.2	stopsuccess	0.0	Go_X	1.0
894.669	1.0	go	0.408	Go_O	1.0
897.202	1.0	go	0.481	Go_X	1.0
899.735	1.0	go	0.529	Go_O	1.0
902.269	1.0	go	0.388	Go_X	1.0
904.802	1.0	go	0.508	Go_O	1.0
907.335	1.0	go	0.448	Go_X	1.0
909.868	0.25	stopfail	0.362	Go_O	0.0
912.402	1.0	go	0.264	Go_X	1.0
914.935	1.0	go	0.415	Go_O	1.0
917.468	0.2	stopfail	0.377	Go_X	0.0
920.001	1.0	go	0.372	Go_X	0.0
922.535	1.0	go	0.348	Go_O	1.0
925.068	0.15	stopfail	0.42	Go_O	0.0
927.601	1.0	go	0.328	Go_X	1.0
930.135	1.0	go	0.448	Go_O	1.0
932.668	1.0	go	0.485	Go_X	1.0
935.201	1.0	go	0.315	Go_O	1.0
937.734	0.1	stopsuccess	0.0	Go_X	1.0
940.268	1.0	go	0.402	Go_O	1.0
942.801	0.15	stopsuccess	0.0	Go_O	1.0
945.334	1.0	go	0.508	Go_X	1.0
947.868	1.0	go	0.415	Go_O	1.0
950.417	1.0	go	0.404	Go_X	1.0
952.951	1.0	go	0.462	Go_X	1.0
955.484	1.0	go	0.489	Go_O	1.0
958.017	0.2	stopfail	0.453	Go_X	0.0
960.551	1.0	go	0.512	Go_X	1.0
963.084	1.0	go	0.0	Go_O	0.0
965.617	0.15	stopfail	0.509	Go_O	0.0
968.15	0.1	stopsuccess	0.0	Go_X	1.0
970.684	1.0	go	0.4	Go_O	1.0
973.217	1.0	go	0.404	Go_X	1.0
975.75	1.0	go	0.414	Go_X	1.0
978.283	1.0	go	0.364	Go_O	1.0
980.817	0.15	stopsuccess	0.0	Go_O	1.0
983.35	1.0	go	0.389	Go_O	1.0
