onset	duration	trial_type	response_time	stim_file	accuracy
38.1	1.0	go	0.941	Go_X	1.0
40.624	1.0	go	0.366	Go_O	1.0
43.148	1.0	go	0.396	Go_O	1.0
45.672	1.0	go	0.417	Go_X	1.0
48.197	1.0	go	0.645	Go_X	1.0
50.721	1.0	go	0.636	Go_O	1.0
53.245	0.25	stopsuccess	0.0	Go_O	1.0
55.769	1.0	go	0.386	Go_X	1.0
58.293	0.3	stopsuccess	0.0	Go_X	1.0
60.817	1.0	go	0.509	Go_O	1.0
63.342	1.0	go	0.637	Go_O	1.0
65.866	1.0	go	0.683	Go_X	1.0
68.39	0.35	stopfail	0.462	Go_O	0.0
70.914	1.0	go	0.524	Go_X	1.0
73.438	1.0	go	0.67	Go_O	1.0
75.962	0.3	stopsuccess	0.0	Go_X	1.0
78.487	0.35	stopfail	0.414	Go_O	0.0
81.011	1.0	go	0.434	Go_X	1.0
83.535	1.0	go	0.497	Go_O	1.0
86.059	0.3	stopsuccess	0.0	Go_X	1.0
88.583	1.0	go	0.453	Go_X	1.0
91.107	1.0	go	0.396	Go_O	1.0
93.632	0.35	stopfail	0.441	Go_O	0.0
96.156	1.0	go	0.494	Go_X	1.0
98.68	1.0	go	0.454	Go_O	1.0
101.204	0.3	stopsuccess	0.0	Go_X	1.0
103.728	1.0	go	0.602	Go_O	0.0
106.252	1.0	go	0.411	Go_X	1.0
108.776	0.35	stopfail	0.374	Go_O	0.0
111.301	1.0	go	0.493	Go_X	1.0
113.825	1.0	go	0.506	Go_O	1.0
116.349	1.0	go	0.674	Go_O	1.0
118.873	1.0	go	0.48	Go_X	1.0
121.397	1.0	go	0.869	Go_O	1.0
123.921	0.3	stopsuccess	0.0	Go_X	1.0
126.446	1.0	go	0.575	Go_X	1.0
128.97	1.0	go	0.603	Go_X	1.0
131.494	1.0	go	0.619	Go_O	1.0
134.018	1.0	go	0.554	Go_O	1.0
136.542	1.0	go	0.442	Go_X	1.0
139.066	0.35	stopfail	0.533	Go_O	0.0
141.591	1.0	go	0.596	Go_X	1.0
144.115	1.0	go	0.473	Go_O	1.0
146.639	1.0	go	0.57	Go_X	1.0
149.163	1.0	go	0.586	Go_O	1.0
151.687	1.0	go	0.669	Go_X	1.0
154.211	1.0	go	0.553	Go_O	1.0
156.736	0.3	stopsuccess	0.0	Go_X	1.0
159.26	1.0	go	0.598	Go_X	1.0
161.784	1.0	go	0.544	Go_O	1.0
164.308	0.35	stopsuccess	0.0	Go_O	1.0
166.832	1.0	go	0.404	Go_X	1.0
169.356	0.4	stopfail	0.513	Go_X	0.0
171.881	0.35	stopfail	0.421	Go_O	0.0
174.405	1.0	go	0.591	Go_O	1.0
176.929	1.0	go	0.543	Go_O	1.0
179.453	1.0	go	0.502	Go_X	1.0
181.977	1.0	go	0.919	Go_O	1.0
184.501	0.3	stopfail	0.512	Go_X	0.0
187.025	1.0	go	0.82	Go_X	1.0
189.55	0.25	stopsuccess	0.0	Go_O	1.0
192.074	1.0	go	0.714	Go_X	1.0
194.598	1.0	go	0.536	Go_O	1.0
197.122	1.0	go	0.656	Go_O	1.0
199.646	1.0	go	0.662	Go_X	1.0
202.17	1.0	go	0.0	Go_O	0.0
204.695	1.0	go	0.524	Go_X	1.0
207.219	1.0	go	0.492	Go_O	1.0
209.743	1.0	go	0.505	Go_X	1.0
212.267	1.0	go	0.717	Go_X	0.0
214.791	0.3	stopfail	0.481	Go_X	0.0
217.315	1.0	go	0.545	Go_O	1.0
219.84	1.0	go	0.446	Go_X	1.0
222.364	1.0	go	0.539	Go_O	1.0
224.888	0.25	stopsuccess	0.0	Go_O	1.0
227.412	1.0	go	0.409	Go_O	1.0
229.936	1.0	go	0.468	Go_X	1.0
232.46	1.0	go	0.459	Go_X	1.0
234.985	1.0	go	0.539	Go_O	1.0
237.509	1.0	go	0.5	Go_O	1.0
240.033	1.0	go	0.725	Go_X	1.0
242.557	0.3	stopsuccess	0.0	Go_X	1.0
245.081	1.0	go	0.331	Go_X	1.0
247.605	1.0	go	0.606	Go_O	1.0
250.129	0.35	stopsuccess	0.0	Go_O	1.0
252.654	1.0	go	0.707	Go_O	1.0
255.178	1.0	go	0.699	Go_X	1.0
257.702	0.4	stopsuccess	0.0	Go_X	1.0
260.226	1.0	go	0.404	Go_X	1.0
262.75	0.45	stopfail	0.566	Go_O	0.0
265.274	1.0	go	0.515	Go_O	1.0
267.799	1.0	go	0.455	Go_O	1.0
270.323	1.0	go	0.78	Go_X	1.0
272.847	1.0	go	0.574	Go_X	1.0
275.371	1.0	go	0.677	Go_O	1.0
277.895	0.4	stopfail	0.58	Go_X	0.0
280.419	0.35	stopsuccess	0.0	Go_O	1.0
282.944	1.0	go	0.754	Go_O	1.0
285.468	1.0	go	0.475	Go_X	1.0
287.992	0.4	stopfail	0.466	Go_X	0.0
290.516	1.0	go	0.458	Go_X	1.0
293.04	1.0	go	0.48	Go_O	1.0
295.564	1.0	go	0.511	Go_X	1.0
298.089	1.0	go	0.627	Go_O	1.0
300.613	1.0	go	0.648	Go_X	1.0
303.137	1.0	go	0.997	Go_O	1.0
305.661	0.35	stopfail	0.461	Go_O	0.0
308.185	1.0	go	0.452	Go_X	1.0
310.709	1.0	go	0.435	Go_O	1.0
313.234	1.0	go	0.407	Go_X	1.0
315.758	1.0	go	0.591	Go_O	1.0
318.282	1.0	go	0.477	Go_X	1.0
320.806	0.3	stopsuccess	0.0	Go_X	1.0
323.33	1.0	go	0.425	Go_O	1.0
325.854	1.0	go	0.56	Go_X	1.0
328.378	1.0	go	0.564	Go_O	1.0
330.903	1.0	go	0.414	Go_O	1.0
333.427	0.35	stopfail	0.56	Go_O	0.0
335.951	1.0	go	0.375	Go_X	1.0
338.475	1.0	go	0.419	Go_X	1.0
340.999	0.3	stopsuccess	0.0	Go_X	1.0
343.523	1.0	go	0.436	Go_O	1.0
346.048	0.35	stopfail	0.703	Go_O	0.0
348.572	1.0	go	0.0	Go_O	0.0
351.096	1.0	go	0.637	Go_X	1.0
353.62	1.0	go	0.807	Go_X	1.0
356.144	1.0	go	0.666	Go_O	1.0
358.668	1.0	go	0.563	Go_O	1.0
361.193	1.0	go	0.605	Go_X	1.0
363.717	1.0	go	0.768	Go_O	1.0
366.241	0.3	stopsuccess	0.0	Go_X	1.0
368.765	1.0	go	0.558	Go_X	1.0
371.289	1.0	go	0.755	Go_X	1.0
373.813	1.0	go	0.474	Go_O	1.0
376.338	0.35	stopsuccess	0.0	Go_O	1.0
378.862	1.0	go	0.342	Go_O	1.0
381.386	1.0	go	0.385	Go_X	1.0
383.91	1.0	go	0.528	Go_O	1.0
386.434	1.0	go	0.772	Go_X	1.0
388.958	0.4	stopfail	0.461	Go_X	0.0
391.483	1.0	go	0.791	Go_O	1.0
394.007	1.0	go	0.586	Go_X	1.0
396.531	0.35	stopsuccess	0.0	Go_O	1.0
399.055	1.0	go	0.796	Go_O	1.0
401.579	1.0	go	0.446	Go_X	0.0
404.103	0.4	stopfail	0.442	Go_X	0.0
406.627	1.0	go	0.335	Go_O	1.0
409.152	1.0	go	0.483	Go_X	1.0
411.676	0.35	stopsuccess	0.0	Go_O	1.0
414.2	1.0	go	0.356	Go_X	1.0
416.724	1.0	go	0.807	Go_O	1.0
419.248	1.0	go	0.437	Go_X	1.0
421.772	1.0	go	0.394	Go_O	1.0
424.297	1.0	go	0.43	Go_X	1.0
426.821	1.0	go	0.394	Go_O	1.0
429.345	0.4	stopsuccess	0.0	Go_X	1.0
431.869	1.0	go	0.678	Go_X	1.0
434.393	0.45	stopfail	0.408	Go_O	0.0
436.917	1.0	go	0.0	Go_O	0.0
439.442	1.0	go	0.42	Go_O	1.0
441.966	1.0	go	0.405	Go_X	1.0
444.49	1.0	go	0.944	Go_X	1.0
447.014	1.0	go	0.572	Go_O	1.0
449.538	0.4	stopfail	0.441	Go_X	0.0
452.062	1.0	go	0.595	Go_X	1.0
454.587	1.0	go	0.438	Go_O	1.0
457.111	1.0	go	0.448	Go_O	1.0
459.635	0.35	stopsuccess	0.0	Go_O	1.0
462.159	0.4	stopfail	0.362	Go_X	0.0
464.683	0.35	stopfail	0.392	Go_O	0.0
467.207	1.0	go	0.599	Go_X	1.0
469.731	0.3	stopsuccess	0.0	Go_X	1.0
472.256	1.0	go	0.755	Go_O	1.0
474.78	1.0	go	0.832	Go_X	0.0
477.304	1.0	go	0.621	Go_X	1.0
479.828	1.0	go	0.631	Go_O	1.0
482.352	1.0	go	0.457	Go_X	1.0
484.876	1.0	go	0.587	Go_O	1.0
487.401	1.0	go	0.0	Go_O	0.0
489.925	1.0	go	0.48	Go_X	1.0
492.449	0.35	stopsuccess	0.0	Go_O	1.0
494.973	1.0	go	0.877	Go_O	1.0
497.497	1.0	go	0.458	Go_X	1.0
500.021	0.4	stopfail	0.631	Go_X	0.0
502.546	1.0	go	0.954	Go_O	1.0
505.07	1.0	go	0.626	Go_X	1.0
507.594	1.0	go	0.395	Go_O	1.0
510.118	1.0	go	0.582	Go_X	1.0
512.642	1.0	go	0.452	Go_X	1.0
515.166	0.35	stopsuccess	0.0	Go_O	1.0
517.691	1.0	go	0.535	Go_O	1.0
520.215	1.0	go	0.0	Go_O	0.0
522.739	1.0	go	0.995	Go_X	1.0
525.263	0.4	stopfail	0.516	Go_X	0.0
527.787	1.0	go	0.517	Go_O	1.0
530.311	0.35	stopfail	0.441	Go_O	0.0
532.836	1.0	go	0.395	Go_X	1.0
535.36	1.0	go	0.501	Go_X	1.0
537.884	1.0	go	0.495	Go_O	1.0
540.408	1.0	go	0.536	Go_X	1.0
542.932	1.0	go	0.8	Go_O	1.0
545.456	1.0	go	0.0	Go_X	0.0
547.98	1.0	go	0.0	Go_O	0.0
550.505	0.3	stopfail	0.501	Go_X	0.0
553.029	1.0	go	0.513	Go_O	0.0
555.553	1.0	go	0.42	Go_X	1.0
558.077	1.0	go	0.654	Go_X	1.0
560.601	1.0	go	0.594	Go_O	1.0
563.125	0.25	stopsuccess	0.0	Go_O	1.0
565.65	1.0	go	0.651	Go_O	1.0
568.174	0.3	stopsuccess	0.0	Go_X	1.0
570.698	1.0	go	0.537	Go_X	0.0
573.222	1.0	go	0.608	Go_O	1.0
575.746	0.35	stopsuccess	0.0	Go_O	1.0
578.27	1.0	go	0.295	Go_X	1.0
580.795	1.0	go	0.697	Go_X	1.0
583.319	1.0	go	0.0	Go_O	0.0
585.843	1.0	go	0.0	Go_O	0.0
588.367	1.0	go	0.0	Go_X	0.0
590.891	1.0	go	0.0	Go_O	0.0
593.415	1.0	go	0.478	Go_X	1.0
595.94	1.0	go	0.462	Go_X	1.0
598.464	1.0	go	0.711	Go_O	1.0
600.988	1.0	go	0.432	Go_X	1.0
603.512	0.4	stopfail	0.365	Go_X	0.0
606.036	1.0	go	0.706	Go_O	1.0
608.56	1.0	go	0.355	Go_X	1.0
611.085	0.35	stopfail	0.418	Go_O	0.0
613.609	1.0	go	0.519	Go_O	1.0
616.133	0.3	stopfail	0.341	Go_X	0.0
618.657	1.0	go	0.63	Go_X	0.0
621.181	1.0	go	0.519	Go_O	1.0
623.705	0.25	stopsuccess	0.0	Go_O	1.0
626.229	1.0	go	0.336	Go_X	1.0
628.754	0.3	stopsuccess	0.0	Go_X	1.0
631.278	1.0	go	0.446	Go_O	1.0
633.802	1.0	go	0.489	Go_X	1.0
636.326	1.0	go	0.455	Go_O	1.0
638.85	0.35	stopsuccess	0.0	Go_O	1.0
641.374	1.0	go	0.7	Go_X	1.0
643.899	1.0	go	0.538	Go_O	1.0
646.423	1.0	go	0.532	Go_X	1.0
648.947	1.0	go	0.481	Go_O	1.0
651.471	0.4	stopfail	0.357	Go_X	0.0
653.995	1.0	go	0.396	Go_X	1.0
656.519	1.0	go	0.4	Go_O	1.0
659.044	0.35	stopfail	0.446	Go_O	0.0
661.568	1.0	go	0.537	Go_O	0.0
664.092	1.0	go	0.29	Go_X	1.0
666.616	1.0	go	0.435	Go_X	1.0
669.14	1.0	go	0.467	Go_O	1.0
671.664	0.3	stopsuccess	0.0	Go_X	1.0
674.189	1.0	go	0.386	Go_X	1.0
676.713	0.35	stopfail	0.447	Go_O	0.0
679.237	1.0	go	0.742	Go_O	1.0
681.761	1.0	go	0.357	Go_X	1.0
684.285	0.3	stopsuccess	0.0	Go_X	1.0
686.809	1.0	go	0.393	Go_O	1.0
689.333	1.0	go	0.653	Go_X	0.0
691.858	1.0	go	0.493	Go_O	1.0
694.382	1.0	go	0.475	Go_O	1.0
696.906	0.35	stopfail	0.39	Go_O	0.0
699.43	1.0	go	0.462	Go_X	1.0
701.954	0.3	stopsuccess	0.0	Go_X	1.0
704.478	1.0	go	0.415	Go_O	1.0
707.003	1.0	go	0.455	Go_X	1.0
709.527	1.0	go	0.428	Go_O	1.0
712.051	1.0	go	0.567	Go_X	1.0
714.575	1.0	go	0.808	Go_O	1.0
717.099	1.0	go	0.699	Go_X	1.0
719.623	0.35	stopfail	0.411	Go_O	0.0
722.148	1.0	go	0.338	Go_O	1.0
724.672	1.0	go	0.342	Go_X	1.0
727.196	0.3	stopfail	0.481	Go_X	0.0
729.72	1.0	go	0.373	Go_O	1.0
732.244	1.0	go	0.369	Go_X	1.0
734.768	0.25	stopfail	0.417	Go_O	0.0
737.293	1.0	go	0.404	Go_O	1.0
739.817	1.0	go	0.379	Go_X	1.0
742.341	1.0	go	0.349	Go_X	1.0
744.865	1.0	go	0.421	Go_O	1.0
747.389	0.2	stopsuccess	0.0	Go_X	1.0
749.913	1.0	go	0.406	Go_O	1.0
752.438	0.25	stopsuccess	0.0	Go_O	1.0
754.962	1.0	go	0.39	Go_X	1.0
757.486	1.0	go	0.465	Go_X	1.0
760.01	1.0	go	0.38	Go_O	1.0
762.534	1.0	go	0.369	Go_X	1.0
765.058	1.0	go	0.453	Go_O	1.0
767.582	0.3	stopsuccess	0.0	Go_X	1.0
770.107	1.0	go	0.333	Go_O	1.0
772.631	1.0	go	0.386	Go_X	1.0
775.155	0.35	stopfail	0.62	Go_O	0.0
777.679	0.3	stopsuccess	0.0	Go_X	1.0
780.203	1.0	go	0.871	Go_X	1.0
782.727	1.0	go	0.857	Go_O	1.0
785.252	1.0	go	0.671	Go_X	1.0
787.776	1.0	go	0.835	Go_O	1.0
790.3	0.35	stopfail	0.542	Go_O	0.0
792.824	1.0	go	0.835	Go_O	1.0
