onset	duration	trial_type	response_time	stim_file	accuracy
47.527	1.0	go	0.964	Go_O	1.0
50.06	1.0	go	0.449	Go_X	1.0
52.593	1.0	go	0.355	Go_O	1.0
55.127	1.0	go	0.593	Go_X	1.0
57.66	1.0	go	0.368	Go_X	1.0
60.193	1.0	go	0.339	Go_O	1.0
62.727	0.25	stop	0.277	Go_O	0.0
65.276	1.0	go	0.485	Go_O	1.0
67.81	0.2	stop	0.31	Go_X	0.0
70.343	1.0	go	0.471	Go_X	1.0
72.876	1.0	go	0.407	Go_O	1.0
75.41	1.0	go	0.317	Go_X	1.0
77.943	0.15	stop	0.325	Go_O	0.0
80.476	1.0	go	0.465	Go_O	1.0
83.009	1.0	go	0.466	Go_X	1.0
85.543	0.1	stop	0.0	Go_X	1.0
88.076	0.15	stop	0.0	Go_O	1.0
90.609	1.0	go	0.362	Go_X	1.0
93.142	1.0	go	0.276	Go_O	1.0
95.676	0.2	stop	0.0	Go_X	1.0
98.209	1.0	go	0.296	Go_X	1.0
100.742	1.0	go	0.489	Go_O	1.0
103.276	0.25	stop	0.0	Go_O	1.0
105.809	1.0	go	0.503	Go_X	1.0
108.342	1.0	go	0.547	Go_O	1.0
110.875	0.3	stop	0.466	Go_X	0.0
113.409	1.0	go	0.29	Go_X	1.0
115.942	1.0	go	0.468	Go_O	1.0
118.475	0.25	stop	0.0	Go_O	1.0
121.009	1.0	go	0.514	Go_O	1.0
123.558	1.0	go	0.239	Go_X	1.0
126.092	1.0	go	0.391	Go_X	1.0
128.625	1.0	go	0.361	Go_O	1.0
131.158	1.0	go	0.328	Go_O	1.0
133.692	0.3	stop	0.643	Go_X	0.0
136.225	1.0	go	0.321	Go_X	1.0
138.758	1.0	go	0.428	Go_O	1.0
141.291	1.0	go	0.445	Go_X	1.0
143.825	1.0	go	0.419	Go_O	1.0
146.358	1.0	go	0.457	Go_X	1.0
148.891	0.25	stop	0.0	Go_O	1.0
151.424	1.0	go	0.465	Go_X	1.0
153.958	1.0	go	0.496	Go_O	1.0
156.491	1.0	go	0.452	Go_X	1.0
159.024	1.0	go	0.381	Go_O	1.0
161.558	1.0	go	0.457	Go_X	1.0
164.091	1.0	go	0.407	Go_O	1.0
166.624	0.3	stop	0.491	Go_X	0.0
169.157	1.0	go	0.414	Go_X	1.0
171.691	1.0	go	0.547	Go_O	1.0
174.224	0.25	stop	0.0	Go_O	1.0
176.757	1.0	go	0.604	Go_O	1.0
179.29	0.3	stop	0.0	Go_X	1.0
181.824	0.35	stop	0.0	Go_O	1.0
184.357	1.0	go	0.0	Go_X	0.0
186.89	1.0	go	0.441	Go_X	1.0
189.424	1.0	go	0.749	Go_O	1.0
191.957	1.0	go	0.438	Go_X	1.0
194.49	0.4	stop	0.493	Go_X	0.0
197.023	1.0	go	0.607	Go_O	1.0
199.557	0.35	stop	0.0	Go_O	1.0
202.09	1.0	go	0.339	Go_X	1.0
204.623	1.0	go	0.452	Go_O	1.0
207.157	1.0	go	0.758	Go_X	1.0
209.706	1.0	go	0.461	Go_O	1.0
212.24	1.0	go	0.407	Go_O	1.0
214.773	1.0	go	0.521	Go_X	1.0
217.306	1.0	go	0.722	Go_X	0.0
219.84	1.0	go	0.623	Go_O	0.0
222.373	1.0	go	0.869	Go_X	0.0
224.906	0.4	stop	0.56	Go_X	0.0
227.439	1.0	go	0.379	Go_O	1.0
229.973	1.0	go	0.494	Go_X	1.0
232.506	1.0	go	0.224	Go_O	1.0
235.039	0.35	stop	0.0	Go_O	1.0
237.572	1.0	go	0.403	Go_X	1.0
240.106	1.0	go	0.592	Go_O	1.0
242.639	1.0	go	0.425	Go_X	1.0
245.172	1.0	go	0.518	Go_O	0.0
247.706	1.0	go	0.545	Go_O	1.0
250.239	1.0	go	0.717	Go_X	1.0
252.772	0.4	stop	0.396	Go_X	0.0
255.305	1.0	go	0.321	Go_O	1.0
257.839	1.0	go	0.267	Go_X	1.0
260.372	0.35	stop	0.316	Go_O	0.0
262.905	1.0	go	0.169	Go_O	0.0
265.438	1.0	go	0.304	Go_X	1.0
267.972	0.3	stop	0.591	Go_X	0.0
270.505	1.0	go	0.472	Go_O	1.0
273.038	0.25	stop	0.0	Go_O	1.0
275.572	1.0	go	0.411	Go_X	1.0
278.105	1.0	go	0.733	Go_O	1.0
280.638	1.0	go	0.677	Go_X	0.0
283.171	1.0	go	0.387	Go_O	1.0
285.705	1.0	go	0.252	Go_X	1.0
288.238	0.3	stop	0.0	Go_X	1.0
290.771	0.35	stop	0.341	Go_O	0.0
293.305	1.0	go	0.217	Go_X	1.0
295.854	1.0	go	0.303	Go_O	1.0
298.388	0.3	stop	0.395	Go_X	0.0
300.921	1.0	go	0.419	Go_X	1.0
303.454	1.0	go	0.474	Go_O	1.0
305.988	1.0	go	0.545	Go_O	1.0
308.537	1.0	go	0.25	Go_X	1.0
311.071	1.0	go	0.395	Go_X	1.0
313.604	1.0	go	0.333	Go_O	1.0
316.137	0.25	stop	0.0	Go_O	1.0
318.671	1.0	go	0.557	Go_O	1.0
321.204	1.0	go	0.315	Go_X	1.0
323.737	1.0	go	0.41	Go_X	1.0
326.27	1.0	go	0.522	Go_O	1.0
328.804	1.0	go	0.277	Go_X	1.0
331.337	0.3	stop	0.0	Go_X	1.0
333.87	1.0	go	0.643	Go_O	1.0
336.403	1.0	go	0.248	Go_X	1.0
338.937	1.0	go	0.299	Go_O	1.0
341.47	1.0	go	0.437	Go_O	1.0
344.003	0.35	stop	0.46	Go_O	0.0
346.537	1.0	go	0.425	Go_X	1.0
349.07	1.0	go	0.0	Go_O	0.0
351.603	0.3	stop	0.322	Go_X	0.0
354.136	1.0	go	0.407	Go_X	1.0
356.67	0.25	stop	0.0	Go_O	1.0
359.203	1.0	go	0.342	Go_O	1.0
361.736	1.0	go	0.334	Go_X	1.0
364.27	1.0	go	0.345	Go_O	1.0
366.819	1.0	go	0.376	Go_X	1.0
369.353	1.0	go	0.0	Go_X	0.0
371.886	1.0	go	0.38	Go_O	1.0
374.419	1.0	go	0.261	Go_X	1.0
376.953	0.3	stop	0.181	Go_X	0.0
379.486	1.0	go	0.294	Go_O	0.0
382.019	1.0	go	0.401	Go_X	1.0
384.552	1.0	go	0.282	Go_O	1.0
387.086	0.25	stop	0.33	Go_O	0.0
389.619	1.0	go	0.708	Go_X	1.0
392.152	1.0	go	0.915	Go_O	1.0
394.685	1.0	go	0.572	Go_O	1.0
397.219	1.0	go	0.309	Go_X	1.0
399.752	0.2	stop	0.387	Go_X	0.0
402.285	1.0	go	0.979	Go_X	1.0
404.819	1.0	go	0.0	Go_O	0.0
407.352	0.15	stop	0.0	Go_O	1.0
409.885	1.0	go	0.455	Go_O	1.0
412.418	1.0	go	0.335	Go_X	1.0
414.952	0.2	stop	0.0	Go_X	1.0
417.485	1.0	go	0.432	Go_X	1.0
420.018	1.0	go	0.282	Go_O	1.0
422.551	0.25	stop	0.435	Go_O	0.0
425.085	1.0	go	0.494	Go_X	1.0
427.618	1.0	go	0.533	Go_O	1.0
430.151	1.0	go	0.317	Go_O	1.0
432.685	1.0	go	0.284	Go_X	1.0
435.218	1.0	go	0.457	Go_X	1.0
437.751	1.0	go	0.514	Go_O	1.0
440.284	0.2	stop	0.0	Go_X	1.0
442.818	1.0	go	0.457	Go_X	1.0
445.351	0.25	stop	0.593	Go_O	0.0
447.884	1.0	go	0.0	Go_O	0.0
450.418	1.0	go	0.434	Go_O	1.0
452.967	1.0	go	0.45	Go_X	1.0
455.501	1.0	go	0.48	Go_X	1.0
458.034	1.0	go	0.599	Go_O	1.0
460.567	0.2	stop	0.0	Go_X	1.0
463.101	1.0	go	0.24	Go_X	1.0
465.634	1.0	go	0.264	Go_O	1.0
468.167	1.0	go	0.505	Go_O	1.0
470.7	0.25	stop	0.493	Go_O	0.0
473.234	0.2	stop	0.278	Go_X	0.0
475.767	0.15	stop	0.0	Go_O	1.0
478.3	1.0	go	0.575	Go_X	1.0
480.833	0.2	stop	0.0	Go_X	1.0
483.367	1.0	go	0.381	Go_O	1.0
485.9	1.0	go	0.565	Go_X	1.0
488.433	1.0	go	0.826	Go_X	1.0
490.967	1.0	go	0.537	Go_O	1.0
493.5	1.0	go	0.625	Go_X	1.0
496.033	1.0	go	0.276	Go_O	1.0
498.566	1.0	go	0.316	Go_X	1.0
501.1	1.0	go	0.526	Go_O	0.0
503.633	0.25	stop	0.388	Go_O	0.0
506.166	1.0	go	0.38	Go_X	1.0
508.699	1.0	go	0.475	Go_O	1.0
511.233	0.2	stop	0.0	Go_X	1.0
513.766	1.0	go	0.644	Go_O	1.0
516.299	1.0	go	0.377	Go_X	1.0
518.833	1.0	go	0.438	Go_O	1.0
521.366	1.0	go	0.345	Go_X	1.0
523.899	1.0	go	0.261	Go_O	1.0
526.432	0.25	stop	0.0	Go_O	1.0
528.966	1.0	go	0.538	Go_X	1.0
531.499	1.0	go	0.644	Go_O	1.0
534.032	1.0	go	0.293	Go_X	1.0
536.566	0.3	stop	0.368	Go_X	0.0
539.115	1.0	go	0.364	Go_X	1.0
541.649	0.25	stop	0.317	Go_O	0.0
544.182	1.0	go	0.455	Go_O	1.0
546.715	1.0	go	0.476	Go_O	1.0
549.249	1.0	go	0.434	Go_X	1.0
551.782	1.0	go	0.398	Go_O	1.0
554.315	1.0	go	0.363	Go_X	1.0
556.848	1.0	go	0.359	Go_X	0.0
559.382	1.0	go	0.28	Go_O	1.0
561.915	0.2	stop	0.664	Go_X	0.0
564.448	1.0	go	0.277	Go_X	1.0
566.981	1.0	go	0.6	Go_O	1.0
569.515	1.0	go	0.326	Go_X	1.0
572.048	1.0	go	0.46	Go_O	1.0
574.581	0.15	stop	0.0	Go_O	1.0
577.115	1.0	go	0.308	Go_X	1.0
579.648	0.2	stop	0.0	Go_X	1.0
582.181	1.0	go	0.385	Go_O	1.0
584.714	1.0	go	0.272	Go_X	1.0
587.248	0.25	stop	0.24	Go_O	0.0
589.781	1.0	go	0.822	Go_O	1.0
592.314	1.0	go	0.396	Go_O	1.0
594.847	1.0	go	0.32	Go_X	1.0
597.381	1.0	go	0.335	Go_X	1.0
599.914	1.0	go	0.432	Go_O	1.0
602.447	1.0	go	0.616	Go_O	0.0
604.981	1.0	go	0.317	Go_X	1.0
607.514	1.0	go	0.356	Go_O	1.0
610.047	1.0	go	0.515	Go_X	1.0
612.58	1.0	go	0.332	Go_O	1.0
615.114	0.2	stop	0.0	Go_X	1.0
617.647	1.0	go	0.543	Go_X	1.0
620.18	1.0	go	0.236	Go_X	0.0
622.713	0.25	stop	0.36	Go_O	0.0
625.247	1.0	go	0.69	Go_O	1.0
627.78	0.2	stop	0.27	Go_X	0.0
630.313	1.0	go	0.239	Go_X	1.0
632.847	1.0	go	0.289	Go_O	1.0
635.38	0.15	stop	0.211	Go_O	0.0
637.913	1.0	go	0.296	Go_O	0.0
640.446	0.1	stop	0.27	Go_X	0.0
642.98	1.0	go	0.31	Go_X	1.0
645.513	1.0	go	0.366	Go_X	1.0
648.046	1.0	go	0.61	Go_O	1.0
650.58	0.05	stop	0.0	Go_O	1.0
653.129	1.0	go	0.361	Go_O	1.0
655.663	1.0	go	0.886	Go_X	1.0
658.196	1.0	go	0.566	Go_X	1.0
660.729	1.0	go	0.413	Go_O	1.0
663.263	0.1	stop	0.0	Go_X	1.0
665.796	1.0	go	0.719	Go_X	0.0
668.329	1.0	go	0.516	Go_O	1.0
670.862	0.15	stop	0.0	Go_O	1.0
673.396	1.0	go	0.304	Go_X	1.0
675.929	1.0	go	0.362	Go_O	1.0
678.462	1.0	go	0.487	Go_O	1.0
680.995	1.0	go	0.453	Go_X	1.0
683.529	0.2	stop	0.29	Go_X	0.0
686.062	1.0	go	0.432	Go_X	1.0
688.595	0.15	stop	0.331	Go_O	0.0
691.129	1.0	go	0.367	Go_O	0.0
693.662	1.0	go	0.467	Go_O	1.0
696.195	0.1	stop	0.0	Go_X	1.0
698.728	1.0	go	0.514	Go_X	1.0
701.262	1.0	go	0.316	Go_O	1.0
703.795	1.0	go	0.566	Go_X	1.0
706.328	1.0	go	0.478	Go_O	1.0
708.861	0.15	stop	0.0	Go_O	1.0
711.395	1.0	go	0.36	Go_X	1.0
713.928	0.2	stop	0.0	Go_X	1.0
716.461	1.0	go	0.418	Go_X	1.0
718.995	1.0	go	0.539	Go_O	1.0
721.528	1.0	go	0.357	Go_X	1.0
724.061	1.0	go	0.282	Go_O	1.0
726.594	1.0	go	0.756	Go_O	1.0
729.128	1.0	go	0.75	Go_X	1.0
731.661	0.25	stop	0.367	Go_O	0.0
734.194	1.0	go	0.516	Go_O	1.0
736.728	1.0	go	0.476	Go_X	1.0
739.277	0.2	stop	0.427	Go_X	0.0
741.811	1.0	go	0.929	Go_X	1.0
744.344	1.0	go	0.232	Go_O	1.0
746.877	0.15	stop	0.0	Go_O	1.0
749.411	1.0	go	0.607	Go_X	1.0
751.944	1.0	go	0.561	Go_O	1.0
754.477	1.0	go	0.382	Go_O	1.0
757.01	1.0	go	0.338	Go_X	1.0
759.544	0.2	stop	0.0	Go_X	1.0
762.077	1.0	go	0.662	Go_X	1.0
764.61	0.25	stop	0.0	Go_O	1.0
767.143	1.0	go	0.289	Go_O	1.0
769.677	1.0	go	0.337	Go_X	1.0
772.21	1.0	go	0.452	Go_O	1.0
774.743	1.0	go	0.411	Go_O	1.0
777.277	1.0	go	0.353	Go_X	1.0
779.81	0.3	stop	0.608	Go_X	0.0
782.343	1.0	go	0.505	Go_X	1.0
784.876	1.0	go	0.325	Go_O	1.0
787.41	0.25	stop	0.0	Go_O	1.0
789.943	0.3	stop	0.0	Go_X	1.0
792.476	1.0	go	0.0	Go_O	0.0
795.009	1.0	go	0.3	Go_X	1.0
797.543	1.0	go	0.362	Go_X	1.0
800.076	1.0	go	0.535	Go_O	1.0
802.609	0.35	stop	0.37	Go_O	0.0
805.143	1.0	go	0.275	Go_X	1.0
