onset	duration	trial_type	response_time	stim_file	accuracy
76.032	1.0	go	0.0	Go_X	0.0
78.589	1.0	go	0.6	Go_O	1.0
81.113	1.0	go	0.603	Go_O	1.0
83.638	1.0	go	0.206	Go_X	1.0
86.162	1.0	go	0.368	Go_O	1.0
88.686	1.0	go	0.353	Go_X	1.0
91.21	0.25	stopfail	0.269	Go_O	0.0
93.734	1.0	go	0.284	Go_X	1.0
96.259	0.2	stopsuccess	0.0	Go_X	1.0
98.8	1.0	go	0.384	Go_O	1.0
101.324	1.0	go	0.41	Go_X	1.0
103.848	1.0	go	0.385	Go_O	1.0
106.372	0.25	stopsuccess	0.0	Go_O	1.0
108.896	1.0	go	0.358	Go_X	1.0
111.421	1.0	go	0.332	Go_O	1.0
113.945	0.3	stopfail	0.231	Go_X	0.0
116.469	0.25	stopfail	0.263	Go_O	0.0
118.993	1.0	go	0.316	Go_X	1.0
121.517	1.0	go	0.231	Go_O	1.0
124.042	0.2	stopfail	0.304	Go_X	0.0
126.566	1.0	go	0.5	Go_O	1.0
129.09	1.0	go	0.639	Go_X	1.0
131.614	0.15	stopsuccess	0.0	Go_O	1.0
134.138	1.0	go	0.345	Go_X	1.0
136.663	1.0	go	0.591	Go_O	1.0
139.187	0.2	stopfail	0.306	Go_X	0.0
141.711	1.0	go	0.478	Go_X	1.0
144.235	1.0	go	0.43	Go_O	1.0
146.759	0.15	stopsuccess	0.0	Go_O	1.0
149.284	1.0	go	0.297	Go_X	1.0
151.808	1.0	go	0.362	Go_O	1.0
154.332	1.0	go	0.342	Go_X	1.0
156.856	1.0	go	0.27	Go_O	1.0
159.38	1.0	go	0.155	Go_O	0.0
161.905	0.2	stopfail	0.302	Go_X	0.0
164.429	1.0	go	0.344	Go_X	1.0
166.953	1.0	go	0.296	Go_O	1.0
169.477	1.0	go	0.331	Go_X	1.0
172.001	1.0	go	0.395	Go_X	1.0
174.526	1.0	go	0.372	Go_O	1.0
177.05	0.15	stopsuccess	0.0	Go_O	1.0
179.574	1.0	go	0.284	Go_X	1.0
182.098	1.0	go	0.346	Go_O	1.0
184.622	1.0	go	0.439	Go_O	1.0
187.147	1.0	go	0.462	Go_X	1.0
189.671	1.0	go	0.387	Go_O	1.0
192.195	1.0	go	0.322	Go_X	1.0
194.719	0.2	stopsuccess	0.0	Go_X	1.0
197.243	1.0	go	0.289	Go_O	1.0
199.768	1.0	go	0.296	Go_X	1.0
202.292	0.25	stopfail	0.304	Go_O	0.0
204.816	1.0	go	0.424	Go_O	1.0
207.34	0.2	stopsuccess	0.0	Go_X	1.0
209.864	0.25	stopfail	0.406	Go_O	0.0
212.389	1.0	go	0.335	Go_X	1.0
214.913	1.0	go	0.393	Go_X	1.0
217.437	1.0	go	0.371	Go_O	1.0
219.961	1.0	go	0.449	Go_O	1.0
222.485	0.2	stopsuccess	0.0	Go_X	1.0
225.01	1.0	go	0.378	Go_X	1.0
227.534	0.25	stopsuccess	0.0	Go_O	1.0
230.058	1.0	go	0.363	Go_X	1.0
232.582	1.0	go	0.362	Go_O	1.0
235.107	1.0	go	0.404	Go_X	1.0
237.631	1.0	go	0.355	Go_O	1.0
240.157	1.0	go	0.395	Go_O	1.0
242.679	1.0	go	0.41	Go_X	1.0
245.203	1.0	go	0.395	Go_O	1.0
247.728	1.0	go	0.464	Go_X	1.0
250.252	1.0	go	0.388	Go_X	1.0
252.776	0.3	stopfail	0.401	Go_X	0.0
255.3	1.0	go	0.292	Go_O	1.0
257.824	1.0	go	0.381	Go_X	1.0
260.349	1.0	go	0.334	Go_O	1.0
262.873	0.25	stopfail	0.322	Go_O	0.0
265.397	1.0	go	0.394	Go_X	1.0
267.921	1.0	go	0.562	Go_O	1.0
270.445	1.0	go	0.475	Go_O	1.0
272.97	1.0	go	0.4	Go_X	1.0
275.494	1.0	go	0.385	Go_X	1.0
278.018	1.0	go	0.617	Go_O	1.0
280.542	0.2	stopfail	0.386	Go_X	0.0
283.066	1.0	go	0.352	Go_X	1.0
285.591	1.0	go	0.282	Go_O	1.0
288.115	0.15	stopsuccess	0.0	Go_O	1.0
290.639	1.0	go	0.336	Go_X	1.0
293.163	1.0	go	0.419	Go_O	1.0
295.687	0.2	stopfail	0.224	Go_X	0.0
298.212	1.0	go	0.288	Go_O	1.0
300.736	0.15	stopsuccess	0.0	Go_O	1.0
303.26	1.0	go	0.34	Go_X	1.0
305.784	1.0	go	0.384	Go_O	1.0
308.308	1.0	go	0.249	Go_X	1.0
310.833	1.0	go	0.401	Go_O	1.0
313.357	1.0	go	0.324	Go_X	1.0
315.881	0.2	stopsuccess	0.0	Go_X	1.0
318.405	0.25	stopfail	0.332	Go_O	0.0
320.929	1.0	go	0.302	Go_X	1.0
323.454	1.0	go	0.327	Go_O	1.0
325.978	0.2	stopfail	0.307	Go_X	0.0
328.502	1.0	go	0.421	Go_X	1.0
331.026	1.0	go	0.565	Go_O	1.0
333.55	1.0	go	0.385	Go_X	1.0
336.075	1.0	go	0.37	Go_O	1.0
338.599	1.0	go	0.281	Go_X	1.0
341.123	1.0	go	0.35	Go_O	1.0
343.647	0.15	stopsuccess	0.0	Go_O	1.0
346.171	1.0	go	0.384	Go_O	1.0
348.696	1.0	go	0.327	Go_X	1.0
351.22	1.0	go	0.305	Go_O	1.0
353.744	1.0	go	0.329	Go_X	1.0
356.268	1.0	go	0.399	Go_O	1.0
358.792	0.2	stopsuccess	0.0	Go_X	1.0
361.317	1.0	go	0.112	Go_X	1.0
363.841	1.0	go	0.403	Go_X	1.0
366.365	1.0	go	0.375	Go_O	1.0
368.889	1.0	go	0.338	Go_O	1.0
371.413	0.25	stopfail	0.375	Go_O	0.0
373.938	1.0	go	0.384	Go_X	1.0
376.462	1.0	go	0.42	Go_O	1.0
378.986	0.2	stopfail	0.324	Go_X	0.0
381.51	1.0	go	0.682	Go_X	1.0
384.034	0.15	stopsuccess	0.0	Go_O	1.0
386.559	1.0	go	0.449	Go_O	1.0
389.083	1.0	go	0.333	Go_X	1.0
391.607	1.0	go	0.41	Go_X	1.0
394.131	1.0	go	0.384	Go_O	1.0
396.655	1.0	go	0.341	Go_X	1.0
399.18	1.0	go	0.365	Go_O	1.0
401.704	1.0	go	0.392	Go_O	0.0
404.228	0.2	stopfail	0.282	Go_X	0.0
406.752	1.0	go	0.397	Go_X	1.0
409.277	1.0	go	0.417	Go_X	1.0
411.801	1.0	go	0.0	Go_O	0.0
414.325	0.15	stopsuccess	0.0	Go_O	1.0
416.849	1.0	go	0.539	Go_X	1.0
419.373	1.0	go	0.465	Go_O	1.0
421.898	1.0	go	0.354	Go_X	1.0
424.422	1.0	go	0.426	Go_O	1.0
426.946	0.2	stopfail	0.407	Go_X	0.0
429.47	1.0	go	0.571	Go_X	1.0
431.994	1.0	go	0.386	Go_O	1.0
434.519	0.15	stopsuccess	0.0	Go_O	1.0
437.043	1.0	go	0.379	Go_X	1.0
439.567	1.0	go	0.411	Go_O	1.0
442.091	0.2	stopsuccess	0.0	Go_X	1.0
444.615	1.0	go	0.397	Go_X	1.0
447.14	1.0	go	0.404	Go_O	1.0
449.664	0.25	stopsuccess	0.0	Go_O	1.0
452.188	1.0	go	0.474	Go_O	1.0
454.712	1.0	go	0.428	Go_X	1.0
457.236	1.0	go	0.489	Go_O	1.0
459.761	1.0	go	0.383	Go_X	1.0
462.285	1.0	go	0.389	Go_X	1.0
464.809	1.0	go	0.366	Go_O	1.0
467.333	0.3	stopfail	0.485	Go_X	0.0
469.857	1.0	go	0.393	Go_O	1.0
472.382	0.25	stopfail	0.524	Go_O	0.0
474.906	1.0	go	0.408	Go_X	1.0
477.43	1.0	go	0.425	Go_X	1.0
479.954	1.0	go	0.358	Go_O	1.0
482.478	1.0	go	0.502	Go_X	1.0
485.003	1.0	go	0.518	Go_O	1.0
487.527	0.2	stopfail	0.305	Go_X	0.0
490.051	1.0	go	0.296	Go_O	1.0
492.575	1.0	go	0.38	Go_X	1.0
495.099	1.0	go	0.363	Go_O	1.0
497.624	0.15	stopsuccess	0.0	Go_O	1.0
500.148	0.2	stopsuccess	0.0	Go_X	1.0
502.672	0.25	stopsuccess	0.0	Go_O	1.0
505.196	1.0	go	0.502	Go_X	1.0
507.72	0.3	stopsuccess	0.0	Go_X	1.0
510.245	1.0	go	0.491	Go_O	1.0
512.769	1.0	go	0.454	Go_X	1.0
515.293	1.0	go	0.415	Go_X	1.0
517.817	1.0	go	0.387	Go_O	1.0
520.343	1.0	go	0.44	Go_X	1.0
522.866	1.0	go	0.34	Go_O	1.0
525.39	1.0	go	0.548	Go_O	1.0
527.914	1.0	go	0.423	Go_X	1.0
530.438	0.35	stopsuccess	0.0	Go_O	1.0
532.962	1.0	go	0.39	Go_X	1.0
535.487	1.0	go	0.487	Go_O	1.0
538.011	0.4	stopfail	0.364	Go_X	0.0
540.535	1.0	go	0.788	Go_X	1.0
543.076	1.0	go	0.387	Go_O	1.0
545.6	1.0	go	0.4	Go_X	1.0
548.124	1.0	go	0.508	Go_O	1.0
550.649	1.0	go	0.513	Go_O	1.0
553.173	0.35	stopfail	0.468	Go_O	0.0
555.697	1.0	go	0.363	Go_X	1.0
558.221	1.0	go	0.395	Go_O	1.0
560.745	1.0	go	0.419	Go_X	1.0
563.27	0.3	stopfail	0.408	Go_X	0.0
565.794	1.0	go	0.47	Go_X	1.0
568.318	0.25	stopsuccess	0.0	Go_O	1.0
570.842	1.0	go	0.457	Go_O	1.0
573.366	1.0	go	0.464	Go_X	1.0
575.891	1.0	go	0.428	Go_O	1.0
578.415	1.0	go	0.483	Go_O	1.0
580.939	1.0	go	0.676	Go_X	1.0
583.463	1.0	go	0.451	Go_O	1.0
585.987	1.0	go	0.432	Go_X	1.0
588.512	0.3	stopfail	0.471	Go_X	0.0
591.036	1.0	go	0.388	Go_O	1.0
593.56	1.0	go	0.407	Go_X	1.0
596.084	1.0	go	0.417	Go_X	1.0
598.608	1.0	go	0.449	Go_O	1.0
601.133	0.25	stopsuccess	0.0	Go_O	1.0
603.657	1.0	go	0.431	Go_X	1.0
606.181	0.3	stopfail	0.415	Go_X	0.0
608.705	1.0	go	0.367	Go_O	1.0
611.229	1.0	go	0.52	Go_O	1.0
613.754	0.25	stopsuccess	0.0	Go_O	1.0
616.278	1.0	go	0.342	Go_X	1.0
618.802	1.0	go	0.555	Go_O	1.0
621.326	1.0	go	0.757	Go_X	1.0
623.85	1.0	go	0.589	Go_O	1.0
626.375	1.0	go	0.509	Go_X	1.0
628.899	1.0	go	0.476	Go_O	1.0
631.423	1.0	go	0.415	Go_X	1.0
633.947	1.0	go	0.348	Go_O	1.0
636.472	1.0	go	0.373	Go_X	1.0
638.996	1.0	go	0.434	Go_O	1.0
641.52	0.3	stopfail	0.399	Go_X	0.0
644.044	1.0	go	0.601	Go_X	1.0
646.568	1.0	go	0.499	Go_O	1.0
649.093	0.25	stopfail	0.368	Go_O	0.0
651.617	1.0	go	0.537	Go_X	1.0
654.141	0.2	stopsuccess	0.0	Go_X	1.0
656.665	1.0	go	0.369	Go_O	1.0
659.189	1.0	go	0.327	Go_X	1.0
661.714	0.25	stopsuccess	0.0	Go_O	1.0
664.238	1.0	go	0.407	Go_X	1.0
666.762	0.3	stopfail	0.448	Go_X	0.0
669.286	1.0	go	0.554	Go_O	1.0
671.81	1.0	go	0.692	Go_X	1.0
674.335	1.0	go	0.317	Go_O	1.0
676.875	0.25	stopsuccess	0.0	Go_O	1.0
679.4	1.0	go	0.459	Go_O	1.0
681.924	1.0	go	0.336	Go_X	1.0
684.448	1.0	go	0.413	Go_O	1.0
686.972	1.0	go	0.35	Go_X	1.0
689.496	0.3	stopsuccess	0.0	Go_X	1.0
692.021	1.0	go	0.343	Go_O	1.0
694.545	1.0	go	0.532	Go_X	1.0
697.069	0.35	stopfail	0.344	Go_O	0.0
699.593	1.0	go	0.28	Go_X	1.0
702.117	1.0	go	0.415	Go_O	1.0
704.642	1.0	go	0.391	Go_X	1.0
707.166	1.0	go	0.326	Go_O	1.0
709.69	0.3	stopfail	0.309	Go_X	0.0
712.214	1.0	go	0.368	Go_X	1.0
714.739	0.25	stopfail	0.573	Go_O	0.0
717.263	1.0	go	0.459	Go_O	1.0
719.787	1.0	go	0.478	Go_O	1.0
722.311	0.2	stopsuccess	0.0	Go_X	1.0
724.835	1.0	go	0.385	Go_X	1.0
727.36	1.0	go	0.331	Go_O	1.0
729.884	1.0	go	0.434	Go_X	1.0
732.408	1.0	go	0.455	Go_O	1.0
734.932	0.25	stopsuccess	0.0	Go_O	1.0
737.456	1.0	go	0.388	Go_X	1.0
739.981	0.3	stopfail	0.347	Go_X	0.0
742.505	1.0	go	0.36	Go_O	0.0
745.029	1.0	go	0.488	Go_X	1.0
747.553	1.0	go	0.453	Go_O	1.0
750.077	1.0	go	0.448	Go_X	1.0
752.602	1.0	go	0.404	Go_X	1.0
755.126	1.0	go	0.388	Go_O	1.0
757.65	0.25	stopfail	0.417	Go_O	0.0
760.174	1.0	go	0.518	Go_X	1.0
762.698	1.0	go	0.438	Go_O	1.0
765.223	0.2	stopsuccess	0.0	Go_X	1.0
767.747	1.0	go	0.39	Go_O	1.0
770.271	1.0	go	0.303	Go_X	1.0
772.795	0.25	stopsuccess	0.0	Go_O	1.0
775.319	1.0	go	0.344	Go_X	1.0
777.844	1.0	go	0.49	Go_O	1.0
780.368	1.0	go	0.521	Go_X	1.0
782.892	1.0	go	0.565	Go_O	1.0
785.416	0.3	stopfail	0.304	Go_X	0.0
787.94	1.0	go	0.318	Go_O	1.0
790.465	0.25	stopfail	0.43	Go_O	0.0
792.989	1.0	go	0.341	Go_X	1.0
795.513	1.0	go	0.488	Go_O	1.0
798.037	1.0	go	0.557	Go_X	1.0
800.561	1.0	go	0.39	Go_O	1.0
803.086	1.0	go	0.375	Go_X	1.0
805.61	0.2	stopsuccess	0.0	Go_X	1.0
808.134	1.0	go	0.282	Go_O	1.0
810.675	1.0	go	0.258	Go_X	1.0
813.199	0.25	stopfail	0.24	Go_O	0.0
815.723	0.2	stopsuccess	0.0	Go_X	1.0
818.248	1.0	go	0.394	Go_O	1.0
820.772	1.0	go	0.306	Go_X	1.0
823.296	1.0	go	0.431	Go_X	1.0
825.82	1.0	go	0.303	Go_O	1.0
828.344	0.25	stopfail	0.419	Go_O	0.0
830.869	1.0	go	0.514	Go_X	1.0
