onset	duration	trial_type	response_time	stim_file	accuracy
286.594	1.0	go	0.724	Go_O	1.0
289.168	1.0	go	0.355	Go_X	1.0
291.692	1.0	go	0.498	Go_O	1.0
294.216	1.0	go	0.433	Go_X	1.0
296.74	1.0	go	0.636	Go_X	1.0
299.265	1.0	go	0.782	Go_O	1.0
301.789	0.25	stop	0.0	Go_O	1.0
304.313	1.0	go	0.469	Go_X	1.0
306.837	0.3	stop	0.0	Go_X	1.0
309.361	1.0	go	0.557	Go_O	1.0
311.886	1.0	go	0.738	Go_X	1.0
314.41	1.0	go	0.693	Go_O	1.0
316.934	0.35	stop	0.0	Go_O	1.0
319.458	1.0	go	0.612	Go_O	1.0
321.982	1.0	go	0.669	Go_X	1.0
324.506	0.4	stop	0.519	Go_X	0.0
327.031	0.35	stop	0.0	Go_O	1.0
329.555	1.0	go	0.443	Go_O	1.0
332.079	1.0	go	0.638	Go_X	1.0
334.603	0.4	stop	0.0	Go_X	1.0
337.127	1.0	go	0.69	Go_O	1.0
339.652	1.0	go	0.725	Go_X	1.0
342.176	0.45	stop	0.0	Go_O	1.0
344.7	1.0	go	0.666	Go_O	1.0
347.224	1.0	go	0.7	Go_X	1.0
349.748	0.5	stop	0.0	Go_X	1.0
352.272	1.0	go	0.745	Go_X	1.0
354.797	1.0	go	0.688	Go_O	1.0
357.321	0.55	stop	0.0	Go_O	1.0
359.845	1.0	go	0.501	Go_O	1.0
362.369	1.0	go	0.686	Go_X	1.0
364.893	1.0	go	0.695	Go_O	1.0
367.418	1.0	go	0.737	Go_X	1.0
369.942	1.0	go	0.777	Go_X	1.0
372.466	0.6	stop	0.708	Go_X	0.0
374.99	1.0	go	0.769	Go_O	1.0
377.514	1.0	go	0.731	Go_X	1.0
380.038	1.0	go	0.707	Go_O	1.0
382.563	1.0	go	0.791	Go_X	1.0
385.087	1.0	go	0.746	Go_O	1.0
387.611	0.55	stop	0.708	Go_O	0.0
390.135	1.0	go	0.814	Go_X	1.0
392.659	1.0	go	0.687	Go_O	1.0
395.184	1.0	go	0.774	Go_O	1.0
397.708	1.0	go	0.652	Go_X	1.0
400.232	1.0	go	0.519	Go_O	1.0
402.756	1.0	go	0.319	Go_X	1.0
405.28	0.5	stop	0.621	Go_X	0.0
407.804	1.0	go	0.65	Go_O	1.0
410.329	1.0	go	0.623	Go_X	1.0
412.853	0.45	stop	0.0	Go_O	1.0
415.377	1.0	go	0.638	Go_X	1.0
417.901	0.5	stop	0.0	Go_X	1.0
420.425	0.55	stop	0.587	Go_O	0.0
422.95	1.0	go	0.768	Go_O	1.0
425.474	1.0	go	0.882	Go_X	1.0
427.998	1.0	go	0.768	Go_O	1.0
430.522	1.0	go	0.649	Go_X	1.0
433.046	0.5	stop	0.0	Go_X	1.0
435.57	1.0	go	0.661	Go_O	1.0
438.095	0.55	stop	0.0	Go_O	1.0
440.619	1.0	go	0.0	Go_X	0.0
443.143	1.0	go	0.684	Go_O	1.0
445.667	1.0	go	0.708	Go_O	1.0
448.191	1.0	go	0.638	Go_X	1.0
450.716	1.0	go	0.681	Go_O	1.0
453.24	1.0	go	0.766	Go_X	1.0
455.764	1.0	go	0.786	Go_O	1.0
458.288	1.0	go	0.781	Go_X	1.0
460.812	1.0	go	0.652	Go_O	1.0
463.336	0.6	stop	0.538	Go_X	0.0
465.861	1.0	go	0.563	Go_X	1.0
468.385	1.0	go	0.718	Go_O	1.0
470.909	1.0	go	0.735	Go_X	1.0
473.433	0.55	stop	0.0	Go_O	1.0
475.957	1.0	go	0.593	Go_O	1.0
478.482	1.0	go	0.627	Go_X	1.0
481.006	1.0	go	0.706	Go_X	1.0
483.53	1.0	go	0.664	Go_O	1.0
486.054	1.0	go	0.807	Go_O	1.0
488.578	1.0	go	0.78	Go_X	1.0
491.102	0.6	stop	0.0	Go_X	1.0
493.627	1.0	go	0.628	Go_X	1.0
496.151	1.0	go	0.617	Go_O	1.0
498.675	0.65	stop	0.728	Go_O	0.0
501.199	1.0	go	0.768	Go_X	1.0
503.723	1.0	go	0.613	Go_O	1.0
506.248	0.6	stop	0.0	Go_X	1.0
508.772	1.0	go	0.622	Go_O	1.0
511.296	0.65	stop	0.718	Go_O	0.0
513.82	1.0	go	0.918	Go_X	1.0
516.344	1.0	go	0.952	Go_X	1.0
518.868	1.0	go	0.729	Go_O	1.0
521.393	1.0	go	0.924	Go_O	1.0
523.917	1.0	go	0.636	Go_X	1.0
526.441	0.6	stop	0.751	Go_X	0.0
528.965	0.55	stop	0.0	Go_O	1.0
531.489	1.0	go	0.912	Go_X	0.0
534.014	1.0	go	0.702	Go_O	1.0
536.538	0.6	stop	0.0	Go_X	1.0
539.062	1.0	go	0.578	Go_O	1.0
541.586	1.0	go	0.606	Go_X	1.0
544.11	1.0	go	0.895	Go_X	1.0
546.634	1.0	go	0.779	Go_O	1.0
549.159	1.0	go	0.745	Go_O	1.0
551.683	1.0	go	0.595	Go_X	1.0
554.207	0.65	stop	0.769	Go_O	0.0
556.731	1.0	go	0.797	Go_O	1.0
559.255	1.0	go	0.873	Go_X	1.0
561.78	1.0	go	0.957	Go_O	1.0
564.304	1.0	go	0.772	Go_X	1.0
566.828	1.0	go	0.411	Go_O	1.0
569.352	0.6	stop	0.0	Go_X	1.0
571.876	1.0	go	0.623	Go_X	1.0
574.4	1.0	go	0.734	Go_O	1.0
576.925	1.0	go	0.815	Go_X	1.0
579.449	1.0	go	0.79	Go_X	1.0
581.973	0.65	stop	0.0	Go_O	1.0
584.497	1.0	go	0.568	Go_O	1.0
587.021	1.0	go	0.931	Go_X	1.0
589.546	0.7	stop	0.553	Go_X	0.0
592.07	1.0	go	0.712	Go_O	1.0
594.594	0.65	stop	0.0	Go_O	1.0
597.118	1.0	go	0.796	Go_O	1.0
599.642	1.0	go	0.901	Go_X	1.0
602.167	1.0	go	0.742	Go_O	1.0
604.691	1.0	go	0.744	Go_X	1.0
607.215	1.0	go	0.998	Go_O	1.0
609.739	1.0	go	0.61	Go_X	1.0
612.263	1.0	go	0.937	Go_X	1.0
614.787	0.7	stop	0.783	Go_X	0.0
617.312	1.0	go	0.73	Go_O	1.0
619.836	1.0	go	0.946	Go_X	1.0
622.36	1.0	go	0.759	Go_O	1.0
624.884	0.65	stop	0.0	Go_O	1.0
627.408	1.0	go	0.852	Go_X	1.0
629.933	1.0	go	0.7	Go_O	1.0
632.457	1.0	go	0.629	Go_X	1.0
634.981	1.0	go	0.576	Go_O	1.0
637.505	0.7	stop	0.0	Go_X	1.0
640.029	1.0	go	0.59	Go_X	1.0
642.553	1.0	go	0.569	Go_O	1.0
645.078	0.75	stop	0.772	Go_O	0.0
647.602	1.0	go	0.695	Go_O	1.0
650.126	1.0	go	0.606	Go_X	1.0
652.65	0.7	stop	0.0	Go_X	1.0
655.174	1.0	go	0.583	Go_O	1.0
657.699	1.0	go	0.714	Go_X	1.0
660.223	0.75	stop	0.683	Go_O	0.0
662.747	1.0	go	0.676	Go_X	1.0
665.271	1.0	go	0.631	Go_O	1.0
667.795	1.0	go	0.878	Go_X	1.0
670.319	1.0	go	0.839	Go_O	1.0
672.844	1.0	go	0.851	Go_X	1.0
675.368	1.0	go	0.492	Go_O	1.0
677.892	0.7	stop	0.68	Go_X	0.0
680.416	1.0	go	0.761	Go_O	1.0
682.94	0.65	stop	0.732	Go_O	0.0
685.465	1.0	go	0.718	Go_X	1.0
687.989	1.0	go	0.689	Go_X	1.0
690.513	1.0	go	0.688	Go_O	1.0
693.037	1.0	go	0.959	Go_X	1.0
695.561	1.0	go	0.604	Go_O	1.0
698.085	0.6	stop	0.628	Go_X	0.0
700.61	1.0	go	0.595	Go_O	1.0
703.134	1.0	go	0.633	Go_X	1.0
705.658	1.0	go	0.671	Go_O	1.0
708.182	0.55	stop	0.0	Go_O	1.0
710.706	0.6	stop	0.0	Go_X	1.0
713.231	0.65	stop	0.669	Go_O	0.0
715.755	1.0	go	0.738	Go_X	1.0
718.279	0.6	stop	0.67	Go_X	0.0
720.803	1.0	go	0.818	Go_O	1.0
723.327	1.0	go	0.955	Go_X	1.0
725.851	1.0	go	0.504	Go_O	1.0
728.376	1.0	go	0.707	Go_X	1.0
730.9	1.0	go	0.733	Go_O	1.0
733.424	1.0	go	0.661	Go_X	1.0
735.948	1.0	go	0.697	Go_O	1.0
738.472	1.0	go	0.74	Go_X	1.0
740.997	0.55	stop	0.0	Go_O	1.0
743.521	1.0	go	0.532	Go_O	1.0
746.045	1.0	go	0.725	Go_X	1.0
748.569	0.6	stop	0.559	Go_X	0.0
751.093	1.0	go	0.666	Go_X	1.0
753.617	1.0	go	0.724	Go_O	1.0
756.142	1.0	go	0.662	Go_O	1.0
758.666	1.0	go	0.676	Go_X	0.0
761.19	1.0	go	0.664	Go_X	0.0
763.714	0.55	stop	0.568	Go_O	0.0
766.238	1.0	go	0.734	Go_O	1.0
768.763	1.0	go	0.874	Go_O	1.0
771.287	1.0	go	0.71	Go_X	1.0
773.811	0.5	stop	0.0	Go_X	1.0
776.335	1.0	go	0.63	Go_O	1.0
778.859	0.55	stop	0.0	Go_O	1.0
781.383	1.0	go	0.581	Go_X	1.0
783.908	1.0	go	0.78	Go_X	1.0
786.432	1.0	go	0.637	Go_O	1.0
788.956	1.0	go	0.59	Go_O	1.0
791.48	1.0	go	0.888	Go_X	1.0
794.004	1.0	go	0.687	Go_X	1.0
796.529	1.0	go	0.555	Go_O	1.0
799.053	0.6	stop	0.0	Go_X	1.0
801.577	1.0	go	0.615	Go_X	1.0
804.101	1.0	go	0.705	Go_O	1.0
806.625	1.0	go	0.0	Go_O	0.0
809.149	1.0	go	0.458	Go_X	1.0
811.674	0.65	stop	0.776	Go_O	0.0
814.198	1.0	go	0.889	Go_O	1.0
816.722	0.6	stop	0.664	Go_X	0.0
819.246	1.0	go	0.0	Go_X	0.0
821.77	1.0	go	0.58	Go_O	1.0
824.295	0.55	stop	0.653	Go_O	0.0
826.819	1.0	go	0.595	Go_X	1.0
829.343	1.0	go	0.685	Go_X	1.0
831.867	1.0	go	0.739	Go_O	1.0
834.391	1.0	go	0.858	Go_X	1.0
836.915	1.0	go	0.688	Go_O	1.0
839.44	1.0	go	0.641	Go_X	1.0
841.964	1.0	go	0.709	Go_O	1.0
844.488	1.0	go	0.646	Go_X	1.0
847.012	1.0	go	0.639	Go_O	1.0
849.536	1.0	go	0.598	Go_X	1.0
852.061	0.5	stop	0.0	Go_X	1.0
854.585	1.0	go	0.469	Go_O	1.0
857.109	1.0	go	0.678	Go_X	1.0
859.633	0.55	stop	0.55	Go_O	0.0
862.157	1.0	go	0.0	Go_O	0.0
864.681	0.5	stop	0.0	Go_X	1.0
867.206	1.0	go	0.685	Go_X	1.0
869.73	1.0	go	0.56	Go_O	1.0
872.254	0.55	stop	0.529	Go_O	0.0
874.778	1.0	go	0.641	Go_O	1.0
877.302	0.5	stop	0.0	Go_X	1.0
879.827	1.0	go	0.657	Go_X	1.0
882.351	1.0	go	0.433	Go_O	1.0
884.875	1.0	go	0.618	Go_X	1.0
887.399	0.55	stop	0.679	Go_O	0.0
889.923	1.0	go	0.623	Go_O	1.0
892.447	1.0	go	0.811	Go_X	1.0
894.972	1.0	go	0.529	Go_X	1.0
897.496	1.0	go	0.689	Go_O	1.0
900.02	0.5	stop	0.0	Go_X	1.0
902.544	1.0	go	0.68	Go_O	1.0
905.068	1.0	go	0.821	Go_X	1.0
907.593	0.55	stop	0.5	Go_O	0.0
910.117	1.0	go	0.594	Go_O	1.0
912.641	1.0	go	0.633	Go_X	1.0
915.165	1.0	go	0.829	Go_X	1.0
917.689	1.0	go	0.773	Go_O	1.0
920.214	0.5	stop	0.0	Go_X	1.0
922.738	1.0	go	0.623	Go_X	1.0
925.262	0.55	stop	0.725	Go_O	0.0
927.786	1.0	go	0.594	Go_O	1.0
930.31	1.0	go	0.723	Go_O	1.0
932.834	0.5	stop	0.527	Go_X	0.0
935.359	1.0	go	0.833	Go_X	1.0
937.883	1.0	go	0.967	Go_X	1.0
940.407	1.0	go	0.638	Go_O	1.0
942.931	1.0	go	0.603	Go_O	1.0
945.455	0.45	stop	0.51	Go_O	0.0
947.98	1.0	go	0.906	Go_X	1.0
950.504	0.4	stop	0.0	Go_X	1.0
953.028	1.0	go	0.731	Go_O	1.0
955.552	1.0	go	0.824	Go_X	1.0
958.076	1.0	go	0.0	Go_O	0.0
960.6	1.0	go	0.714	Go_X	1.0
963.125	1.0	go	0.752	Go_X	1.0
965.649	1.0	go	0.601	Go_O	1.0
968.173	0.45	stop	0.0	Go_O	1.0
970.697	1.0	go	0.723	Go_O	1.0
973.221	1.0	go	0.862	Go_X	1.0
975.746	0.5	stop	0.0	Go_X	1.0
978.27	1.0	go	0.641	Go_O	1.0
980.794	1.0	go	0.798	Go_X	1.0
983.318	0.55	stop	0.0	Go_O	1.0
985.842	1.0	go	0.655	Go_O	1.0
988.366	1.0	go	0.551	Go_X	1.0
990.891	1.0	go	0.691	Go_O	1.0
993.415	1.0	go	0.873	Go_X	1.0
995.939	0.6	stop	0.0	Go_X	1.0
998.463	1.0	go	0.671	Go_O	1.0
1000.987	0.65	stop	0.714	Go_O	0.0
1003.512	1.0	go	0.894	Go_X	1.0
1006.036	1.0	go	0.692	Go_X	1.0
1008.56	1.0	go	0.639	Go_O	1.0
1011.084	1.0	go	0.97	Go_X	1.0
1013.608	1.0	go	0.755	Go_O	1.0
1016.132	0.6	stop	0.584	Go_X	0.0
1018.657	1.0	go	0.65	Go_X	1.0
1021.181	1.0	go	0.757	Go_O	1.0
1023.705	0.55	stop	0.0	Go_O	1.0
1026.229	0.6	stop	0.0	Go_X	1.0
1028.753	1.0	go	0.538	Go_X	1.0
1031.278	1.0	go	0.811	Go_O	1.0
1033.802	1.0	go	0.944	Go_O	1.0
1036.326	1.0	go	0.655	Go_X	1.0
1038.85	0.65	stop	0.736	Go_O	0.0
1041.374	1.0	go	0.0	Go_X	0.0
