onset	duration	trial_type	response_time	stim_file	accuracy
0.5210000000000008	1.0	go	0.0	Go_X	0.0
3.0450000000000017	1.0	go	0.0	Go_O	0.0
5.569000000000003	1.0	go	0.0	Go_O	0.0
8.093000000000004	1.0	go	0.0	Go_X	0.0
10.617000000000004	1.0	go	0.8	Go_O	1.0
13.14200000000001	1.0	go	0.43	Go_X	1.0
15.665999999999997	0.25	stopsuccess	0.0	Go_O	1.0
18.189999999999998	1.0	go	0.427	Go_O	1.0
20.714	0.3	stopfail	0.515	Go_X	0.0
23.238	1.0	go	0.468	Go_X	1.0
25.762	1.0	go	0.526	Go_X	1.0
28.287000000000006	1.0	go	0.361	Go_O	1.0
30.811000000000007	0.25	stopfail	0.441	Go_O	0.0
33.33500000000001	1.0	go	0.485	Go_X	1.0
35.85900000000001	1.0	go	0.533	Go_O	1.0
38.38300000000001	0.2	stopfail	0.312	Go_X	0.0
40.907	0.15	stopsuccess	0.0	Go_O	1.0
43.432000000000016	1.0	go	0.359	Go_X	1.0
45.95600000000002	1.0	go	0.457	Go_O	1.0
48.47999999999999	0.2	stopsuccess	0.0	Go_X	1.0
51.00399999999999	1.0	go	0.461	Go_X	1.0
53.52799999999999	1.0	go	0.403	Go_O	1.0
56.053	0.25	stopfail	0.438	Go_O	0.0
58.577	1.0	go	0.56	Go_O	1.0
61.101	1.0	go	0.576	Go_X	1.0
63.625	0.2	stopsuccess	0.0	Go_X	1.0
66.149	1.0	go	0.557	Go_O	1.0
68.673	1.0	go	0.566	Go_X	1.0
71.19800000000001	0.25	stopsuccess	0.0	Go_O	1.0
73.72200000000001	1.0	go	0.545	Go_X	1.0
76.24600000000001	1.0	go	0.602	Go_O	1.0
78.77000000000001	1.0	go	0.441	Go_X	1.0
81.29400000000001	1.0	go	0.374	Go_O	1.0
83.81800000000001	1.0	go	0.465	Go_O	1.0
86.34299999999999	0.3	stopfail	0.424	Go_X	0.0
88.86699999999999	1.0	go	0.641	Go_X	1.0
91.39099999999999	1.0	go	0.518	Go_O	1.0
93.91499999999999	1.0	go	0.558	Go_X	1.0
96.439	1.0	go	0.582	Go_X	1.0
98.963	1.0	go	0.59	Go_O	1.0
101.488	0.25	stopsuccess	0.0	Go_O	1.0
104.012	1.0	go	0.461	Go_X	1.0
106.536	1.0	go	0.436	Go_O	1.0
109.06	1.0	go	0.547	Go_X	1.0
111.584	1.0	go	0.637	Go_O	1.0
114.108	1.0	go	0.611	Go_O	1.0
116.63300000000001	1.0	go	0.516	Go_X	1.0
119.15700000000001	0.3	stopsuccess	0.0	Go_X	1.0
121.68100000000001	1.0	go	0.496	Go_X	1.0
124.20500000000001	1.0	go	0.738	Go_O	1.0
126.72900000000001	0.35	stopsuccess	0.0	Go_O	1.0
129.254	1.0	go	0.558	Go_O	1.0
131.778	0.4	stopfail	0.405	Go_X	0.0
134.302	0.35	stopsuccess	0.0	Go_O	1.0
136.843	1.0	go	0.538	Go_X	1.0
139.367	1.0	go	0.665	Go_O	1.0
141.891	1.0	go	0.657	Go_X	1.0
144.415	1.0	go	0.603	Go_X	1.0
146.939	0.4	stopsuccess	0.0	Go_X	1.0
149.464	1.0	go	0.69	Go_O	1.0
151.988	0.45	stopsuccess	0.0	Go_O	1.0
154.512	1.0	go	0.76	Go_X	1.0
157.036	1.0	go	0.771	Go_O	1.0
159.56	1.0	go	0.732	Go_X	1.0
162.084	1.0	go	0.659	Go_O	1.0
164.609	1.0	go	0.606	Go_X	1.0
167.133	1.0	go	0.773	Go_O	1.0
169.657	1.0	go	0.818	Go_O	1.0
172.18099999999998	1.0	go	0.555	Go_X	1.0
174.70499999999998	1.0	go	0.806	Go_X	0.0
177.22899999999998	0.5	stopfail	0.6	Go_X	0.0
179.75400000000002	1.0	go	0.438	Go_O	1.0
182.27800000000002	1.0	go	0.548	Go_O	1.0
184.80200000000002	1.0	go	0.481	Go_X	1.0
187.32600000000002	0.45	stopsuccess	0.0	Go_O	1.0
189.85000000000002	1.0	go	0.832	Go_O	1.0
192.375	1.0	go	0.404	Go_X	1.0
194.899	1.0	go	0.602	Go_X	1.0
197.423	1.0	go	0.838	Go_O	1.0
199.947	1.0	go	0.805	Go_O	1.0
202.471	1.0	go	0.623	Go_X	1.0
204.995	0.5	stopsuccess	0.0	Go_X	1.0
207.51999999999998	1.0	go	0.57	Go_O	1.0
210.04399999999998	1.0	go	0.709	Go_X	1.0
212.56799999999998	0.55	stopfail	0.634	Go_O	0.0
215.09199999999998	1.0	go	0.819	Go_O	1.0
217.61599999999999	1.0	go	0.661	Go_X	1.0
220.14	0.5	stopsuccess	0.0	Go_X	1.0
222.66500000000002	1.0	go	0.611	Go_X	1.0
225.18900000000002	0.55	stopfail	0.677	Go_O	0.0
227.71300000000002	1.0	go	0.875	Go_O	1.0
230.23700000000002	1.0	go	0.67	Go_O	1.0
232.76100000000002	1.0	go	0.631	Go_X	1.0
235.28500000000003	1.0	go	0.946	Go_X	1.0
237.81	1.0	go	0.682	Go_O	1.0
240.334	0.5	stopfail	0.459	Go_X	0.0
242.858	0.45	stopsuccess	0.0	Go_O	1.0
245.382	1.0	go	0.731	Go_X	1.0
247.906	1.0	go	0.77	Go_O	1.0
250.43	0.5	stopsuccess	0.0	Go_X	1.0
252.95499999999998	1.0	go	0.989	Go_X	1.0
255.47899999999998	1.0	go	0.737	Go_O	1.0
258.003	1.0	go	0.804	Go_O	1.0
260.527	1.0	go	0.589	Go_X	1.0
263.051	1.0	go	0.753	Go_O	1.0
265.575	1.0	go	0.647	Go_X	1.0
268.1	0.55	stopfail	0.634	Go_O	0.0
270.624	1.0	go	0.708	Go_X	1.0
273.148	1.0	go	0.944	Go_O	1.0
275.672	1.0	go	0.789	Go_X	1.0
278.196	1.0	go	0.661	Go_O	1.0
280.721	1.0	go	0.837	Go_O	1.0
283.245	0.5	stopsuccess	0.0	Go_X	1.0
285.769	1.0	go	0.0	Go_X	0.0
288.293	1.0	go	0.527	Go_X	1.0
290.817	1.0	go	0.519	Go_O	1.0
293.341	1.0	go	0.635	Go_O	1.0
295.866	0.55	stopsuccess	0.0	Go_O	1.0
298.39	1.0	go	0.752	Go_X	1.0
300.914	1.0	go	0.729	Go_O	1.0
303.438	0.6	stopfail	0.605	Go_X	0.0
305.962	1.0	go	0.742	Go_X	1.0
308.486	0.55	stopfail	0.639	Go_O	0.0
311.011	1.0	go	0.718	Go_X	1.0
313.535	1.0	go	0.0	Go_O	0.0
316.059	1.0	go	0.618	Go_O	1.0
318.583	1.0	go	0.561	Go_X	1.0
321.107	1.0	go	0.832	Go_O	0.0
323.63100000000003	1.0	go	0.674	Go_X	1.0
326.156	1.0	go	0.571	Go_X	1.0
328.68	0.5	stopfail	0.648	Go_X	0.0
331.204	1.0	go	0.639	Go_O	1.0
333.728	1.0	go	0.688	Go_X	1.0
336.252	1.0	go	0.594	Go_O	1.0
338.776	0.45	stopsuccess	0.0	Go_O	1.0
341.301	1.0	go	0.809	Go_X	1.0
343.825	1.0	go	0.757	Go_O	1.0
346.349	1.0	go	0.563	Go_X	1.0
348.873	1.0	go	0.738	Go_O	1.0
351.397	0.5	stopsuccess	0.0	Go_X	1.0
353.922	1.0	go	0.0	Go_O	0.0
356.446	1.0	go	0.515	Go_X	1.0
358.97	0.55	stopfail	0.576	Go_O	0.0
361.494	1.0	go	0.495	Go_X	1.0
364.01800000000003	1.0	go	0.586	Go_O	1.0
366.54200000000003	0.5	stopsuccess	0.0	Go_X	1.0
369.067	1.0	go	0.521	Go_X	1.0
371.591	1.0	go	0.805	Go_O	1.0
374.115	0.55	stopsuccess	0.0	Go_O	1.0
376.639	1.0	go	0.421	Go_X	1.0
379.163	1.0	go	0.503	Go_O	1.0
381.687	1.0	go	0.725	Go_X	1.0
384.212	1.0	go	0.761	Go_O	1.0
386.736	1.0	go	0.535	Go_O	1.0
389.26	1.0	go	0.728	Go_X	1.0
391.784	0.6	stopfail	0.504	Go_X	0.0
394.308	1.0	go	0.626	Go_O	1.0
396.832	0.55	stopsuccess	0.0	Go_O	1.0
399.357	1.0	go	0.433	Go_X	1.0
401.88100000000003	1.0	go	0.756	Go_O	1.0
404.40500000000003	1.0	go	0.75	Go_X	1.0
406.92900000000003	1.0	go	0.583	Go_O	1.0
409.45300000000003	1.0	go	0.74	Go_X	1.0
411.977	0.6	stopfail	0.713	Go_X	0.0
414.502	1.0	go	0.974	Go_X	1.0
417.026	1.0	go	0.472	Go_O	1.0
419.55	1.0	go	0.63	Go_O	1.0
422.074	0.55	stopsuccess	0.0	Go_O	1.0
424.598	0.6	stopfail	0.62	Go_X	0.0
427.122	0.55	stopsuccess	0.0	Go_O	1.0
429.647	1.0	go	0.632	Go_X	1.0
432.171	0.6	stopsuccess	0.0	Go_X	1.0
434.695	1.0	go	0.62	Go_X	1.0
437.219	1.0	go	0.856	Go_O	1.0
439.743	1.0	go	0.983	Go_X	1.0
442.268	1.0	go	0.0	Go_O	0.0
444.792	1.0	go	0.599	Go_O	1.0
447.316	1.0	go	0.67	Go_X	1.0
449.84	1.0	go	0.524	Go_O	1.0
452.364	1.0	go	0.679	Go_X	0.0
454.888	0.65	stopfail	0.761	Go_O	0.0
457.41299999999995	1.0	go	0.568	Go_X	1.0
459.93699999999995	1.0	go	0.82	Go_O	1.0
462.46099999999996	0.6	stopfail	0.704	Go_X	0.0
464.98499999999996	1.0	go	0.797	Go_X	1.0
467.50899999999996	1.0	go	0.705	Go_O	1.0
470.03299999999996	1.0	go	0.0	Go_X	0.0
472.55800000000005	1.0	go	0.754	Go_O	1.0
475.08200000000005	1.0	go	0.964	Go_O	1.0
477.60600000000005	0.55	stopsuccess	0.0	Go_O	1.0
480.13000000000005	1.0	go	0.68	Go_X	1.0
482.65400000000005	1.0	go	0.781	Go_O	1.0
485.17800000000005	1.0	go	0.0	Go_X	0.0
487.70300000000003	0.6	stopfail	0.837	Go_X	0.0
490.22700000000003	1.0	go	0.902	Go_O	1.0
492.75100000000003	0.55	stopfail	0.732	Go_O	0.0
495.27500000000003	1.0	go	0.487	Go_X	1.0
497.79900000000004	1.0	go	0.767	Go_O	1.0
500.32300000000004	1.0	go	0.903	Go_X	1.0
502.848	1.0	go	0.625	Go_O	1.0
505.372	1.0	go	0.96	Go_X	1.0
507.896	1.0	go	0.813	Go_X	1.0
510.42	1.0	go	0.891	Go_O	1.0
512.944	0.5	stopfail	0.528	Go_X	0.0
515.4680000000001	1.0	go	0.623	Go_X	1.0
517.9929999999999	1.0	go	0.676	Go_O	1.0
520.517	1.0	go	0.584	Go_X	1.0
523.0409999999999	1.0	go	0.698	Go_O	1.0
525.565	0.45	stopsuccess	0.0	Go_O	1.0
528.0889999999999	1.0	go	0.482	Go_X	1.0
530.614	0.5	stopsuccess	0.0	Go_X	1.0
533.1379999999999	1.0	go	0.563	Go_O	1.0
535.662	1.0	go	0.567	Go_X	1.0
538.1859999999999	0.55	stopfail	0.741	Go_O	0.0
540.71	1.0	go	0.7	Go_O	1.0
543.2339999999999	1.0	go	0.845	Go_O	1.0
545.759	1.0	go	0.707	Go_X	1.0
548.2829999999999	1.0	go	0.756	Go_O	1.0
550.807	1.0	go	0.507	Go_X	1.0
553.3309999999999	1.0	go	0.715	Go_X	1.0
555.855	1.0	go	0.855	Go_O	1.0
558.3789999999999	1.0	go	0.697	Go_X	1.0
560.904	1.0	go	0.621	Go_O	1.0
563.4280000000001	1.0	go	0.828	Go_X	1.0
565.952	0.5	stopsuccess	0.0	Go_X	1.0
568.4760000000001	1.0	go	0.593	Go_O	1.0
571.0	1.0	go	0.0	Go_X	0.0
573.5240000000001	0.55	stopfail	0.65	Go_O	0.0
576.049	1.0	go	0.696	Go_O	1.0
578.5730000000001	0.5	stopsuccess	0.0	Go_X	1.0
581.097	1.0	go	0.589	Go_X	1.0
583.6210000000001	1.0	go	0.694	Go_O	1.0
586.145	0.55	stopsuccess	0.0	Go_O	1.0
588.6690000000001	1.0	go	0.6	Go_X	1.0
591.194	0.6	stopsuccess	0.0	Go_X	1.0
593.7180000000001	1.0	go	0.737	Go_O	1.0
596.242	1.0	go	0.989	Go_O	1.0
598.7660000000001	1.0	go	0.727	Go_X	1.0
601.29	0.65	stopfail	0.615	Go_O	0.0
603.815	1.0	go	0.507	Go_O	1.0
606.3389999999999	1.0	go	0.561	Go_X	1.0
608.863	1.0	go	0.614	Go_X	1.0
611.387	1.0	go	0.737	Go_O	1.0
613.9110000000001	0.6	stopsuccess	0.0	Go_X	1.0
616.435	1.0	go	0.371	Go_X	1.0
618.96	1.0	go	0.645	Go_O	1.0
621.4839999999999	0.65	stopfail	0.6	Go_O	0.0
624.008	1.0	go	0.671	Go_X	1.0
626.5319999999999	1.0	go	0.684	Go_O	1.0
629.056	1.0	go	0.838	Go_O	1.0
631.5799999999999	1.0	go	0.719	Go_X	1.0
634.105	0.6	stopsuccess	0.0	Go_X	1.0
636.6289999999999	1.0	go	0.601	Go_O	1.0
639.153	0.65	stopfail	0.9	Go_O	0.0
641.6769999999999	1.0	go	0.53	Go_X	1.0
644.201	1.0	go	0.86	Go_O	1.0
646.7249999999999	0.6	stopsuccess	0.0	Go_X	1.0
649.25	1.0	go	0.713	Go_X	0.0
651.7740000000001	1.0	go	0.985	Go_O	1.0
654.298	1.0	go	0.362	Go_X	1.0
656.8220000000001	1.0	go	0.419	Go_X	1.0
659.346	0.65	stopfail	0.23	Go_O	0.0
661.8699999999999	1.0	go	0.542	Go_O	1.0
664.395	0.6	stopfail	0.313	Go_X	0.0
666.9190000000001	1.0	go	0.335	Go_X	1.0
669.443	1.0	go	0.271	Go_O	1.0
671.9670000000001	1.0	go	0.222	Go_X	1.0
674.491	1.0	go	0.232	Go_O	1.0
677.0150000000001	1.0	go	0.262	Go_X	1.0
679.54	1.0	go	0.368	Go_O	1.0
682.0640000000001	0.55	stopfail	0.413	Go_O	0.0
684.588	1.0	go	0.431	Go_O	1.0
687.1120000000001	1.0	go	0.437	Go_X	1.0
689.636	0.5	stopsuccess	0.0	Go_X	1.0
692.1610000000001	1.0	go	0.415	Go_O	1.0
694.685	1.0	go	0.537	Go_X	1.0
697.2090000000001	0.55	stopfail	0.578	Go_O	0.0
699.733	1.0	go	0.71	Go_O	1.0
702.2570000000001	1.0	go	0.427	Go_X	1.0
704.781	1.0	go	0.494	Go_X	1.0
707.306	1.0	go	0.753	Go_O	1.0
709.8299999999999	0.5	stopsuccess	0.0	Go_X	1.0
712.354	1.0	go	0.73	Go_O	1.0
714.8779999999999	0.55	stopsuccess	0.0	Go_O	1.0
717.402	1.0	go	0.355	Go_X	1.0
719.9259999999999	1.0	go	0.553	Go_X	1.0
722.451	1.0	go	0.619	Go_O	1.0
724.9749999999999	1.0	go	0.667	Go_O	1.0
727.499	1.0	go	0.612	Go_X	1.0
730.0229999999999	0.6	stopfail	0.601	Go_X	0.0
732.547	1.0	go	0.547	Go_O	1.0
735.0709999999999	1.0	go	0.47	Go_X	1.0
737.596	0.55	stopfail	0.553	Go_O	0.0
740.1199999999999	0.5	stopfail	0.581	Go_X	0.0
742.644	1.0	go	0.745	Go_O	1.0
745.1679999999999	1.0	go	0.566	Go_X	1.0
747.692	1.0	go	0.838	Go_X	1.0
750.2159999999999	1.0	go	0.807	Go_O	1.0
752.741	0.45	stopsuccess	0.0	Go_O	1.0
755.2650000000001	1.0	go	0.616	Go_X	1.0
