onset	duration	trial_type	response_time	stim_file	accuracy
86.562	1.0	go	0.0	Go_X	0.0
89.086	1.0	go	0.0	Go_O	0.0
91.61	1.0	go	0.0	Go_O	0.0
94.134	1.0	go	0.0	Go_X	0.0
96.658	1.0	go	0.8	Go_O	1.0
99.183	1.0	go	0.43	Go_X	1.0
101.707	0.25	stopsuccess	0.0	Go_O	1.0
104.231	1.0	go	0.427	Go_O	1.0
106.755	0.3	stopfail	0.515	Go_X	0.0
109.279	1.0	go	0.468	Go_X	1.0
111.803	1.0	go	0.526	Go_X	1.0
114.328	1.0	go	0.361	Go_O	1.0
116.852	0.25	stopfail	0.441	Go_O	0.0
119.376	1.0	go	0.485	Go_X	1.0
121.9	1.0	go	0.533	Go_O	1.0
124.424	0.2	stopfail	0.312	Go_X	0.0
126.948	0.15	stopsuccess	0.0	Go_O	1.0
129.473	1.0	go	0.359	Go_X	1.0
131.997	1.0	go	0.457	Go_O	1.0
134.521	0.2	stopsuccess	0.0	Go_X	1.0
137.045	1.0	go	0.461	Go_X	1.0
139.569	1.0	go	0.403	Go_O	1.0
142.094	0.25	stopfail	0.438	Go_O	0.0
144.618	1.0	go	0.56	Go_O	1.0
147.142	1.0	go	0.576	Go_X	1.0
149.666	0.2	stopsuccess	0.0	Go_X	1.0
152.19	1.0	go	0.557	Go_O	1.0
154.714	1.0	go	0.566	Go_X	1.0
157.239	0.25	stopsuccess	0.0	Go_O	1.0
159.763	1.0	go	0.545	Go_X	1.0
162.287	1.0	go	0.602	Go_O	1.0
164.811	1.0	go	0.441	Go_X	1.0
167.335	1.0	go	0.374	Go_O	1.0
169.859	1.0	go	0.465	Go_O	1.0
172.384	0.3	stopfail	0.424	Go_X	0.0
174.908	1.0	go	0.641	Go_X	1.0
177.432	1.0	go	0.518	Go_O	1.0
179.956	1.0	go	0.558	Go_X	1.0
182.48	1.0	go	0.582	Go_X	1.0
185.004	1.0	go	0.59	Go_O	1.0
187.529	0.25	stopsuccess	0.0	Go_O	1.0
190.053	1.0	go	0.461	Go_X	1.0
192.577	1.0	go	0.436	Go_O	1.0
195.101	1.0	go	0.547	Go_X	1.0
197.625	1.0	go	0.637	Go_O	1.0
200.149	1.0	go	0.611	Go_O	1.0
202.674	1.0	go	0.516	Go_X	1.0
205.198	0.3	stopsuccess	0.0	Go_X	1.0
207.722	1.0	go	0.496	Go_X	1.0
210.246	1.0	go	0.738	Go_O	1.0
212.77	0.35	stopsuccess	0.0	Go_O	1.0
215.295	1.0	go	0.558	Go_O	1.0
217.819	0.4	stopfail	0.405	Go_X	0.0
220.343	0.35	stopsuccess	0.0	Go_O	1.0
222.884	1.0	go	0.538	Go_X	1.0
225.408	1.0	go	0.665	Go_O	1.0
227.932	1.0	go	0.657	Go_X	1.0
230.456	1.0	go	0.603	Go_X	1.0
232.98	0.4	stopsuccess	0.0	Go_X	1.0
235.505	1.0	go	0.69	Go_O	1.0
238.029	0.45	stopsuccess	0.0	Go_O	1.0
240.553	1.0	go	0.76	Go_X	1.0
243.077	1.0	go	0.771	Go_O	1.0
245.601	1.0	go	0.732	Go_X	1.0
248.125	1.0	go	0.659	Go_O	1.0
250.65	1.0	go	0.606	Go_X	1.0
253.174	1.0	go	0.773	Go_O	1.0
255.698	1.0	go	0.818	Go_O	1.0
258.222	1.0	go	0.555	Go_X	1.0
260.746	1.0	go	0.806	Go_X	0.0
263.27	0.5	stopfail	0.6	Go_X	0.0
265.795	1.0	go	0.438	Go_O	1.0
268.319	1.0	go	0.548	Go_O	1.0
270.843	1.0	go	0.481	Go_X	1.0
273.367	0.45	stopsuccess	0.0	Go_O	1.0
275.891	1.0	go	0.832	Go_O	1.0
278.416	1.0	go	0.404	Go_X	1.0
280.94	1.0	go	0.602	Go_X	1.0
283.464	1.0	go	0.838	Go_O	1.0
285.988	1.0	go	0.805	Go_O	1.0
288.512	1.0	go	0.623	Go_X	1.0
291.036	0.5	stopsuccess	0.0	Go_X	1.0
293.561	1.0	go	0.57	Go_O	1.0
296.085	1.0	go	0.709	Go_X	1.0
298.609	0.55	stopfail	0.634	Go_O	0.0
301.133	1.0	go	0.819	Go_O	1.0
303.657	1.0	go	0.661	Go_X	1.0
306.181	0.5	stopsuccess	0.0	Go_X	1.0
308.706	1.0	go	0.611	Go_X	1.0
311.23	0.55	stopfail	0.677	Go_O	0.0
313.754	1.0	go	0.875	Go_O	1.0
316.278	1.0	go	0.67	Go_O	1.0
318.802	1.0	go	0.631	Go_X	1.0
321.326	1.0	go	0.946	Go_X	1.0
323.851	1.0	go	0.682	Go_O	1.0
326.375	0.5	stopfail	0.459	Go_X	0.0
328.899	0.45	stopsuccess	0.0	Go_O	1.0
331.423	1.0	go	0.731	Go_X	1.0
333.947	1.0	go	0.77	Go_O	1.0
336.471	0.5	stopsuccess	0.0	Go_X	1.0
338.996	1.0	go	0.989	Go_X	1.0
341.52	1.0	go	0.737	Go_O	1.0
344.044	1.0	go	0.804	Go_O	1.0
346.568	1.0	go	0.589	Go_X	1.0
349.092	1.0	go	0.753	Go_O	1.0
351.616	1.0	go	0.647	Go_X	1.0
354.141	0.55	stopfail	0.634	Go_O	0.0
356.665	1.0	go	0.708	Go_X	1.0
359.189	1.0	go	0.944	Go_O	1.0
361.713	1.0	go	0.789	Go_X	1.0
364.237	1.0	go	0.661	Go_O	1.0
366.762	1.0	go	0.837	Go_O	1.0
369.286	0.5	stopsuccess	0.0	Go_X	1.0
371.81	1.0	go	0.0	Go_X	0.0
374.334	1.0	go	0.527	Go_X	1.0
376.858	1.0	go	0.519	Go_O	1.0
379.382	1.0	go	0.635	Go_O	1.0
381.907	0.55	stopsuccess	0.0	Go_O	1.0
384.431	1.0	go	0.752	Go_X	1.0
386.955	1.0	go	0.729	Go_O	1.0
389.479	0.6	stopfail	0.605	Go_X	0.0
392.003	1.0	go	0.742	Go_X	1.0
394.527	0.55	stopfail	0.639	Go_O	0.0
397.052	1.0	go	0.718	Go_X	1.0
399.576	1.0	go	0.0	Go_O	0.0
402.1	1.0	go	0.618	Go_O	1.0
404.624	1.0	go	0.561	Go_X	1.0
407.148	1.0	go	0.832	Go_O	0.0
409.672	1.0	go	0.674	Go_X	1.0
412.197	1.0	go	0.571	Go_X	1.0
414.721	0.5	stopfail	0.648	Go_X	0.0
417.245	1.0	go	0.639	Go_O	1.0
419.769	1.0	go	0.688	Go_X	1.0
422.293	1.0	go	0.594	Go_O	1.0
424.817	0.45	stopsuccess	0.0	Go_O	1.0
427.342	1.0	go	0.809	Go_X	1.0
429.866	1.0	go	0.757	Go_O	1.0
432.39	1.0	go	0.563	Go_X	1.0
434.914	1.0	go	0.738	Go_O	1.0
437.438	0.5	stopsuccess	0.0	Go_X	1.0
439.963	1.0	go	0.0	Go_O	0.0
442.487	1.0	go	0.515	Go_X	1.0
445.011	0.55	stopfail	0.576	Go_O	0.0
447.535	1.0	go	0.495	Go_X	1.0
450.059	1.0	go	0.586	Go_O	1.0
452.583	0.5	stopsuccess	0.0	Go_X	1.0
455.108	1.0	go	0.521	Go_X	1.0
457.632	1.0	go	0.805	Go_O	1.0
460.156	0.55	stopsuccess	0.0	Go_O	1.0
462.68	1.0	go	0.421	Go_X	1.0
465.204	1.0	go	0.503	Go_O	1.0
467.728	1.0	go	0.725	Go_X	1.0
470.253	1.0	go	0.761	Go_O	1.0
472.777	1.0	go	0.535	Go_O	1.0
475.301	1.0	go	0.728	Go_X	1.0
477.825	0.6	stopfail	0.504	Go_X	0.0
480.349	1.0	go	0.626	Go_O	1.0
482.873	0.55	stopsuccess	0.0	Go_O	1.0
485.398	1.0	go	0.433	Go_X	1.0
487.922	1.0	go	0.756	Go_O	1.0
490.446	1.0	go	0.75	Go_X	1.0
492.97	1.0	go	0.583	Go_O	1.0
495.494	1.0	go	0.74	Go_X	1.0
498.018	0.6	stopfail	0.713	Go_X	0.0
500.543	1.0	go	0.974	Go_X	1.0
503.067	1.0	go	0.472	Go_O	1.0
505.591	1.0	go	0.63	Go_O	1.0
508.115	0.55	stopsuccess	0.0	Go_O	1.0
510.639	0.6	stopfail	0.62	Go_X	0.0
513.163	0.55	stopsuccess	0.0	Go_O	1.0
515.688	1.0	go	0.632	Go_X	1.0
518.212	0.6	stopsuccess	0.0	Go_X	1.0
520.736	1.0	go	0.62	Go_X	1.0
523.26	1.0	go	0.856	Go_O	1.0
525.784	1.0	go	0.983	Go_X	1.0
528.309	1.0	go	0.0	Go_O	0.0
530.833	1.0	go	0.599	Go_O	1.0
533.357	1.0	go	0.67	Go_X	1.0
535.881	1.0	go	0.524	Go_O	1.0
538.405	1.0	go	0.679	Go_X	0.0
540.929	0.65	stopfail	0.761	Go_O	0.0
543.454	1.0	go	0.568	Go_X	1.0
545.978	1.0	go	0.82	Go_O	1.0
548.502	0.6	stopfail	0.704	Go_X	0.0
551.026	1.0	go	0.797	Go_X	1.0
553.55	1.0	go	0.705	Go_O	1.0
556.074	1.0	go	0.0	Go_X	0.0
558.599	1.0	go	0.754	Go_O	1.0
561.123	1.0	go	0.964	Go_O	1.0
563.647	0.55	stopsuccess	0.0	Go_O	1.0
566.171	1.0	go	0.68	Go_X	1.0
568.695	1.0	go	0.781	Go_O	1.0
571.219	1.0	go	0.0	Go_X	0.0
573.744	0.6	stopfail	0.837	Go_X	0.0
576.268	1.0	go	0.902	Go_O	1.0
578.792	0.55	stopfail	0.732	Go_O	0.0
581.316	1.0	go	0.487	Go_X	1.0
583.84	1.0	go	0.767	Go_O	1.0
586.364	1.0	go	0.903	Go_X	1.0
588.889	1.0	go	0.625	Go_O	1.0
591.413	1.0	go	0.96	Go_X	1.0
593.937	1.0	go	0.813	Go_X	1.0
596.461	1.0	go	0.891	Go_O	1.0
598.985	0.5	stopfail	0.528	Go_X	0.0
601.509	1.0	go	0.623	Go_X	1.0
604.034	1.0	go	0.676	Go_O	1.0
606.558	1.0	go	0.584	Go_X	1.0
609.082	1.0	go	0.698	Go_O	1.0
611.606	0.45	stopsuccess	0.0	Go_O	1.0
614.13	1.0	go	0.482	Go_X	1.0
616.655	0.5	stopsuccess	0.0	Go_X	1.0
619.179	1.0	go	0.563	Go_O	1.0
621.703	1.0	go	0.567	Go_X	1.0
624.227	0.55	stopfail	0.741	Go_O	0.0
626.751	1.0	go	0.7	Go_O	1.0
629.275	1.0	go	0.845	Go_O	1.0
631.8	1.0	go	0.707	Go_X	1.0
634.324	1.0	go	0.756	Go_O	1.0
636.848	1.0	go	0.507	Go_X	1.0
639.372	1.0	go	0.715	Go_X	1.0
641.896	1.0	go	0.855	Go_O	1.0
644.42	1.0	go	0.697	Go_X	1.0
646.945	1.0	go	0.621	Go_O	1.0
649.469	1.0	go	0.828	Go_X	1.0
651.993	0.5	stopsuccess	0.0	Go_X	1.0
654.517	1.0	go	0.593	Go_O	1.0
657.041	1.0	go	0.0	Go_X	0.0
659.565	0.55	stopfail	0.65	Go_O	0.0
662.09	1.0	go	0.696	Go_O	1.0
664.614	0.5	stopsuccess	0.0	Go_X	1.0
667.138	1.0	go	0.589	Go_X	1.0
669.662	1.0	go	0.694	Go_O	1.0
672.186	0.55	stopsuccess	0.0	Go_O	1.0
674.71	1.0	go	0.6	Go_X	1.0
677.235	0.6	stopsuccess	0.0	Go_X	1.0
679.759	1.0	go	0.737	Go_O	1.0
682.283	1.0	go	0.989	Go_O	1.0
684.807	1.0	go	0.727	Go_X	1.0
687.331	0.65	stopfail	0.615	Go_O	0.0
689.856	1.0	go	0.507	Go_O	1.0
692.38	1.0	go	0.561	Go_X	1.0
694.904	1.0	go	0.614	Go_X	1.0
697.428	1.0	go	0.737	Go_O	1.0
699.952	0.6	stopsuccess	0.0	Go_X	1.0
702.476	1.0	go	0.371	Go_X	1.0
705.001	1.0	go	0.645	Go_O	1.0
707.525	0.65	stopfail	0.6	Go_O	0.0
710.049	1.0	go	0.671	Go_X	1.0
712.573	1.0	go	0.684	Go_O	1.0
715.097	1.0	go	0.838	Go_O	1.0
717.621	1.0	go	0.719	Go_X	1.0
720.146	0.6	stopsuccess	0.0	Go_X	1.0
722.67	1.0	go	0.601	Go_O	1.0
725.194	0.65	stopfail	0.9	Go_O	0.0
727.718	1.0	go	0.53	Go_X	1.0
730.242	1.0	go	0.86	Go_O	1.0
732.766	0.6	stopsuccess	0.0	Go_X	1.0
735.291	1.0	go	0.713	Go_X	0.0
737.815	1.0	go	0.985	Go_O	1.0
740.339	1.0	go	0.362	Go_X	1.0
742.863	1.0	go	0.419	Go_X	1.0
745.387	0.65	stopfail	0.23	Go_O	0.0
747.911	1.0	go	0.542	Go_O	1.0
750.436	0.6	stopfail	0.313	Go_X	0.0
752.96	1.0	go	0.335	Go_X	1.0
755.484	1.0	go	0.271	Go_O	1.0
758.008	1.0	go	0.222	Go_X	1.0
760.532	1.0	go	0.232	Go_O	1.0
763.056	1.0	go	0.262	Go_X	1.0
765.581	1.0	go	0.368	Go_O	1.0
768.105	0.55	stopfail	0.413	Go_O	0.0
770.629	1.0	go	0.431	Go_O	1.0
773.153	1.0	go	0.437	Go_X	1.0
775.677	0.5	stopsuccess	0.0	Go_X	1.0
778.202	1.0	go	0.415	Go_O	1.0
780.726	1.0	go	0.537	Go_X	1.0
783.25	0.55	stopfail	0.578	Go_O	0.0
785.774	1.0	go	0.71	Go_O	1.0
788.298	1.0	go	0.427	Go_X	1.0
790.822	1.0	go	0.494	Go_X	1.0
793.347	1.0	go	0.753	Go_O	1.0
795.871	0.5	stopsuccess	0.0	Go_X	1.0
798.395	1.0	go	0.73	Go_O	1.0
800.919	0.55	stopsuccess	0.0	Go_O	1.0
803.443	1.0	go	0.355	Go_X	1.0
805.967	1.0	go	0.553	Go_X	1.0
808.492	1.0	go	0.619	Go_O	1.0
811.016	1.0	go	0.667	Go_O	1.0
813.54	1.0	go	0.612	Go_X	1.0
816.064	0.6	stopfail	0.601	Go_X	0.0
818.588	1.0	go	0.547	Go_O	1.0
821.112	1.0	go	0.47	Go_X	1.0
823.637	0.55	stopfail	0.553	Go_O	0.0
826.161	0.5	stopfail	0.581	Go_X	0.0
828.685	1.0	go	0.745	Go_O	1.0
831.209	1.0	go	0.566	Go_X	1.0
833.733	1.0	go	0.838	Go_X	1.0
836.257	1.0	go	0.807	Go_O	1.0
838.782	0.45	stopsuccess	0.0	Go_O	1.0
841.306	1.0	go	0.616	Go_X	1.0
