onset	duration	trial_type	response_time	stim_file	accuracy
478.32	1.0	go	0.0	Go_X	0.0
480.853	1.0	go	0.314	Go_O	1.0
483.387	1.0	go	0.387	Go_O	1.0
485.92	1.0	go	0.317	Go_X	1.0
488.453	1.0	go	0.289	Go_O	1.0
490.987	1.0	go	0.318	Go_X	1.0
493.52	0.25	stopfail	0.281	Go_O	0.0
496.053	1.0	go	0.501	Go_O	1.0
498.586	0.2	stopfail	0.566	Go_X	0.0
501.12	1.0	go	0.869	Go_X	1.0
503.653	1.0	go	0.431	Go_O	1.0
506.186	1.0	go	0.649	Go_X	1.0
508.72	0.15	stopsuccess	0.0	Go_O	1.0
511.253	1.0	go	0.32	Go_O	1.0
513.786	1.0	go	0.504	Go_X	1.0
516.319	0.2	stopsuccess	0.0	Go_X	1.0
518.853	0.25	stopsuccess	0.0	Go_O	1.0
521.386	1.0	go	0.469	Go_X	1.0
523.919	1.0	go	0.313	Go_O	1.0
526.453	0.3	stopsuccess	0.0	Go_X	1.0
528.986	1.0	go	0.678	Go_X	1.0
531.519	1.0	go	0.502	Go_O	1.0
534.052	0.35	stopfail	0.36	Go_O	0.0
536.586	1.0	go	0.66	Go_O	1.0
539.119	1.0	go	0.466	Go_X	1.0
541.652	0.3	stopsuccess	0.0	Go_X	1.0
544.186	1.0	go	0.896	Go_O	1.0
546.719	1.0	go	0.764	Go_X	1.0
549.252	0.35	stopsuccess	0.0	Go_O	1.0
551.785	1.0	go	0.901	Go_X	1.0
554.319	1.0	go	0.496	Go_O	1.0
556.852	1.0	go	0.484	Go_O	1.0
559.385	1.0	go	0.622	Go_X	1.0
561.919	1.0	go	0.761	Go_X	1.0
564.452	0.4	stopfail	0.425	Go_X	0.0
566.985	1.0	go	0.611	Go_O	1.0
569.518	1.0	go	0.812	Go_O	1.0
572.052	1.0	go	0.0	Go_X	0.0
574.585	1.0	go	0.669	Go_X	1.0
577.118	1.0	go	0.436	Go_O	1.0
579.652	0.35	stopfail	0.407	Go_O	0.0
582.185	1.0	go	0.499	Go_X	1.0
584.718	1.0	go	0.605	Go_O	1.0
587.251	1.0	go	0.0	Go_O	0.0
589.785	1.0	go	0.597	Go_X	1.0
592.318	1.0	go	0.56	Go_X	1.0
594.851	1.0	go	0.384	Go_O	1.0
597.385	0.3	stopfail	0.492	Go_X	0.0
599.918	1.0	go	0.789	Go_X	1.0
602.451	1.0	go	0.837	Go_O	1.0
604.984	0.25	stopsuccess	0.0	Go_O	1.0
607.518	1.0	go	0.687	Go_X	1.0
610.051	0.3	stopsuccess	0.0	Go_X	1.0
612.584	0.35	stopsuccess	0.0	Go_O	1.0
615.118	1.0	go	0.762	Go_O	1.0
617.651	1.0	go	0.687	Go_O	1.0
620.184	1.0	go	0.808	Go_X	1.0
622.717	1.0	go	0.592	Go_X	1.0
625.251	0.4	stopfail	0.543	Go_X	0.0
627.784	1.0	go	0.0	Go_O	0.0
630.317	0.35	stopsuccess	0.0	Go_O	1.0
632.851	1.0	go	0.597	Go_X	1.0
635.384	1.0	go	0.879	Go_O	1.0
637.917	1.0	go	0.666	Go_X	1.0
640.45	1.0	go	0.428	Go_O	1.0
642.984	1.0	go	0.457	Go_O	0.0
645.517	1.0	go	0.764	Go_X	1.0
648.05	1.0	go	0.62	Go_O	1.0
650.584	1.0	go	0.956	Go_X	1.0
653.117	1.0	go	0.584	Go_O	1.0
655.65	0.4	stopfail	0.551	Go_X	0.0
658.183	1.0	go	0.784	Go_X	1.0
660.717	1.0	go	0.565	Go_X	1.0
663.25	1.0	go	0.398	Go_O	1.0
665.783	0.35	stopfail	0.421	Go_O	0.0
668.317	1.0	go	0.722	Go_X	1.0
670.85	1.0	go	0.753	Go_O	1.0
673.383	1.0	go	0.393	Go_O	1.0
675.916	1.0	go	0.686	Go_X	1.0
678.45	1.0	go	0.535	Go_X	1.0
680.983	1.0	go	0.485	Go_O	1.0
683.516	0.3	stopfail	0.487	Go_X	0.0
686.05	1.0	go	0.403	Go_O	1.0
688.583	1.0	go	0.703	Go_X	1.0
691.116	0.25	stopsuccess	0.0	Go_O	1.0
693.649	1.0	go	0.817	Go_O	1.0
696.183	1.0	go	0.769	Go_X	1.0
698.716	0.3	stopsuccess	0.0	Go_X	1.0
701.249	1.0	go	0.748	Go_X	1.0
703.783	0.35	stopfail	0.434	Go_O	0.0
706.316	1.0	go	0.769	Go_O	1.0
708.849	1.0	go	0.838	Go_O	1.0
711.382	1.0	go	0.764	Go_X	1.0
713.916	1.0	go	0.768	Go_X	1.0
716.449	1.0	go	0.721	Go_O	1.0
718.982	0.3	stopsuccess	0.0	Go_X	1.0
721.516	0.35	stopfail	0.481	Go_O	0.0
724.049	1.0	go	0.0	Go_O	0.0
726.582	1.0	go	0.935	Go_X	1.0
729.115	0.3	stopsuccess	0.0	Go_X	1.0
731.649	1.0	go	0.396	Go_O	1.0
734.182	1.0	go	0.337	Go_X	1.0
736.715	1.0	go	0.611	Go_O	1.0
739.249	1.0	go	0.379	Go_X	1.0
741.782	1.0	go	0.548	Go_O	1.0
744.315	1.0	go	0.338	Go_X	1.0
746.848	0.35	stopfail	0.483	Go_O	0.0
749.382	1.0	go	0.734	Go_O	1.0
751.915	1.0	go	0.616	Go_X	1.0
754.448	1.0	go	0.501	Go_O	1.0
756.982	1.0	go	0.708	Go_X	1.0
759.515	1.0	go	0.57	Go_X	1.0
762.048	0.3	stopfail	0.478	Go_X	0.0
764.581	1.0	go	0.633	Go_O	1.0
767.115	1.0	go	0.591	Go_O	1.0
769.648	1.0	go	0.7	Go_X	1.0
772.181	1.0	go	0.472	Go_X	1.0
774.715	0.25	stopsuccess	0.0	Go_O	1.0
777.248	1.0	go	0.626	Go_O	1.0
779.781	1.0	go	0.479	Go_X	1.0
782.314	0.3	stopsuccess	0.0	Go_X	1.0
784.848	1.0	go	0.452	Go_O	1.0
787.381	0.35	stopfail	0.464	Go_O	0.0
789.914	1.0	go	0.779	Go_X	1.0
792.448	1.0	go	0.0	Go_O	0.0
794.981	1.0	go	0.466	Go_X	1.0
797.514	1.0	go	0.385	Go_O	1.0
800.047	1.0	go	0.639	Go_O	1.0
802.581	1.0	go	0.692	Go_X	1.0
805.114	1.0	go	0.0	Go_O	0.0
807.648	0.3	stopfail	0.316	Go_X	0.0
810.197	1.0	go	0.69	Go_X	1.0
812.731	1.0	go	0.409	Go_O	1.0
815.28	1.0	go	0.121	Go_X	0.0
817.814	0.25	stopsuccess	0.0	Go_O	1.0
820.347	1.0	go	0.587	Go_O	1.0
822.88	1.0	go	0.608	Go_X	1.0
825.414	1.0	go	0.449	Go_O	1.0
827.947	1.0	go	0.333	Go_X	1.0
830.48	0.3	stopsuccess	0.0	Go_X	1.0
833.013	1.0	go	0.507	Go_O	1.0
835.547	1.0	go	0.698	Go_X	1.0
838.08	0.35	stopsuccess	0.0	Go_O	1.0
840.613	1.0	go	0.477	Go_X	1.0
843.147	1.0	go	0.583	Go_O	1.0
845.68	0.4	stopfail	0.609	Go_X	0.0
848.213	1.0	go	0.812	Go_O	1.0
850.746	1.0	go	0.536	Go_X	1.0
853.28	0.35	stopsuccess	0.0	Go_O	1.0
855.813	1.0	go	0.685	Go_O	1.0
858.346	1.0	go	0.677	Go_X	1.0
860.88	1.0	go	0.354	Go_X	0.0
863.413	1.0	go	0.564	Go_O	1.0
865.946	1.0	go	0.662	Go_X	1.0
868.479	1.0	go	0.636	Go_O	1.0
871.013	0.4	stopfail	0.584	Go_X	0.0
873.546	1.0	go	0.0	Go_X	0.0
876.079	0.35	stopfail	0.377	Go_O	0.0
878.613	1.0	go	0.576	Go_O	1.0
881.146	1.0	go	0.511	Go_X	1.0
883.679	1.0	go	0.38	Go_O	1.0
886.212	1.0	go	0.555	Go_X	1.0
888.746	1.0	go	0.372	Go_O	1.0
891.279	0.3	stopfail	0.554	Go_X	0.0
893.812	1.0	go	0.694	Go_X	1.0
896.346	1.0	go	0.36	Go_O	1.0
898.879	1.0	go	0.518	Go_X	1.0
901.412	0.25	stopfail	0.397	Go_O	0.0
903.945	0.2	stopsuccess	0.0	Go_X	1.0
906.479	0.25	stopsuccess	0.0	Go_O	1.0
909.012	1.0	go	0.917	Go_O	1.0
911.545	0.3	stopsuccess	0.0	Go_X	1.0
914.079	1.0	go	0.785	Go_O	1.0
916.612	1.0	go	0.554	Go_X	1.0
919.145	1.0	go	0.494	Go_O	1.0
921.678	1.0	go	0.365	Go_X	1.0
924.212	1.0	go	0.522	Go_O	1.0
926.745	1.0	go	0.443	Go_X	1.0
929.278	1.0	go	0.631	Go_O	1.0
931.812	1.0	go	0.7	Go_X	1.0
934.345	0.35	stopsuccess	0.0	Go_O	1.0
936.878	1.0	go	0.526	Go_O	1.0
939.411	1.0	go	0.506	Go_X	1.0
941.945	0.4	stopsuccess	0.0	Go_X	1.0
944.478	1.0	go	0.443	Go_O	1.0
947.011	1.0	go	0.503	Go_X	1.0
949.545	1.0	go	0.452	Go_O	1.0
952.078	1.0	go	0.43	Go_X	1.0
954.611	1.0	go	0.442	Go_O	1.0
957.144	0.45	stopfail	0.286	Go_O	0.0
959.678	1.0	go	0.574	Go_X	1.0
962.211	1.0	go	0.904	Go_O	1.0
964.744	1.0	go	0.392	Go_X	1.0
967.278	0.4	stopsuccess	0.0	Go_X	1.0
969.811	1.0	go	0.504	Go_O	1.0
972.344	0.45	stopfail	0.336	Go_O	0.0
974.877	1.0	go	0.719	Go_X	0.0
977.411	1.0	go	0.884	Go_O	1.0
979.944	1.0	go	0.42	Go_X	1.0
982.477	1.0	go	0.64	Go_X	1.0
985.011	1.0	go	0.0	Go_O	0.0
987.544	1.0	go	0.292	Go_X	1.0
990.077	1.0	go	0.301	Go_O	1.0
992.61	0.4	stopfail	0.337	Go_X	0.0
995.144	1.0	go	0.616	Go_O	1.0
997.677	1.0	go	0.624	Go_X	1.0
1000.21	1.0	go	0.423	Go_O	1.0
1002.744	1.0	go	0.449	Go_X	1.0
1005.277	0.35	stopfail	0.469	Go_O	0.0
1007.81	1.0	go	0.0	Go_O	0.0
1010.343	0.3	stopfail	0.361	Go_X	0.0
1012.877	1.0	go	0.624	Go_X	1.0
1015.41	1.0	go	0.598	Go_O	1.0
1017.943	0.25	stopsuccess	0.0	Go_O	1.0
1020.477	1.0	go	0.711	Go_X	1.0
1023.027	1.0	go	0.435	Go_O	1.0
1025.576	1.0	go	0.634	Go_X	1.0
1028.11	1.0	go	0.261	Go_O	1.0
1030.643	1.0	go	0.707	Go_X	1.0
1033.176	1.0	go	0.449	Go_O	1.0
1035.71	1.0	go	0.971	Go_X	0.0
1038.243	1.0	go	0.397	Go_O	1.0
1040.776	1.0	go	0.292	Go_X	1.0
1043.309	1.0	go	0.433	Go_O	1.0
1045.843	0.3	stopfail	0.433	Go_X	0.0
1048.376	1.0	go	0.786	Go_X	1.0
1050.909	1.0	go	0.676	Go_O	1.0
1053.443	0.25	stopsuccess	0.0	Go_O	1.0
1055.976	1.0	go	0.718	Go_X	1.0
1058.509	0.3	stopsuccess	0.0	Go_X	1.0
1061.042	1.0	go	0.0	Go_X	0.0
1063.576	1.0	go	0.562	Go_O	1.0
1066.109	0.35	stopfail	0.484	Go_O	0.0
1068.642	1.0	go	0.588	Go_X	1.0
1071.176	0.3	stopsuccess	0.0	Go_X	1.0
1073.709	1.0	go	0.596	Go_O	1.0
1076.242	1.0	go	0.471	Go_X	1.0
1078.775	1.0	go	0.391	Go_O	1.0
1081.309	0.35	stopsuccess	0.0	Go_O	1.0
1083.842	1.0	go	0.59	Go_O	1.0
1086.375	1.0	go	0.0	Go_X	0.0
1088.909	1.0	go	0.778	Go_X	1.0
1091.442	1.0	go	0.881	Go_O	1.0
1093.975	0.4	stopsuccess	0.0	Go_X	1.0
1096.508	1.0	go	0.58	Go_X	0.0
1099.042	1.0	go	0.446	Go_O	1.0
1101.575	0.45	stopsuccess	0.0	Go_O	1.0
1104.108	1.0	go	0.475	Go_O	1.0
1106.642	1.0	go	0.608	Go_X	1.0
1109.175	1.0	go	0.708	Go_O	1.0
1111.708	1.0	go	0.899	Go_X	1.0
1114.241	0.5	stopsuccess	0.0	Go_X	1.0
1116.775	1.0	go	0.823	Go_X	1.0
1119.308	0.55	stopfail	0.767	Go_O	0.0
1121.841	1.0	go	0.402	Go_O	1.0
1124.375	1.0	go	0.445	Go_X	1.0
1126.908	0.5	stopsuccess	0.0	Go_X	1.0
1129.441	1.0	go	0.297	Go_O	1.0
1131.974	1.0	go	0.755	Go_X	1.0
1134.508	1.0	go	0.526	Go_O	1.0
1137.041	1.0	go	0.447	Go_X	1.0
1139.574	0.55	stopfail	0.42	Go_O	0.0
1142.108	1.0	go	0.832	Go_O	1.0
1144.641	0.5	stopfail	0.549	Go_X	0.0
1147.174	1.0	go	0.718	Go_X	1.0
1149.707	1.0	go	0.573	Go_O	1.0
1152.241	1.0	go	0.603	Go_O	1.0
1154.774	1.0	go	0.489	Go_X	1.0
1157.307	1.0	go	0.581	Go_X	1.0
1159.841	1.0	go	0.396	Go_O	1.0
1162.374	0.45	stopfail	0.667	Go_O	0.0
1164.907	1.0	go	0.729	Go_X	1.0
1167.44	1.0	go	0.911	Go_O	1.0
1169.974	0.4	stopfail	0.544	Go_X	0.0
1172.507	1.0	go	0.781	Go_O	1.0
1175.04	1.0	go	0.419	Go_X	0.0
1177.574	0.35	stopfail	0.589	Go_O	0.0
1180.107	1.0	go	0.597	Go_X	1.0
1182.64	1.0	go	0.6	Go_O	1.0
1185.173	1.0	go	0.509	Go_O	1.0
1187.707	1.0	go	0.444	Go_X	1.0
1190.24	0.3	stopsuccess	0.0	Go_X	1.0
1192.773	1.0	go	0.747	Go_O	1.0
1195.307	0.35	stopsuccess	0.0	Go_O	1.0
1197.84	1.0	go	0.572	Go_X	1.0
1200.373	1.0	go	0.0	Go_O	0.0
1202.906	1.0	go	0.309	Go_X	1.0
1205.44	1.0	go	0.418	Go_O	1.0
1207.973	1.0	go	0.721	Go_X	1.0
1210.506	0.4	stopfail	0.764	Go_X	0.0
1213.04	1.0	go	0.721	Go_O	1.0
1215.573	1.0	go	0.759	Go_X	1.0
1218.106	0.35	stopfail	0.476	Go_O	0.0
1220.639	0.3	stopsuccess	0.0	Go_X	1.0
1223.173	1.0	go	0.77	Go_X	1.0
1225.706	1.0	go	0.514	Go_O	1.0
1228.239	1.0	go	0.497	Go_O	1.0
1230.773	1.0	go	0.479	Go_X	1.0
1233.323	0.35	stopfail	0.363	Go_O	0.0
1235.872	1.0	go	0.277	Go_X	1.0
