onset	duration	trial_type	response_time	stim_file	accuracy
441.523	1.0	go	0.0	Go_O	0.0
444.114	1.0	go	0.364	Go_X	1.0
446.638	1.0	go	0.462	Go_X	1.0
449.162	1.0	go	0.313	Go_O	1.0
451.686	1.0	go	0.426	Go_X	1.0
454.21	1.0	go	0.289	Go_O	1.0
456.735	0.25	stop	0.386	Go_O	0.0
459.259	1.0	go	0.698	Go_X	0.0
461.783	0.2	stop	0.0	Go_X	1.0
464.307	1.0	go	0.384	Go_O	1.0
466.831	1.0	go	0.486	Go_X	1.0
469.355	1.0	go	0.37	Go_O	1.0
471.879	0.25	stop	0.389	Go_O	0.0
474.404	1.0	go	0.329	Go_O	1.0
476.928	1.0	go	0.521	Go_X	1.0
479.452	0.2	stop	0.0	Go_X	1.0
481.976	0.25	stop	0.0	Go_O	1.0
484.5	1.0	go	0.727	Go_X	1.0
487.024	1.0	go	0.607	Go_O	1.0
489.549	0.3	stop	0.352	Go_X	0.0
492.073	1.0	go	0.549	Go_X	1.0
494.597	1.0	go	0.536	Go_O	1.0
497.121	0.25	stop	0.0	Go_O	1.0
499.645	1.0	go	0.406	Go_X	1.0
502.169	1.0	go	0.413	Go_O	1.0
504.694	0.3	stop	0.411	Go_X	0.0
507.218	1.0	go	0.728	Go_X	1.0
509.742	1.0	go	0.421	Go_O	1.0
512.266	0.25	stop	0.0	Go_O	1.0
514.79	1.0	go	0.538	Go_X	1.0
517.314	1.0	go	0.599	Go_O	1.0
519.839	1.0	go	0.667	Go_O	1.0
522.363	1.0	go	0.528	Go_X	1.0
524.887	1.0	go	0.428	Go_X	1.0
527.411	0.3	stop	0.395	Go_X	0.0
529.935	1.0	go	0.515	Go_O	1.0
532.459	1.0	go	0.475	Go_O	1.0
534.984	1.0	go	0.731	Go_X	1.0
537.508	1.0	go	0.71	Go_X	1.0
540.032	1.0	go	0.612	Go_O	1.0
542.556	0.25	stop	0.444	Go_O	0.0
545.08	1.0	go	0.455	Go_X	1.0
547.604	1.0	go	0.586	Go_O	1.0
550.128	1.0	go	0.493	Go_O	1.0
552.653	1.0	go	0.704	Go_X	1.0
555.177	1.0	go	0.425	Go_X	1.0
557.701	1.0	go	0.484	Go_O	1.0
560.225	0.2	stop	0.0	Go_X	1.0
562.749	1.0	go	0.421	Go_O	1.0
565.273	1.0	go	0.453	Go_X	1.0
567.798	0.25	stop	0.0	Go_O	1.0
570.322	1.0	go	0.895	Go_O	1.0
572.846	0.3	stop	0.392	Go_X	0.0
575.37	0.25	stop	0.0	Go_O	1.0
577.894	1.0	go	0.771	Go_X	0.0
580.418	1.0	go	0.725	Go_O	1.0
582.943	1.0	go	0.64	Go_X	1.0
585.467	1.0	go	0.534	Go_O	1.0
587.991	0.3	stop	0.0	Go_X	1.0
590.515	1.0	go	0.58	Go_X	1.0
593.039	0.35	stop	0.0	Go_O	1.0
595.563	1.0	go	0.686	Go_X	1.0
598.088	1.0	go	0.67	Go_O	1.0
600.612	1.0	go	0.484	Go_X	1.0
603.136	1.0	go	0.475	Go_O	1.0
605.66	1.0	go	0.569	Go_O	1.0
608.184	1.0	go	0.536	Go_X	1.0
610.708	1.0	go	0.696	Go_O	1.0
613.233	1.0	go	0.52	Go_X	1.0
615.757	1.0	go	0.449	Go_X	1.0
618.281	0.4	stop	0.529	Go_X	0.0
620.805	1.0	go	0.382	Go_O	1.0
623.329	1.0	go	0.55	Go_X	1.0
625.853	1.0	go	0.738	Go_O	1.0
628.377	0.35	stop	0.0	Go_O	1.0
630.902	1.0	go	0.425	Go_X	1.0
633.426	1.0	go	0.504	Go_O	1.0
635.95	1.0	go	0.483	Go_O	1.0
638.474	1.0	go	0.501	Go_X	1.0
640.998	1.0	go	0.616	Go_X	1.0
643.522	1.0	go	0.752	Go_O	1.0
646.047	0.4	stop	0.453	Go_X	0.0
648.571	1.0	go	0.536	Go_O	1.0
651.095	1.0	go	0.457	Go_X	1.0
653.619	0.35	stop	0.0	Go_O	1.0
656.143	1.0	go	0.0	Go_X	0.0
658.667	1.0	go	0.428	Go_O	1.0
661.192	0.4	stop	0.508	Go_X	0.0
663.716	1.0	go	0.568	Go_X	1.0
666.24	0.35	stop	0.452	Go_O	0.0
668.764	1.0	go	0.609	Go_O	1.0
671.288	1.0	go	0.58	Go_X	1.0
673.812	1.0	go	0.47	Go_O	1.0
676.337	1.0	go	0.491	Go_O	1.0
678.861	1.0	go	0.518	Go_X	1.0
681.385	0.3	stop	0.0	Go_X	1.0
683.909	0.35	stop	0.0	Go_O	1.0
686.433	1.0	go	0.817	Go_X	1.0
688.957	1.0	go	0.896	Go_O	1.0
691.481	0.4	stop	0.0	Go_X	1.0
694.006	1.0	go	0.904	Go_X	1.0
696.53	1.0	go	0.54	Go_O	1.0
699.054	1.0	go	0.512	Go_X	1.0
701.578	1.0	go	0.499	Go_O	1.0
704.102	1.0	go	0.465	Go_X	1.0
706.626	1.0	go	0.42	Go_O	1.0
709.151	0.45	stop	0.465	Go_O	0.0
711.675	1.0	go	0.545	Go_X	1.0
714.199	1.0	go	0.447	Go_O	1.0
716.723	1.0	go	0.417	Go_O	1.0
719.247	1.0	go	0.547	Go_X	1.0
721.771	1.0	go	0.465	Go_O	1.0
724.296	0.4	stop	0.0	Go_X	1.0
726.82	1.0	go	0.513	Go_X	1.0
729.344	1.0	go	0.359	Go_O	1.0
731.868	1.0	go	0.255	Go_X	1.0
734.392	1.0	go	0.422	Go_O	1.0
736.916	0.45	stop	0.408	Go_O	0.0
739.441	1.0	go	0.831	Go_X	1.0
741.965	1.0	go	0.469	Go_O	1.0
744.489	0.4	stop	0.0	Go_X	1.0
747.013	1.0	go	0.483	Go_X	1.0
749.537	0.45	stop	0.0	Go_O	1.0
752.061	1.0	go	0.544	Go_O	1.0
754.586	1.0	go	0.497	Go_X	1.0
757.11	1.0	go	0.648	Go_X	1.0
759.634	1.0	go	0.645	Go_O	1.0
762.158	1.0	go	0.429	Go_X	1.0
764.682	1.0	go	0.399	Go_O	1.0
767.206	1.0	go	0.636	Go_X	1.0
769.73	0.5	stop	0.424	Go_X	0.0
772.255	1.0	go	0.664	Go_O	1.0
774.779	1.0	go	0.451	Go_X	1.0
777.303	1.0	go	0.411	Go_O	1.0
779.827	0.45	stop	0.516	Go_O	0.0
782.351	1.0	go	0.0	Go_O	0.0
784.875	1.0	go	0.758	Go_X	1.0
787.4	1.0	go	0.847	Go_O	1.0
789.924	1.0	go	0.405	Go_X	1.0
792.448	0.4	stop	0.451	Go_X	0.0
794.972	1.0	go	0.533	Go_O	1.0
797.496	1.0	go	0.89	Go_X	1.0
800.02	0.35	stop	0.451	Go_O	0.0
802.545	1.0	go	0.588	Go_O	1.0
805.069	1.0	go	0.624	Go_X	1.0
807.593	0.3	stop	0.0	Go_X	1.0
810.117	1.0	go	0.481	Go_O	1.0
812.641	1.0	go	0.622	Go_X	1.0
815.165	0.35	stop	0.466	Go_O	0.0
817.69	1.0	go	0.54	Go_X	1.0
820.214	1.0	go	0.674	Go_O	1.0
822.738	1.0	go	0.55	Go_X	1.0
825.262	1.0	go	0.64	Go_O	1.0
827.786	1.0	go	0.477	Go_X	1.0
830.31	1.0	go	0.514	Go_O	1.0
832.835	0.3	stop	0.0	Go_X	1.0
835.359	1.0	go	0.618	Go_O	1.0
837.883	0.35	stop	0.446	Go_O	0.0
840.407	1.0	go	0.757	Go_X	1.0
842.931	1.0	go	0.496	Go_O	1.0
845.455	1.0	go	0.721	Go_X	1.0
847.979	1.0	go	0.372	Go_O	1.0
850.504	1.0	go	0.554	Go_X	1.0
853.028	0.3	stop	0.0	Go_X	1.0
855.552	1.0	go	0.0	Go_X	0.0
858.076	1.0	go	0.473	Go_O	1.0
860.6	1.0	go	0.532	Go_O	1.0
863.124	0.35	stop	0.0	Go_O	1.0
865.649	0.4	stop	0.526	Go_X	0.0
868.173	0.35	stop	0.0	Go_O	1.0
870.697	1.0	go	0.822	Go_X	1.0
873.221	0.4	stop	0.0	Go_X	1.0
875.745	1.0	go	0.0	Go_X	0.0
878.269	1.0	go	0.609	Go_O	1.0
880.794	1.0	go	0.635	Go_X	1.0
883.319	1.0	go	0.374	Go_O	1.0
885.842	1.0	go	0.416	Go_O	1.0
888.366	1.0	go	0.376	Go_X	1.0
890.89	1.0	go	0.56	Go_X	1.0
893.414	1.0	go	0.611	Go_O	1.0
895.939	0.45	stop	0.58	Go_O	0.0
898.463	1.0	go	0.589	Go_O	1.0
900.987	1.0	go	0.657	Go_X	1.0
903.511	0.4	stop	0.0	Go_X	1.0
906.035	1.0	go	0.604	Go_O	1.0
908.559	1.0	go	0.649	Go_X	1.0
911.083	1.0	go	0.567	Go_X	1.0
913.608	1.0	go	0.672	Go_O	1.0
916.132	1.0	go	0.417	Go_O	1.0
918.656	0.45	stop	0.543	Go_O	0.0
921.18	1.0	go	0.73	Go_X	1.0
923.704	1.0	go	0.985	Go_X	1.0
926.228	1.0	go	0.453	Go_O	1.0
928.753	0.4	stop	0.332	Go_X	0.0
931.277	1.0	go	0.494	Go_O	1.0
933.801	0.35	stop	0.0	Go_O	1.0
936.325	1.0	go	0.43	Go_X	1.0
938.849	1.0	go	0.769	Go_O	1.0
941.373	1.0	go	0.0	Go_X	0.0
943.898	1.0	go	0.4	Go_O	1.0
946.422	1.0	go	0.778	Go_X	1.0
948.946	1.0	go	0.691	Go_O	1.0
951.47	1.0	go	0.512	Go_X	1.0
953.994	0.4	stop	0.398	Go_X	0.0
956.518	1.0	go	0.424	Go_O	1.0
959.043	1.0	go	0.595	Go_X	1.0
961.567	1.0	go	0.42	Go_X	1.0
964.091	1.0	go	0.545	Go_O	1.0
966.615	0.35	stop	0.0	Go_O	1.0
969.139	1.0	go	0.522	Go_O	1.0
971.663	0.4	stop	0.0	Go_X	1.0
974.188	1.0	go	0.628	Go_X	1.0
976.712	1.0	go	0.471	Go_O	1.0
979.236	0.45	stop	0.525	Go_O	0.0
981.76	1.0	go	0.548	Go_X	1.0
984.284	1.0	go	0.732	Go_X	1.0
986.808	1.0	go	0.509	Go_O	1.0
989.332	1.0	go	0.558	Go_X	1.0
991.857	1.0	go	0.491	Go_O	1.0
994.381	1.0	go	0.585	Go_O	1.0
996.905	1.0	go	0.87	Go_X	1.0
999.429	1.0	go	0.0	Go_O	0.0
1001.953	1.0	go	0.489	Go_X	1.0
1004.477	1.0	go	0.466	Go_X	1.0
1007.002	0.4	stop	0.499	Go_X	0.0
1009.526	1.0	go	0.485	Go_O	1.0
1012.05	1.0	go	0.546	Go_X	1.0
1014.574	0.35	stop	0.479	Go_O	0.0
1017.098	1.0	go	0.0	Go_O	0.0
1019.622	0.3	stop	0.0	Go_X	1.0
1022.147	1.0	go	0.968	Go_O	1.0
1024.671	1.0	go	0.665	Go_X	1.0
1027.195	0.35	stop	0.0	Go_O	1.0
1029.719	1.0	go	0.611	Go_O	1.0
1032.243	0.4	stop	0.0	Go_X	1.0
1034.767	1.0	go	0.898	Go_X	1.0
1037.292	1.0	go	0.589	Go_O	1.0
1039.816	1.0	go	0.747	Go_X	1.0
1042.34	0.45	stop	0.0	Go_O	1.0
1044.864	1.0	go	0.604	Go_O	1.0
1047.388	1.0	go	0.438	Go_X	1.0
1049.912	1.0	go	0.504	Go_O	1.0
1052.437	1.0	go	0.561	Go_X	1.0
1054.961	0.5	stop	0.591	Go_X	0.0
1057.485	1.0	go	0.0	Go_X	0.0
1060.009	1.0	go	0.729	Go_O	1.0
1062.533	0.45	stop	0.0	Go_O	1.0
1065.057	1.0	go	0.96	Go_O	1.0
1067.581	1.0	go	0.575	Go_X	1.0
1070.106	1.0	go	0.775	Go_X	1.0
1072.63	1.0	go	0.557	Go_O	1.0
1075.154	0.5	stop	0.0	Go_X	1.0
1077.678	1.0	go	0.0	Go_O	0.0
1080.202	0.55	stop	0.526	Go_O	0.0
1082.726	1.0	go	0.48	Go_X	1.0
1085.251	1.0	go	0.624	Go_O	1.0
1087.775	0.5	stop	0.496	Go_X	0.0
1090.299	1.0	go	0.533	Go_X	1.0
1092.823	1.0	go	0.632	Go_O	1.0
1095.347	1.0	go	0.62	Go_X	1.0
1097.871	1.0	go	0.694	Go_X	1.0
1100.396	0.45	stop	0.345	Go_O	0.0
1102.92	1.0	go	0.56	Go_O	1.0
1105.444	0.4	stop	0.0	Go_X	1.0
1107.968	1.0	go	0.0	Go_X	0.0
1110.492	1.0	go	0.62	Go_O	1.0
1113.016	1.0	go	0.488	Go_X	1.0
1115.541	1.0	go	0.599	Go_O	1.0
1118.065	1.0	go	0.56	Go_O	1.0
1120.606	1.0	go	0.356	Go_X	1.0
1123.13	0.45	stop	0.0	Go_O	1.0
1125.654	1.0	go	0.662	Go_O	1.0
1128.178	1.0	go	0.576	Go_X	1.0
1130.702	0.5	stop	0.641	Go_X	0.0
1133.226	1.0	go	0.593	Go_O	1.0
1135.751	1.0	go	0.389	Go_X	1.0
1138.275	0.45	stop	0.54	Go_O	0.0
1140.799	1.0	go	0.554	Go_O	1.0
1143.323	1.0	go	0.485	Go_X	1.0
1145.847	1.0	go	0.0	Go_X	0.0
1148.371	1.0	go	0.489	Go_O	1.0
1150.896	0.4	stop	0.59	Go_X	0.0
1153.42	1.0	go	0.349	Go_O	1.0
1155.944	0.35	stop	0.0	Go_O	1.0
1158.468	1.0	go	0.546	Go_X	1.0
1160.992	1.0	go	0.428	Go_X	1.0
1163.516	1.0	go	0.466	Go_O	1.0
1166.04	1.0	go	0.565	Go_X	1.0
1168.565	1.0	go	0.528	Go_O	1.0
1171.089	0.4	stop	0.359	Go_X	0.0
1173.613	1.0	go	0.467	Go_X	1.0
1176.137	1.0	go	0.418	Go_O	1.0
1178.661	0.35	stop	0.413	Go_O	0.0
1181.185	0.3	stop	0.481	Go_X	0.0
1183.71	1.0	go	0.64	Go_O	1.0
1186.234	1.0	go	0.428	Go_X	1.0
1188.758	1.0	go	0.502	Go_O	1.0
1191.282	1.0	go	0.447	Go_X	1.0
1193.806	0.25	stop	0.0	Go_O	1.0
1196.33	1.0	go	0.48	Go_O	1.0
