onset	duration	trial_type	response_time	stim_file	accuracy
0.5970000000000368	1.0	go	0.0	Go_O	0.0
3.187999999999988	1.0	go	0.364	Go_X	1.0
5.711999999999989	1.0	go	0.462	Go_X	1.0
8.23599999999999	1.0	go	0.313	Go_O	1.0
10.759999999999991	1.0	go	0.426	Go_X	1.0
13.283999999999992	1.0	go	0.289	Go_O	1.0
15.809000000000026	0.25	stopfail	0.386	Go_O	0.0
18.333000000000027	1.0	go	0.698	Go_X	0.0
20.857000000000028	0.2	stopsuccess	0.0	Go_X	1.0
23.38100000000003	1.0	go	0.384	Go_O	1.0
25.90500000000003	1.0	go	0.486	Go_X	1.0
28.42900000000003	1.0	go	0.37	Go_O	1.0
30.95300000000003	0.25	stopfail	0.389	Go_O	0.0
33.47800000000001	1.0	go	0.329	Go_O	1.0
36.00200000000001	1.0	go	0.521	Go_X	1.0
38.52600000000001	0.2	stopsuccess	0.0	Go_X	1.0
41.05000000000001	0.25	stopsuccess	0.0	Go_O	1.0
43.57400000000001	1.0	go	0.727	Go_X	1.0
46.09800000000001	1.0	go	0.607	Go_O	1.0
48.62299999999999	0.3	stopfail	0.352	Go_X	0.0
51.14699999999999	1.0	go	0.549	Go_X	1.0
53.67099999999999	1.0	go	0.536	Go_O	1.0
56.19499999999999	0.25	stopsuccess	0.0	Go_O	1.0
58.718999999999994	1.0	go	0.406	Go_X	1.0
61.242999999999995	1.0	go	0.413	Go_O	1.0
63.76800000000003	0.3	stopfail	0.411	Go_X	0.0
66.29200000000003	1.0	go	0.728	Go_X	1.0
68.81600000000003	1.0	go	0.421	Go_O	1.0
71.33999999999997	0.25	stopsuccess	0.0	Go_O	1.0
73.86399999999998	1.0	go	0.538	Go_X	1.0
76.38799999999998	1.0	go	0.599	Go_O	1.0
78.91300000000007	1.0	go	0.667	Go_O	1.0
81.43700000000007	1.0	go	0.528	Go_X	1.0
83.96099999999996	1.0	go	0.428	Go_X	1.0
86.48499999999996	0.3	stopfail	0.395	Go_X	0.0
89.00899999999996	1.0	go	0.515	Go_O	1.0
91.53299999999996	1.0	go	0.475	Go_O	1.0
94.05800000000005	1.0	go	0.731	Go_X	1.0
96.58200000000005	1.0	go	0.71	Go_X	1.0
99.10600000000005	1.0	go	0.612	Go_O	1.0
101.63000000000005	0.25	stopfail	0.444	Go_O	0.0
104.15400000000005	1.0	go	0.455	Go_X	1.0
106.67800000000005	1.0	go	0.586	Go_O	1.0
109.20200000000006	1.0	go	0.493	Go_O	1.0
111.72700000000003	1.0	go	0.704	Go_X	1.0
114.25100000000003	1.0	go	0.425	Go_X	1.0
116.77500000000003	1.0	go	0.484	Go_O	1.0
119.29900000000004	0.2	stopsuccess	0.0	Go_X	1.0
121.82300000000004	1.0	go	0.421	Go_O	1.0
124.34700000000004	1.0	go	0.453	Go_X	1.0
126.87200000000001	0.25	stopsuccess	0.0	Go_O	1.0
129.39600000000002	1.0	go	0.895	Go_O	1.0
131.92000000000002	0.3	stopfail	0.392	Go_X	0.0
134.44400000000002	0.25	stopsuccess	0.0	Go_O	1.0
136.96800000000002	1.0	go	0.771	Go_X	0.0
139.49200000000002	1.0	go	0.725	Go_O	1.0
142.017	1.0	go	0.64	Go_X	1.0
144.541	1.0	go	0.534	Go_O	1.0
147.065	0.3	stopsuccess	0.0	Go_X	1.0
149.589	1.0	go	0.58	Go_X	1.0
152.113	0.35	stopsuccess	0.0	Go_O	1.0
154.637	1.0	go	0.686	Go_X	1.0
157.16199999999998	1.0	go	0.67	Go_O	1.0
159.68599999999998	1.0	go	0.484	Go_X	1.0
162.20999999999998	1.0	go	0.475	Go_O	1.0
164.73399999999998	1.0	go	0.569	Go_O	1.0
167.25799999999998	1.0	go	0.536	Go_X	1.0
169.78199999999998	1.0	go	0.696	Go_O	1.0
172.30699999999996	1.0	go	0.52	Go_X	1.0
174.83099999999996	1.0	go	0.449	Go_X	1.0
177.35499999999996	0.4	stopfail	0.529	Go_X	0.0
179.87899999999996	1.0	go	0.382	Go_O	1.0
182.40299999999996	1.0	go	0.55	Go_X	1.0
184.92699999999996	1.0	go	0.738	Go_O	1.0
187.45099999999996	0.35	stopsuccess	0.0	Go_O	1.0
189.97600000000006	1.0	go	0.425	Go_X	1.0
192.50000000000006	1.0	go	0.504	Go_O	1.0
195.02400000000006	1.0	go	0.483	Go_O	1.0
197.54800000000006	1.0	go	0.501	Go_X	1.0
200.07200000000006	1.0	go	0.616	Go_X	1.0
202.59600000000006	1.0	go	0.752	Go_O	1.0
205.12100000000004	0.4	stopfail	0.453	Go_X	0.0
207.64500000000004	1.0	go	0.536	Go_O	1.0
210.16900000000004	1.0	go	0.457	Go_X	1.0
212.69300000000004	0.35	stopsuccess	0.0	Go_O	1.0
215.21700000000004	1.0	go	0.0	Go_X	0.0
217.74100000000004	1.0	go	0.428	Go_O	1.0
220.26600000000002	0.4	stopfail	0.508	Go_X	0.0
222.79000000000002	1.0	go	0.568	Go_X	1.0
225.31400000000002	0.35	stopfail	0.452	Go_O	0.0
227.83800000000002	1.0	go	0.609	Go_O	1.0
230.36200000000002	1.0	go	0.58	Go_X	1.0
232.88600000000002	1.0	go	0.47	Go_O	1.0
235.411	1.0	go	0.491	Go_O	1.0
237.935	1.0	go	0.518	Go_X	1.0
240.459	0.3	stopsuccess	0.0	Go_X	1.0
242.983	0.35	stopsuccess	0.0	Go_O	1.0
245.507	1.0	go	0.817	Go_X	1.0
248.031	1.0	go	0.896	Go_O	1.0
250.555	0.4	stopsuccess	0.0	Go_X	1.0
253.07999999999998	1.0	go	0.904	Go_X	1.0
255.60399999999998	1.0	go	0.54	Go_O	1.0
258.128	1.0	go	0.512	Go_X	1.0
260.652	1.0	go	0.499	Go_O	1.0
263.176	1.0	go	0.465	Go_X	1.0
265.7	1.0	go	0.42	Go_O	1.0
268.22499999999997	0.45	stopfail	0.465	Go_O	0.0
270.74899999999997	1.0	go	0.545	Go_X	1.0
273.27299999999997	1.0	go	0.447	Go_O	1.0
275.79699999999997	1.0	go	0.417	Go_O	1.0
278.32099999999997	1.0	go	0.547	Go_X	1.0
280.84499999999997	1.0	go	0.465	Go_O	1.0
283.37000000000006	0.4	stopsuccess	0.0	Go_X	1.0
285.89400000000006	1.0	go	0.513	Go_X	1.0
288.41800000000006	1.0	go	0.359	Go_O	1.0
290.94200000000006	1.0	go	0.255	Go_X	1.0
293.46600000000007	1.0	go	0.422	Go_O	1.0
295.99000000000007	0.45	stopfail	0.408	Go_O	0.0
298.51500000000004	1.0	go	0.831	Go_X	1.0
301.03900000000004	1.0	go	0.469	Go_O	1.0
303.56300000000005	0.4	stopsuccess	0.0	Go_X	1.0
306.08700000000005	1.0	go	0.483	Go_X	1.0
308.61100000000005	0.45	stopsuccess	0.0	Go_O	1.0
311.13500000000005	1.0	go	0.544	Go_O	1.0
313.66	1.0	go	0.497	Go_X	1.0
316.184	1.0	go	0.648	Go_X	1.0
318.708	1.0	go	0.645	Go_O	1.0
321.232	1.0	go	0.429	Go_X	1.0
323.75600000000003	1.0	go	0.399	Go_O	1.0
326.28000000000003	1.0	go	0.636	Go_X	1.0
328.80400000000003	0.5	stopfail	0.424	Go_X	0.0
331.329	1.0	go	0.664	Go_O	1.0
333.853	1.0	go	0.451	Go_X	1.0
336.377	1.0	go	0.411	Go_O	1.0
338.901	0.45	stopfail	0.516	Go_O	0.0
341.425	1.0	go	0.0	Go_O	0.0
343.949	1.0	go	0.758	Go_X	1.0
346.474	1.0	go	0.847	Go_O	1.0
348.998	1.0	go	0.405	Go_X	1.0
351.522	0.4	stopfail	0.451	Go_X	0.0
354.046	1.0	go	0.533	Go_O	1.0
356.57	1.0	go	0.89	Go_X	1.0
359.094	0.35	stopfail	0.451	Go_O	0.0
361.61899999999997	1.0	go	0.588	Go_O	1.0
364.143	1.0	go	0.624	Go_X	1.0
366.667	0.3	stopsuccess	0.0	Go_X	1.0
369.191	1.0	go	0.481	Go_O	1.0
371.715	1.0	go	0.622	Go_X	1.0
374.239	0.35	stopfail	0.466	Go_O	0.0
376.76400000000007	1.0	go	0.54	Go_X	1.0
379.28800000000007	1.0	go	0.674	Go_O	1.0
381.81200000000007	1.0	go	0.55	Go_X	1.0
384.33599999999996	1.0	go	0.64	Go_O	1.0
386.85999999999996	1.0	go	0.477	Go_X	1.0
389.38399999999996	1.0	go	0.514	Go_O	1.0
391.90900000000005	0.3	stopsuccess	0.0	Go_X	1.0
394.43300000000005	1.0	go	0.618	Go_O	1.0
396.95700000000005	0.35	stopfail	0.446	Go_O	0.0
399.48100000000005	1.0	go	0.757	Go_X	1.0
402.00500000000005	1.0	go	0.496	Go_O	1.0
404.52900000000005	1.0	go	0.721	Go_X	1.0
407.05300000000005	1.0	go	0.372	Go_O	1.0
409.57800000000003	1.0	go	0.554	Go_X	1.0
412.10200000000003	0.3	stopsuccess	0.0	Go_X	1.0
414.62600000000003	1.0	go	0.0	Go_X	0.0
417.15000000000003	1.0	go	0.473	Go_O	1.0
419.67400000000004	1.0	go	0.532	Go_O	1.0
422.19800000000004	0.35	stopsuccess	0.0	Go_O	1.0
424.723	0.4	stopfail	0.526	Go_X	0.0
427.247	0.35	stopsuccess	0.0	Go_O	1.0
429.771	1.0	go	0.822	Go_X	1.0
432.295	0.4	stopsuccess	0.0	Go_X	1.0
434.819	1.0	go	0.0	Go_X	0.0
437.343	1.0	go	0.609	Go_O	1.0
439.868	1.0	go	0.635	Go_X	1.0
442.393	1.0	go	0.374	Go_O	1.0
444.916	1.0	go	0.416	Go_O	1.0
447.44	1.0	go	0.376	Go_X	1.0
449.964	1.0	go	0.56	Go_X	1.0
452.488	1.0	go	0.611	Go_O	1.0
455.013	0.45	stopfail	0.58	Go_O	0.0
457.537	1.0	go	0.589	Go_O	1.0
460.061	1.0	go	0.657	Go_X	1.0
462.585	0.4	stopsuccess	0.0	Go_X	1.0
465.109	1.0	go	0.604	Go_O	1.0
467.633	1.0	go	0.649	Go_X	1.0
470.157	1.0	go	0.567	Go_X	1.0
472.68199999999996	1.0	go	0.672	Go_O	1.0
475.20599999999996	1.0	go	0.417	Go_O	1.0
477.72999999999996	0.45	stopfail	0.543	Go_O	0.0
480.25399999999996	1.0	go	0.73	Go_X	1.0
482.77799999999996	1.0	go	0.985	Go_X	1.0
485.30199999999996	1.0	go	0.453	Go_O	1.0
487.82700000000006	0.4	stopfail	0.332	Go_X	0.0
490.35100000000006	1.0	go	0.494	Go_O	1.0
492.87500000000006	0.35	stopsuccess	0.0	Go_O	1.0
495.39900000000006	1.0	go	0.43	Go_X	1.0
497.92300000000006	1.0	go	0.769	Go_O	1.0
500.44700000000006	1.0	go	0.0	Go_X	0.0
502.97200000000004	1.0	go	0.4	Go_O	1.0
505.49600000000004	1.0	go	0.778	Go_X	1.0
508.02000000000004	1.0	go	0.691	Go_O	1.0
510.54400000000004	1.0	go	0.512	Go_X	1.0
513.068	0.4	stopfail	0.398	Go_X	0.0
515.5920000000001	1.0	go	0.424	Go_O	1.0
518.117	1.0	go	0.595	Go_X	1.0
520.6410000000001	1.0	go	0.42	Go_X	1.0
523.165	1.0	go	0.545	Go_O	1.0
525.6890000000001	0.35	stopsuccess	0.0	Go_O	1.0
528.213	1.0	go	0.522	Go_O	1.0
530.7370000000001	0.4	stopsuccess	0.0	Go_X	1.0
533.262	1.0	go	0.628	Go_X	1.0
535.7860000000001	1.0	go	0.471	Go_O	1.0
538.31	0.45	stopfail	0.525	Go_O	0.0
540.8340000000001	1.0	go	0.548	Go_X	1.0
543.358	1.0	go	0.732	Go_X	1.0
545.8820000000001	1.0	go	0.509	Go_O	1.0
548.406	1.0	go	0.558	Go_X	1.0
550.931	1.0	go	0.491	Go_O	1.0
553.4549999999999	1.0	go	0.585	Go_O	1.0
555.979	1.0	go	0.87	Go_X	1.0
558.5029999999999	1.0	go	0.0	Go_O	0.0
561.027	1.0	go	0.489	Go_X	1.0
563.5509999999999	1.0	go	0.466	Go_X	1.0
566.076	0.4	stopfail	0.499	Go_X	0.0
568.5999999999999	1.0	go	0.485	Go_O	1.0
571.124	1.0	go	0.546	Go_X	1.0
573.6479999999999	0.35	stopfail	0.479	Go_O	0.0
576.172	1.0	go	0.0	Go_O	0.0
578.6959999999999	0.3	stopsuccess	0.0	Go_X	1.0
581.221	1.0	go	0.968	Go_O	1.0
583.7450000000001	1.0	go	0.665	Go_X	1.0
586.269	0.35	stopsuccess	0.0	Go_O	1.0
588.7930000000001	1.0	go	0.611	Go_O	1.0
591.317	0.4	stopsuccess	0.0	Go_X	1.0
593.8410000000001	1.0	go	0.898	Go_X	1.0
596.366	1.0	go	0.589	Go_O	1.0
598.8900000000001	1.0	go	0.747	Go_X	1.0
601.414	0.45	stopsuccess	0.0	Go_O	1.0
603.9380000000001	1.0	go	0.604	Go_O	1.0
606.462	1.0	go	0.438	Go_X	1.0
608.9860000000001	1.0	go	0.504	Go_O	1.0
611.511	1.0	go	0.561	Go_X	1.0
614.0350000000001	0.5	stopfail	0.591	Go_X	0.0
616.559	1.0	go	0.0	Go_X	0.0
619.0830000000001	1.0	go	0.729	Go_O	1.0
621.607	0.45	stopsuccess	0.0	Go_O	1.0
624.1310000000001	1.0	go	0.96	Go_O	1.0
626.655	1.0	go	0.575	Go_X	1.0
629.1800000000001	1.0	go	0.775	Go_X	1.0
631.7040000000002	1.0	go	0.557	Go_O	1.0
634.2280000000001	0.5	stopsuccess	0.0	Go_X	1.0
636.7520000000002	1.0	go	0.0	Go_O	0.0
639.2760000000001	0.55	stopfail	0.526	Go_O	0.0
641.8000000000002	1.0	go	0.48	Go_X	1.0
644.325	1.0	go	0.624	Go_O	1.0
646.8490000000002	0.5	stopfail	0.496	Go_X	0.0
649.373	1.0	go	0.533	Go_X	1.0
651.8970000000002	1.0	go	0.632	Go_O	1.0
654.421	1.0	go	0.62	Go_X	1.0
656.9450000000002	1.0	go	0.694	Go_X	1.0
659.47	0.45	stopfail	0.345	Go_O	0.0
661.9940000000001	1.0	go	0.56	Go_O	1.0
664.518	0.4	stopsuccess	0.0	Go_X	1.0
667.0420000000001	1.0	go	0.0	Go_X	0.0
669.566	1.0	go	0.62	Go_O	1.0
672.0900000000001	1.0	go	0.488	Go_X	1.0
674.615	1.0	go	0.599	Go_O	1.0
677.1390000000001	1.0	go	0.56	Go_O	1.0
679.6800000000001	1.0	go	0.356	Go_X	1.0
682.2040000000002	0.45	stopsuccess	0.0	Go_O	1.0
684.7280000000001	1.0	go	0.662	Go_O	1.0
687.2520000000002	1.0	go	0.576	Go_X	1.0
689.7760000000001	0.5	stopfail	0.641	Go_X	0.0
692.3000000000002	1.0	go	0.593	Go_O	1.0
694.825	1.0	go	0.389	Go_X	1.0
697.3490000000002	0.45	stopfail	0.54	Go_O	0.0
699.873	1.0	go	0.554	Go_O	1.0
702.3970000000002	1.0	go	0.485	Go_X	1.0
704.921	1.0	go	0.0	Go_X	0.0
707.4450000000002	1.0	go	0.489	Go_O	1.0
709.97	0.4	stopfail	0.59	Go_X	0.0
712.4940000000001	1.0	go	0.349	Go_O	1.0
715.018	0.35	stopsuccess	0.0	Go_O	1.0
717.5420000000001	1.0	go	0.546	Go_X	1.0
720.066	1.0	go	0.428	Go_X	1.0
722.5900000000001	1.0	go	0.466	Go_O	1.0
725.114	1.0	go	0.565	Go_X	1.0
727.6390000000001	1.0	go	0.528	Go_O	1.0
730.163	0.4	stopfail	0.359	Go_X	0.0
732.6870000000001	1.0	go	0.467	Go_X	1.0
735.211	1.0	go	0.418	Go_O	1.0
737.7350000000001	0.35	stopfail	0.413	Go_O	0.0
740.259	0.3	stopfail	0.481	Go_X	0.0
742.7840000000001	1.0	go	0.64	Go_O	1.0
745.308	1.0	go	0.428	Go_X	1.0
747.8320000000001	1.0	go	0.502	Go_O	1.0
750.356	1.0	go	0.447	Go_X	1.0
752.8800000000001	0.25	stopsuccess	0.0	Go_O	1.0
755.404	1.0	go	0.48	Go_O	1.0
