onset	duration	trial_type	response_time	stim_file	accuracy
83.822	1.0	go	0.616	Go_O	1.0
86.347	1.0	go	0.559	Go_X	1.0
88.871	1.0	go	0.61	Go_X	1.0
91.395	1.0	go	0.763	Go_O	1.0
93.919	1.0	go	0.877	Go_O	1.0
96.443	1.0	go	0.764	Go_X	1.0
98.968	0.25	stop	0.0	Go_O	1.0
101.492	1.0	go	0.65	Go_O	1.0
104.016	0.3	stop	0.0	Go_X	1.0
106.54	1.0	go	0.667	Go_X	1.0
109.064	1.0	go	0.759	Go_O	1.0
111.588	1.0	go	0.918	Go_X	1.0
114.113	0.35	stop	0.0	Go_O	1.0
116.637	1.0	go	0.72	Go_X	1.0
119.161	1.0	go	0.948	Go_O	1.0
121.685	0.4	stop	0.0	Go_X	1.0
124.209	0.45	stop	0.693	Go_O	0.0
126.734	1.0	go	0.518	Go_O	1.0
129.258	1.0	go	0.696	Go_X	1.0
131.782	0.4	stop	0.0	Go_X	1.0
134.306	1.0	go	0.697	Go_X	1.0
136.83	1.0	go	0.0	Go_O	0.0
139.355	0.45	stop	0.0	Go_O	1.0
141.879	1.0	go	0.0	Go_X	0.0
144.403	1.0	go	0.872	Go_O	1.0
146.927	0.5	stop	0.0	Go_X	1.0
149.451	1.0	go	0.802	Go_O	1.0
151.976	1.0	go	0.996	Go_X	1.0
154.5	0.55	stop	0.0	Go_O	1.0
157.024	1.0	go	0.61	Go_X	1.0
159.548	1.0	go	0.72	Go_O	1.0
162.072	1.0	go	0.664	Go_O	1.0
164.597	1.0	go	0.662	Go_X	1.0
167.121	1.0	go	0.847	Go_X	1.0
169.645	0.6	stop	0.0	Go_X	1.0
172.169	1.0	go	0.86	Go_O	1.0
174.693	1.0	go	0.745	Go_O	1.0
177.217	1.0	go	0.592	Go_X	1.0
179.742	1.0	go	0.73	Go_O	1.0
182.266	1.0	go	0.935	Go_X	1.0
184.79	0.65	stop	0.855	Go_O	0.0
187.314	1.0	go	0.488	Go_X	1.0
189.838	1.0	go	0.0	Go_O	0.0
192.363	1.0	go	0.769	Go_X	1.0
194.887	1.0	go	0.697	Go_O	1.0
197.411	1.0	go	0.674	Go_X	1.0
199.935	1.0	go	0.957	Go_O	1.0
202.459	0.6	stop	0.789	Go_X	0.0
204.984	1.0	go	0.697	Go_O	1.0
207.508	1.0	go	0.67	Go_X	1.0
210.032	0.55	stop	0.0	Go_O	1.0
212.556	1.0	go	0.924	Go_X	1.0
215.08	0.6	stop	0.731	Go_X	0.0
217.605	0.55	stop	0.698	Go_O	0.0
220.129	1.0	go	0.732	Go_O	1.0
222.653	1.0	go	0.761	Go_O	1.0
225.177	1.0	go	0.776	Go_X	1.0
227.701	1.0	go	0.911	Go_O	1.0
230.226	0.5	stop	0.676	Go_X	0.0
232.75	1.0	go	0.805	Go_X	1.0
235.274	0.45	stop	0.496	Go_O	0.0
237.798	1.0	go	0.954	Go_O	1.0
240.322	1.0	go	0.951	Go_X	1.0
242.846	1.0	go	0.844	Go_O	1.0
245.371	1.0	go	0.995	Go_X	1.0
247.895	1.0	go	0.76	Go_O	1.0
250.419	1.0	go	0.856	Go_X	1.0
252.943	1.0	go	0.0	Go_O	0.0
255.467	1.0	go	0.851	Go_X	1.0
257.992	1.0	go	0.962	Go_X	1.0
260.516	0.4	stop	0.0	Go_X	1.0
263.04	1.0	go	0.84	Go_O	1.0
265.564	1.0	go	0.914	Go_O	1.0
268.088	1.0	go	0.0	Go_X	0.0
270.613	0.45	stop	0.0	Go_O	1.0
273.137	1.0	go	0.813	Go_O	1.0
275.661	1.0	go	0.882	Go_X	1.0
278.185	1.0	go	0.871	Go_X	0.0
280.709	1.0	go	0.911	Go_O	1.0
283.234	1.0	go	0.0	Go_O	0.0
285.758	1.0	go	0.99	Go_X	1.0
288.282	0.5	stop	0.0	Go_X	1.0
290.806	1.0	go	0.778	Go_X	1.0
293.33	1.0	go	0.718	Go_O	1.0
295.855	0.55	stop	0.0	Go_O	1.0
298.379	1.0	go	0.822	Go_O	1.0
300.903	1.0	go	0.816	Go_X	1.0
303.427	0.6	stop	0.865	Go_X	0.0
305.951	1.0	go	0.817	Go_X	1.0
308.475	0.55	stop	0.0	Go_O	1.0
311.0	1.0	go	0.768	Go_O	1.0
313.524	1.0	go	0.754	Go_O	1.0
316.048	1.0	go	0.805	Go_X	1.0
318.572	1.0	go	0.654	Go_O	1.0
321.096	1.0	go	0.675	Go_X	1.0
323.621	0.6	stop	0.0	Go_X	1.0
326.145	0.65	stop	0.777	Go_O	0.0
328.669	1.0	go	0.682	Go_O	1.0
331.193	1.0	go	0.97	Go_X	1.0
333.717	0.6	stop	0.0	Go_X	1.0
336.242	1.0	go	0.674	Go_O	1.0
338.766	1.0	go	0.986	Go_X	1.0
341.29	1.0	go	0.0	Go_O	0.0
343.814	1.0	go	0.693	Go_X	1.0
346.338	1.0	go	0.0	Go_X	0.0
348.863	1.0	go	0.0	Go_O	0.0
351.387	0.65	stop	0.0	Go_O	1.0
353.911	1.0	go	0.581	Go_O	1.0
356.435	1.0	go	0.737	Go_X	1.0
358.959	1.0	go	0.0	Go_X	0.0
361.484	1.0	go	0.0	Go_O	0.0
364.008	1.0	go	0.877	Go_X	1.0
366.532	0.7	stop	0.0	Go_X	1.0
369.056	1.0	go	0.822	Go_O	1.0
371.58	1.0	go	0.803	Go_X	1.0
374.104	1.0	go	0.905	Go_O	1.0
376.629	1.0	go	0.786	Go_O	1.0
379.153	0.75	stop	0.802	Go_O	0.0
381.677	1.0	go	0.594	Go_X	1.0
384.201	1.0	go	0.651	Go_O	1.0
386.725	0.7	stop	0.875	Go_X	0.0
389.25	1.0	go	0.0	Go_X	0.0
391.774	0.65	stop	0.594	Go_O	0.0
394.298	1.0	go	0.719	Go_X	1.0
396.822	1.0	go	0.0	Go_O	0.0
399.346	1.0	go	0.0	Go_O	0.0
401.871	1.0	go	0.764	Go_X	1.0
404.395	1.0	go	0.922	Go_O	1.0
406.919	1.0	go	0.704	Go_X	1.0
409.443	1.0	go	0.785	Go_X	1.0
411.967	0.6	stop	0.776	Go_X	0.0
414.492	1.0	go	0.678	Go_O	1.0
417.016	1.0	go	0.744	Go_O	0.0
419.54	1.0	go	0.698	Go_X	1.0
422.064	0.55	stop	0.539	Go_O	0.0
424.588	1.0	go	0.752	Go_X	1.0
427.113	1.0	go	0.654	Go_O	1.0
429.637	1.0	go	0.996	Go_X	1.0
432.161	1.0	go	0.954	Go_O	1.0
434.685	0.5	stop	0.653	Go_X	0.0
437.209	1.0	go	0.596	Go_X	1.0
439.733	1.0	go	0.817	Go_O	1.0
442.258	0.45	stop	0.0	Go_O	1.0
444.782	1.0	go	0.78	Go_O	1.0
447.306	1.0	go	0.923	Go_X	1.0
449.83	0.5	stop	0.0	Go_X	1.0
452.354	1.0	go	0.801	Go_X	1.0
454.879	1.0	go	0.18	Go_O	0.0
457.403	0.55	stop	0.566	Go_O	0.0
459.927	1.0	go	0.929	Go_X	1.0
462.451	1.0	go	0.0	Go_O	0.0
464.975	1.0	go	0.848	Go_X	1.0
467.5	1.0	go	0.927	Go_O	1.0
470.024	1.0	go	0.979	Go_O	1.0
472.548	1.0	go	0.0	Go_X	0.0
475.072	0.5	stop	0.0	Go_X	1.0
477.596	1.0	go	0.948	Go_O	1.0
480.121	0.55	stop	0.0	Go_O	1.0
482.645	1.0	go	0.793	Go_X	1.0
485.169	1.0	go	0.821	Go_O	1.0
487.693	1.0	go	0.0	Go_X	0.0
490.217	1.0	go	0.647	Go_X	1.0
492.742	1.0	go	0.638	Go_O	1.0
495.266	0.6	stop	0.806	Go_X	0.0
497.79	1.0	go	0.719	Go_X	1.0
500.314	1.0	go	0.713	Go_O	1.0
502.838	1.0	go	0.813	Go_X	1.0
505.362	0.55	stop	0.645	Go_O	0.0
507.887	0.5	stop	0.718	Go_X	0.0
510.411	0.45	stop	0.504	Go_O	0.0
512.935	1.0	go	0.583	Go_O	1.0
515.459	0.4	stop	0.0	Go_X	1.0
517.983	1.0	go	0.692	Go_X	0.0
520.508	1.0	go	0.78	Go_O	1.0
523.032	1.0	go	0.661	Go_X	1.0
525.556	1.0	go	0.798	Go_O	1.0
528.08	1.0	go	0.798	Go_X	1.0
530.604	1.0	go	0.719	Go_O	1.0
533.129	1.0	go	0.726	Go_X	1.0
535.653	1.0	go	0.0	Go_O	0.0
538.177	0.45	stop	0.0	Go_O	1.0
540.701	1.0	go	0.799	Go_O	1.0
543.225	1.0	go	0.0	Go_X	0.0
545.75	0.5	stop	0.558	Go_X	0.0
548.274	1.0	go	0.634	Go_X	0.0
550.798	1.0	go	0.728	Go_O	1.0
553.322	1.0	go	0.915	Go_O	1.0
555.846	1.0	go	0.786	Go_X	0.0
558.371	1.0	go	0.689	Go_O	1.0
560.895	0.45	stop	0.0	Go_O	1.0
563.419	1.0	go	0.74	Go_X	1.0
565.943	1.0	go	0.662	Go_X	1.0
568.467	1.0	go	0.694	Go_O	1.0
570.991	0.5	stop	0.0	Go_X	1.0
573.516	1.0	go	0.0	Go_O	0.0
576.04	0.55	stop	0.618	Go_O	0.0
578.564	1.0	go	0.491	Go_X	1.0
581.088	1.0	go	0.673	Go_O	1.0
583.612	1.0	go	0.0	Go_X	0.0
586.137	1.0	go	0.0	Go_O	0.0
588.661	1.0	go	0.962	Go_X	1.0
591.185	1.0	go	0.0	Go_O	0.0
593.709	1.0	go	0.566	Go_X	1.0
596.233	0.5	stop	0.0	Go_X	1.0
598.758	1.0	go	0.0	Go_O	0.0
601.282	1.0	go	0.0	Go_X	0.0
603.806	1.0	go	0.789	Go_O	1.0
606.33	1.0	go	0.735	Go_X	1.0
608.854	0.55	stop	0.0	Go_O	1.0
611.379	1.0	go	0.658	Go_O	1.0
613.903	0.6	stop	0.977	Go_X	0.0
616.427	1.0	go	0.409	Go_X	1.0
618.951	1.0	go	0.718	Go_X	1.0
621.475	0.55	stop	0.921	Go_O	0.0
624.0	1.0	go	0.0	Go_O	0.0
626.524	1.0	go	0.0	Go_O	0.0
629.048	1.0	go	0.488	Go_X	1.0
631.572	1.0	go	0.298	Go_O	1.0
634.096	1.0	go	0.381	Go_X	1.0
636.62	1.0	go	0.912	Go_X	1.0
639.145	1.0	go	0.515	Go_O	1.0
641.669	1.0	go	0.064	Go_X	1.0
644.193	1.0	go	0.412	Go_O	1.0
646.717	1.0	go	0.41	Go_X	1.0
649.241	0.5	stop	0.0	Go_X	1.0
651.766	1.0	go	0.793	Go_O	1.0
654.29	1.0	go	0.0	Go_O	0.0
656.814	0.55	stop	0.0	Go_O	1.0
659.338	1.0	go	0.665	Go_X	1.0
661.862	0.6	stop	0.0	Go_X	1.0
664.387	1.0	go	0.71	Go_X	1.0
666.911	1.0	go	0.684	Go_O	1.0
669.435	0.65	stop	0.974	Go_O	0.0
671.959	1.0	go	0.0	Go_O	0.0
674.483	0.6	stop	0.66	Go_X	0.0
677.008	1.0	go	0.956	Go_X	1.0
679.532	1.0	go	0.842	Go_X	1.0
682.056	1.0	go	0.763	Go_O	1.0
684.58	0.55	stop	0.0	Go_O	1.0
687.104	1.0	go	0.532	Go_O	0.0
689.629	1.0	go	0.424	Go_X	1.0
692.153	1.0	go	0.664	Go_O	1.0
694.677	1.0	go	0.645	Go_X	1.0
697.201	0.6	stop	0.678	Go_X	0.0
699.725	1.0	go	0.631	Go_O	1.0
702.249	1.0	go	0.0	Go_X	0.0
704.774	0.55	stop	0.0	Go_O	1.0
707.298	1.0	go	0.418	Go_X	1.0
709.822	1.0	go	0.486	Go_O	1.0
712.346	1.0	go	0.742	Go_X	1.0
714.87	1.0	go	0.0	Go_O	0.0
717.395	0.6	stop	0.0	Go_X	1.0
719.919	1.0	go	0.652	Go_O	1.0
722.443	0.65	stop	0.0	Go_O	1.0
724.967	1.0	go	0.528	Go_X	1.0
727.491	1.0	go	0.403	Go_O	1.0
730.016	0.7	stop	0.807	Go_X	0.0
732.54	1.0	go	0.0	Go_X	0.0
735.064	1.0	go	0.642	Go_O	1.0
737.588	1.0	go	0.615	Go_X	1.0
740.112	1.0	go	0.928	Go_X	1.0
742.637	0.65	stop	0.0	Go_O	1.0
745.161	1.0	go	0.0	Go_O	0.0
747.685	0.7	stop	0.889	Go_X	0.0
750.209	1.0	go	0.615	Go_O	1.0
752.733	1.0	go	0.0	Go_X	0.0
755.257	1.0	go	0.87	Go_X	1.0
757.782	1.0	go	0.669	Go_O	1.0
760.306	1.0	go	0.484	Go_X	1.0
762.83	1.0	go	0.716	Go_O	1.0
765.354	0.65	stop	0.525	Go_O	0.0
767.878	1.0	go	0.747	Go_O	1.0
770.403	1.0	go	0.722	Go_X	1.0
772.927	0.6	stop	0.0	Go_X	1.0
775.451	1.0	go	0.635	Go_X	1.0
777.975	1.0	go	0.705	Go_O	1.0
780.499	0.65	stop	0.704	Go_O	0.0
783.024	1.0	go	0.694	Go_O	1.0
785.548	1.0	go	0.0	Go_X	0.0
788.072	1.0	go	0.691	Go_X	1.0
790.596	1.0	go	0.677	Go_O	1.0
793.12	0.6	stop	0.0	Go_X	1.0
795.645	1.0	go	0.497	Go_O	1.0
798.169	0.65	stop	0.0	Go_O	1.0
800.693	1.0	go	0.646	Go_X	1.0
803.217	1.0	go	0.669	Go_O	1.0
805.741	1.0	go	0.963	Go_X	1.0
808.266	1.0	go	0.0	Go_O	0.0
810.79	1.0	go	0.0	Go_X	0.0
813.314	0.7	stop	0.725	Go_X	0.0
815.838	1.0	go	0.409	Go_O	1.0
818.362	1.0	go	0.0	Go_X	0.0
820.887	0.65	stop	0.878	Go_O	0.0
823.411	0.6	stop	0.374	Go_X	0.0
825.935	1.0	go	0.0	Go_O	0.0
828.459	1.0	go	0.472	Go_X	1.0
830.983	1.0	go	0.858	Go_O	1.0
833.507	1.0	go	0.72	Go_X	1.0
836.032	0.55	stop	0.684	Go_O	0.0
838.556	1.0	go	0.413	Go_X	1.0
