onset	duration	trial_type	response_time	stim_file	accuracy
61.665	1.0	go	0.669	Go_X	0.0
64.199	1.0	go	0.399	Go_O	0.0
66.748	1.0	go	0.45	Go_O	0.0
69.282	1.0	go	0.267	Go_X	0.0
71.815	1.0	go	0.359	Go_X	0.0
74.348	1.0	go	0.399	Go_O	0.0
76.882	0.25	stop	0.452	Go_O	0.0
79.431	1.0	go	0.768	Go_X	0.0
81.965	0.2	stop	0.0	Go_X	1.0
84.498	1.0	go	0.423	Go_O	0.0
87.031	1.0	go	0.359	Go_X	0.0
89.565	1.0	go	0.462	Go_O	0.0
92.098	0.25	stop	0.0	Go_O	1.0
94.631	1.0	go	0.341	Go_X	0.0
97.164	1.0	go	0.487	Go_O	0.0
99.698	0.3	stop	0.416	Go_X	0.0
102.231	0.25	stop	0.0	Go_O	1.0
104.764	1.0	go	0.401	Go_X	0.0
107.297	1.0	go	0.425	Go_O	0.0
109.831	0.3	stop	0.0	Go_X	1.0
112.364	1.0	go	0.573	Go_X	0.0
114.897	1.0	go	0.528	Go_O	0.0
117.431	0.35	stop	0.605	Go_O	0.0
119.964	1.0	go	0.671	Go_O	0.0
122.497	1.0	go	0.366	Go_X	0.0
125.03	0.3	stop	0.0	Go_X	1.0
127.564	1.0	go	0.679	Go_X	0.0
130.097	1.0	go	0.676	Go_O	0.0
132.63	0.35	stop	0.0	Go_O	1.0
135.164	1.0	go	0.324	Go_X	0.0
137.713	1.0	go	0.523	Go_O	0.0
140.247	1.0	go	0.51	Go_X	0.0
142.78	1.0	go	0.475	Go_O	0.0
145.313	1.0	go	0.861	Go_X	0.0
147.847	0.4	stop	0.0	Go_X	1.0
150.38	1.0	go	0.428	Go_O	0.0
152.913	1.0	go	0.571	Go_X	0.0
155.446	1.0	go	0.45	Go_O	0.0
157.98	1.0	go	0.701	Go_X	0.0
160.513	1.0	go	0.55	Go_O	0.0
163.046	0.45	stop	0.569	Go_O	0.0
165.579	1.0	go	0.0	Go_O	0.0
168.113	1.0	go	0.589	Go_X	0.0
170.646	1.0	go	0.323	Go_O	0.0
173.179	1.0	go	0.287	Go_X	0.0
175.713	1.0	go	0.418	Go_O	0.0
178.246	1.0	go	0.488	Go_X	0.0
180.779	0.4	stop	0.0	Go_X	1.0
183.312	1.0	go	0.773	Go_X	0.0
185.846	1.0	go	0.309	Go_O	0.0
188.379	0.45	stop	0.0	Go_O	1.0
190.912	1.0	go	0.498	Go_X	0.0
193.445	0.5	stop	0.0	Go_X	1.0
195.979	0.55	stop	0.582	Go_O	0.0
198.512	1.0	go	0.706	Go_O	0.0
201.045	1.0	go	0.594	Go_O	0.0
203.579	1.0	go	0.751	Go_X	0.0
206.112	1.0	go	0.427	Go_X	1.0
208.645	0.5	stop	0.545	Go_X	0.0
211.178	1.0	go	0.559	Go_O	1.0
213.712	0.45	stop	0.548	Go_O	0.0
216.245	1.0	go	0.479	Go_X	0.0
218.778	1.0	go	0.563	Go_O	0.0
221.312	1.0	go	0.591	Go_X	0.0
223.861	1.0	go	0.497	Go_O	0.0
226.395	1.0	go	0.971	Go_O	0.0
228.928	1.0	go	0.696	Go_X	0.0
231.461	1.0	go	0.416	Go_O	0.0
233.995	1.0	go	0.653	Go_X	0.0
236.528	1.0	go	0.727	Go_X	1.0
239.061	0.4	stop	0.582	Go_X	0.0
241.594	1.0	go	0.523	Go_O	0.0
244.128	1.0	go	0.0	Go_X	0.0
246.661	1.0	go	0.5	Go_O	0.0
249.194	0.35	stop	0.617	Go_O	0.0
251.727	1.0	go	0.0	Go_O	0.0
254.261	1.0	go	0.0	Go_X	0.0
256.794	1.0	go	0.314	Go_X	1.0
259.327	1.0	go	0.464	Go_O	0.0
261.861	1.0	go	0.582	Go_O	0.0
264.394	1.0	go	0.318	Go_X	0.0
266.927	0.3	stop	0.391	Go_X	0.0
269.46	1.0	go	0.54	Go_X	0.0
271.994	1.0	go	0.489	Go_O	0.0
274.527	0.25	stop	0.0	Go_O	1.0
277.06	1.0	go	0.664	Go_X	0.0
279.593	1.0	go	0.646	Go_O	0.0
282.127	0.3	stop	0.0	Go_X	1.0
284.66	1.0	go	0.357	Go_X	0.0
287.193	0.35	stop	0.571	Go_O	0.0
289.727	1.0	go	0.685	Go_O	0.0
292.26	1.0	go	0.0	Go_X	0.0
294.793	1.0	go	0.504	Go_O	0.0
297.326	1.0	go	0.42	Go_O	1.0
299.86	1.0	go	0.649	Go_X	0.0
302.393	0.3	stop	0.363	Go_X	0.0
304.926	0.25	stop	0.532	Go_O	0.0
307.46	1.0	go	0.614	Go_O	0.0
310.009	1.0	go	0.516	Go_X	0.0
312.543	0.2	stop	0.0	Go_X	1.0
315.076	1.0	go	0.0	Go_O	0.0
317.609	1.0	go	0.519	Go_X	0.0
320.143	1.0	go	0.641	Go_X	0.0
322.676	1.0	go	0.512	Go_O	0.0
325.209	1.0	go	0.437	Go_X	0.0
327.742	1.0	go	0.579	Go_O	0.0
330.276	0.25	stop	0.0	Go_O	1.0
332.809	1.0	go	0.592	Go_O	0.0
335.342	1.0	go	0.655	Go_X	0.0
337.875	1.0	go	0.564	Go_O	0.0
340.409	1.0	go	0.689	Go_X	0.0
342.942	1.0	go	0.654	Go_X	0.0
345.475	0.3	stop	0.43	Go_X	0.0
348.009	1.0	go	0.605	Go_O	0.0
350.542	1.0	go	0.475	Go_O	0.0
353.075	1.0	go	0.768	Go_X	0.0
355.608	1.0	go	0.0	Go_X	0.0
358.142	0.25	stop	0.326	Go_O	0.0
360.675	1.0	go	0.759	Go_O	0.0
363.208	1.0	go	0.439	Go_O	0.0
365.741	0.2	stop	0.0	Go_X	1.0
368.275	1.0	go	0.362	Go_X	0.0
370.808	0.25	stop	0.0	Go_O	1.0
373.341	1.0	go	0.489	Go_X	0.0
375.875	1.0	go	0.575	Go_O	0.0
378.408	1.0	go	0.61	Go_X	0.0
380.941	1.0	go	0.625	Go_O	0.0
383.474	1.0	go	0.432	Go_O	0.0
386.008	1.0	go	0.625	Go_X	0.0
388.541	1.0	go	0.295	Go_O	0.0
391.074	0.3	stop	0.0	Go_X	1.0
393.607	1.0	go	0.374	Go_X	0.0
396.141	1.0	go	0.409	Go_X	1.0
398.674	1.0	go	0.607	Go_O	1.0
401.207	0.35	stop	0.474	Go_O	0.0
403.741	1.0	go	0.514	Go_X	0.0
406.274	1.0	go	0.251	Go_O	0.0
408.807	1.0	go	0.487	Go_X	0.0
411.34	1.0	go	0.313	Go_O	0.0
413.874	0.3	stop	0.468	Go_X	0.0
416.407	1.0	go	0.281	Go_O	0.0
418.94	1.0	go	0.838	Go_X	0.0
421.474	0.25	stop	0.497	Go_O	0.0
424.023	1.0	go	0.601	Go_O	0.0
426.557	1.0	go	0.542	Go_X	0.0
429.09	0.2	stop	0.0	Go_X	1.0
431.623	1.0	go	0.482	Go_O	0.0
434.157	1.0	go	0.654	Go_X	0.0
436.69	0.25	stop	0.426	Go_O	0.0
439.223	1.0	go	0.744	Go_O	1.0
441.756	1.0	go	0.958	Go_X	0.0
444.29	1.0	go	0.0	Go_O	0.0
446.823	1.0	go	0.851	Go_X	0.0
449.356	1.0	go	0.844	Go_X	0.0
451.889	1.0	go	0.692	Go_O	1.0
454.423	0.2	stop	0.0	Go_X	1.0
456.956	1.0	go	0.974	Go_X	0.0
459.489	0.25	stop	0.0	Go_O	1.0
462.023	1.0	go	0.574	Go_O	0.0
464.556	1.0	go	0.736	Go_O	0.0
467.089	1.0	go	0.875	Go_X	0.0
469.622	1.0	go	0.46	Go_O	0.0
472.156	1.0	go	0.749	Go_X	0.0
474.689	0.3	stop	0.0	Go_X	1.0
477.222	1.0	go	0.0	Go_X	0.0
479.756	1.0	go	0.353	Go_O	0.0
482.305	1.0	go	0.0	Go_O	0.0
484.839	0.35	stop	0.41	Go_O	0.0
487.372	0.3	stop	0.386	Go_X	0.0
489.905	0.25	stop	0.593	Go_O	0.0
492.439	1.0	go	0.618	Go_X	0.0
494.988	0.2	stop	0.37	Go_X	0.0
497.522	1.0	go	0.5	Go_X	0.0
500.055	1.0	go	0.931	Go_O	0.0
502.588	1.0	go	0.706	Go_X	0.0
505.122	1.0	go	0.562	Go_O	0.0
507.655	1.0	go	0.604	Go_O	0.0
510.188	1.0	go	0.483	Go_X	0.0
512.721	1.0	go	0.487	Go_O	0.0
515.255	1.0	go	0.558	Go_X	0.0
517.788	0.15	stop	0.0	Go_O	1.0
520.321	1.0	go	0.842	Go_O	0.0
522.854	1.0	go	0.0	Go_X	0.0
525.388	0.2	stop	0.0	Go_X	1.0
527.921	1.0	go	0.581	Go_X	0.0
530.454	1.0	go	0.5	Go_O	0.0
532.988	1.0	go	0.37	Go_O	0.0
535.521	1.0	go	0.725	Go_X	0.0
538.054	1.0	go	0.606	Go_X	0.0
540.587	0.25	stop	0.559	Go_O	0.0
543.121	1.0	go	0.967	Go_O	0.0
545.654	1.0	go	0.501	Go_X	0.0
548.187	1.0	go	0.478	Go_O	0.0
550.721	0.2	stop	0.0	Go_X	1.0
553.27	1.0	go	0.864	Go_X	0.0
555.804	0.25	stop	0.0	Go_O	1.0
558.337	1.0	go	0.909	Go_O	0.0
560.87	1.0	go	0.0	Go_O	0.0
563.404	1.0	go	0.309	Go_X	0.0
565.937	1.0	go	0.594	Go_X	0.0
568.47	1.0	go	0.272	Go_O	0.0
571.003	1.0	go	0.437	Go_X	0.0
573.537	1.0	go	0.334	Go_O	0.0
576.07	0.3	stop	0.0	Go_X	1.0
578.603	1.0	go	0.688	Go_O	0.0
581.136	1.0	go	0.541	Go_X	0.0
583.67	1.0	go	0.594	Go_X	0.0
586.203	1.0	go	0.526	Go_O	0.0
588.736	0.35	stop	0.629	Go_O	0.0
591.27	1.0	go	0.347	Go_O	0.0
593.803	0.3	stop	0.0	Go_X	1.0
596.336	1.0	go	0.603	Go_X	0.0
598.869	1.0	go	0.597	Go_O	0.0
601.403	0.35	stop	0.0	Go_O	1.0
603.936	1.0	go	0.951	Go_X	0.0
606.469	1.0	go	0.681	Go_X	0.0
609.002	1.0	go	0.458	Go_O	0.0
611.536	1.0	go	0.916	Go_X	0.0
614.069	1.0	go	0.482	Go_O	0.0
616.602	1.0	go	0.37	Go_O	1.0
619.136	1.0	go	0.645	Go_X	0.0
621.669	1.0	go	0.645	Go_X	0.0
624.202	1.0	go	0.451	Go_O	0.0
626.735	1.0	go	0.615	Go_O	0.0
629.269	0.4	stop	0.411	Go_X	0.0
631.802	1.0	go	0.363	Go_X	0.0
634.335	1.0	go	0.0	Go_O	0.0
636.868	0.35	stop	0.416	Go_O	0.0
639.418	1.0	go	0.879	Go_X	0.0
641.952	0.3	stop	0.45	Go_X	0.0
644.485	1.0	go	0.0	Go_O	0.0
647.018	1.0	go	0.0	Go_X	0.0
649.552	0.25	stop	0.251	Go_O	0.0
652.085	1.0	go	0.746	Go_O	0.0
654.618	0.2	stop	0.556	Go_X	0.0
657.151	1.0	go	0.468	Go_X	0.0
659.685	1.0	go	0.743	Go_X	0.0
662.218	1.0	go	0.0	Go_O	0.0
664.751	0.15	stop	0.0	Go_O	1.0
667.284	1.0	go	0.544	Go_O	0.0
669.818	1.0	go	0.39	Go_X	0.0
672.351	1.0	go	0.62	Go_X	0.0
674.884	1.0	go	0.63	Go_O	0.0
677.418	0.2	stop	0.319	Go_X	0.0
679.951	1.0	go	0.0	Go_X	0.0
682.484	1.0	go	0.278	Go_O	0.0
685.017	0.15	stop	0.0	Go_O	1.0
687.551	1.0	go	0.654	Go_X	0.0
690.084	1.0	go	0.893	Go_O	0.0
692.617	1.0	go	0.704	Go_X	0.0
695.15	1.0	go	0.347	Go_O	0.0
697.684	0.2	stop	0.0	Go_X	1.0
700.217	1.0	go	0.0	Go_X	0.0
702.75	0.25	stop	0.434	Go_O	0.0
705.284	1.0	go	0.738	Go_O	0.0
707.817	1.0	go	0.558	Go_O	0.0
710.35	0.2	stop	0.47	Go_X	0.0
712.883	1.0	go	0.719	Go_X	0.0
715.417	1.0	go	0.065	Go_O	1.0
717.95	1.0	go	0.886	Go_X	0.0
720.483	1.0	go	0.0	Go_O	0.0
723.017	0.15	stop	0.0	Go_O	1.0
725.566	1.0	go	0.543	Go_X	0.0
728.1	0.2	stop	0.0	Go_X	1.0
730.633	1.0	go	0.0	Go_X	0.0
733.166	1.0	go	0.325	Go_O	0.0
735.7	1.0	go	0.0	Go_O	0.0
738.249	1.0	go	0.438	Go_X	0.0
740.783	1.0	go	0.47	Go_O	0.0
743.316	1.0	go	0.605	Go_X	1.0
745.849	0.25	stop	0.0	Go_O	1.0
748.383	1.0	go	0.411	Go_O	0.0
750.916	1.0	go	0.752	Go_X	0.0
753.449	0.3	stop	0.0	Go_X	1.0
755.982	1.0	go	0.0	Go_X	0.0
758.516	1.0	go	0.649	Go_O	0.0
761.049	0.35	stop	0.0	Go_O	1.0
763.582	1.0	go	0.0	Go_X	0.0
766.116	1.0	go	0.568	Go_O	0.0
768.665	1.0	go	0.738	Go_O	0.0
771.199	1.0	go	0.745	Go_X	0.0
773.732	0.4	stop	0.428	Go_X	0.0
776.265	1.0	go	0.374	Go_O	0.0
778.799	0.35	stop	0.689	Go_O	0.0
781.332	1.0	go	0.0	Go_X	0.0
783.865	1.0	go	0.462	Go_O	0.0
786.398	1.0	go	0.567	Go_X	1.0
788.932	1.0	go	0.855	Go_X	0.0
791.465	1.0	go	0.0	Go_O	0.0
793.998	0.3	stop	0.655	Go_X	0.0
796.531	1.0	go	0.712	Go_X	0.0
799.065	1.0	go	0.603	Go_O	0.0
801.598	0.25	stop	0.422	Go_O	0.0
804.131	0.2	stop	0.0	Go_X	1.0
806.665	1.0	go	0.0	Go_X	0.0
809.198	1.0	go	0.42	Go_O	0.0
811.731	1.0	go	0.62	Go_O	0.0
814.264	1.0	go	0.0	Go_X	0.0
816.798	0.25	stop	0.487	Go_O	0.0
819.331	1.0	go	0.54	Go_X	0.0
