onset	duration	trial_type	response_time	stim_file	accuracy
66.206	1.0	go	0.0	Go_O	0.0
68.739	1.0	go	0.438	Go_X	1.0
71.272	1.0	go	0.398	Go_O	1.0
73.806	1.0	go	0.404	Go_X	1.0
76.339	1.0	go	0.733	Go_O	1.0
78.872	1.0	go	0.515	Go_X	1.0
81.405	0.25	stopfail	0.523	Go_O	0.0
83.939	1.0	go	0.686	Go_O	1.0
86.472	0.2	stopfail	0.333	Go_X	0.0
89.005	1.0	go	0.587	Go_X	1.0
91.539	1.0	go	0.452	Go_O	1.0
94.072	1.0	go	0.602	Go_X	1.0
96.605	0.15	stopsuccess	0.0	Go_O	1.0
99.138	1.0	go	0.595	Go_O	1.0
101.672	1.0	go	0.526	Go_X	1.0
104.205	0.2	stopsuccess	0.0	Go_X	1.0
106.738	0.25	stopfail	0.36	Go_O	0.0
109.272	1.0	go	0.44	Go_O	1.0
111.805	1.0	go	0.553	Go_X	1.0
114.338	0.2	stopsuccess	0.0	Go_X	1.0
116.871	1.0	go	0.532	Go_O	1.0
119.405	1.0	go	0.682	Go_X	1.0
121.938	0.25	stopsuccess	0.0	Go_O	1.0
124.471	1.0	go	0.498	Go_O	1.0
127.005	1.0	go	0.599	Go_X	1.0
129.538	0.3	stopfail	0.396	Go_X	0.0
132.071	1.0	go	0.449	Go_O	1.0
134.604	1.0	go	0.967	Go_X	1.0
137.138	0.25	stopsuccess	0.0	Go_O	1.0
139.671	1.0	go	0.5	Go_O	1.0
142.204	1.0	go	0.496	Go_X	1.0
144.738	1.0	go	0.635	Go_O	1.0
147.271	1.0	go	0.693	Go_X	1.0
149.804	1.0	go	0.458	Go_O	1.0
152.337	0.3	stopfail	0.509	Go_X	0.0
154.871	1.0	go	0.532	Go_X	1.0
157.404	1.0	go	0.588	Go_X	1.0
159.937	1.0	go	0.428	Go_O	1.0
162.471	1.0	go	0.729	Go_O	1.0
165.004	1.0	go	0.648	Go_X	1.0
167.537	0.25	stopsuccess	0.0	Go_O	1.0
170.07	1.0	go	0.617	Go_O	1.0
172.604	1.0	go	0.458	Go_X	1.0
175.137	1.0	go	0.568	Go_X	1.0
177.67	1.0	go	0.388	Go_O	1.0
180.204	1.0	go	0.325	Go_X	1.0
182.737	1.0	go	0.434	Go_O	1.0
185.27	0.3	stopfail	0.47	Go_X	0.0
187.803	1.0	go	0.412	Go_O	1.0
190.337	1.0	go	0.479	Go_X	1.0
192.87	0.25	stopfail	0.391	Go_O	0.0
195.403	1.0	go	0.473	Go_X	1.0
197.937	0.2	stopsuccess	0.0	Go_X	1.0
200.47	0.25	stopsuccess	0.0	Go_O	1.0
203.003	1.0	go	0.53	Go_O	1.0
205.536	1.0	go	0.278	Go_X	1.0
208.07	1.0	go	0.329	Go_O	1.0
210.603	1.0	go	0.518	Go_O	1.0
213.136	0.3	stopsuccess	0.0	Go_X	1.0
215.67	1.0	go	0.519	Go_X	1.0
218.219	0.35	stopsuccess	0.0	Go_O	1.0
220.753	1.0	go	0.456	Go_O	1.0
223.286	1.0	go	0.714	Go_X	0.0
225.819	1.0	go	0.527	Go_X	1.0
228.353	1.0	go	0.543	Go_O	1.0
230.886	1.0	go	0.763	Go_O	1.0
233.419	1.0	go	0.522	Go_X	1.0
235.952	1.0	go	0.409	Go_X	1.0
238.486	1.0	go	0.47	Go_O	1.0
241.019	1.0	go	0.614	Go_O	1.0
243.552	0.4	stopfail	0.512	Go_X	0.0
246.086	1.0	go	0.651	Go_X	1.0
248.619	1.0	go	0.473	Go_O	1.0
251.152	1.0	go	0.467	Go_X	1.0
253.685	0.35	stopsuccess	0.0	Go_O	1.0
256.219	1.0	go	0.481	Go_O	1.0
258.752	1.0	go	0.645	Go_X	1.0
261.285	1.0	go	0.0	Go_O	0.0
263.819	1.0	go	0.477	Go_X	1.0
266.352	1.0	go	0.37	Go_O	1.0
268.885	1.0	go	0.565	Go_X	1.0
271.418	0.4	stopfail	0.431	Go_X	0.0
273.952	1.0	go	0.74	Go_X	1.0
276.485	1.0	go	0.466	Go_O	1.0
279.018	0.35	stopsuccess	0.0	Go_O	1.0
281.552	1.0	go	0.773	Go_O	1.0
284.085	1.0	go	0.804	Go_X	1.0
286.618	0.4	stopfail	0.592	Go_X	0.0
289.151	1.0	go	0.713	Go_X	1.0
291.685	0.35	stopfail	0.494	Go_O	0.0
294.218	1.0	go	0.916	Go_O	1.0
296.751	1.0	go	0.721	Go_X	1.0
299.285	1.0	go	0.775	Go_O	1.0
301.818	1.0	go	0.552	Go_X	1.0
304.351	1.0	go	0.532	Go_O	1.0
306.884	0.3	stopfail	0.437	Go_X	0.0
309.418	0.25	stopsuccess	0.0	Go_O	1.0
311.951	1.0	go	0.508	Go_O	1.0
314.484	1.0	go	0.472	Go_X	1.0
317.018	0.3	stopsuccess	0.0	Go_X	1.0
319.551	1.0	go	0.42	Go_O	1.0
322.084	1.0	go	0.5	Go_X	1.0
324.617	1.0	go	0.626	Go_X	1.0
327.151	1.0	go	0.506	Go_O	1.0
329.684	1.0	go	0.495	Go_X	1.0
332.217	1.0	go	0.522	Go_O	1.0
334.751	0.35	stopsuccess	0.0	Go_O	1.0
337.284	1.0	go	0.612	Go_O	1.0
339.817	1.0	go	0.501	Go_X	1.0
342.35	1.0	go	0.713	Go_X	1.0
344.884	1.0	go	0.0	Go_O	0.0
347.417	1.0	go	0.466	Go_O	1.0
349.95	0.4	stopsuccess	0.0	Go_X	1.0
352.484	1.0	go	0.0	Go_X	0.0
355.017	1.0	go	0.48	Go_X	1.0
357.55	1.0	go	0.6	Go_O	1.0
360.083	1.0	go	0.795	Go_O	1.0
362.617	0.45	stopsuccess	0.0	Go_O	1.0
365.15	1.0	go	0.751	Go_X	1.0
367.683	1.0	go	0.835	Go_O	1.0
370.217	0.5	stopfail	0.618	Go_X	0.0
372.75	1.0	go	0.576	Go_X	1.0
375.283	0.45	stopfail	0.497	Go_O	0.0
377.816	1.0	go	0.593	Go_O	1.0
380.35	1.0	go	0.69	Go_X	1.0
382.883	1.0	go	0.655	Go_O	1.0
385.416	1.0	go	0.0	Go_X	0.0
387.95	1.0	go	0.417	Go_X	1.0
390.483	1.0	go	0.638	Go_O	1.0
393.016	1.0	go	0.568	Go_X	1.0
395.549	0.4	stopfail	0.478	Go_X	0.0
398.083	1.0	go	0.669	Go_O	1.0
400.616	1.0	go	0.534	Go_O	1.0
403.149	1.0	go	0.0	Go_X	0.0
405.683	0.35	stopfail	0.524	Go_O	0.0
408.216	1.0	go	0.415	Go_X	1.0
410.749	1.0	go	0.663	Go_O	1.0
413.282	1.0	go	0.0	Go_X	0.0
415.816	1.0	go	0.524	Go_O	1.0
418.349	0.3	stopfail	0.319	Go_X	0.0
420.882	1.0	go	0.514	Go_X	1.0
423.416	1.0	go	0.408	Go_O	1.0
425.949	0.25	stopsuccess	0.0	Go_O	1.0
428.482	1.0	go	0.484	Go_X	1.0
431.015	1.0	go	0.442	Go_O	1.0
433.549	0.3	stopfail	0.496	Go_X	0.0
436.082	1.0	go	0.644	Go_X	1.0
438.615	1.0	go	0.681	Go_O	1.0
441.149	0.25	stopsuccess	0.0	Go_O	1.0
443.682	1.0	go	0.512	Go_O	1.0
446.215	1.0	go	0.78	Go_X	1.0
448.748	1.0	go	0.581	Go_X	1.0
451.282	1.0	go	0.611	Go_O	1.0
453.815	1.0	go	0.552	Go_X	1.0
456.348	1.0	go	0.411	Go_O	1.0
458.882	0.3	stopsuccess	0.0	Go_X	1.0
461.415	1.0	go	0.47	Go_X	1.0
463.948	0.35	stopsuccess	0.0	Go_O	1.0
466.481	1.0	go	0.697	Go_O	1.0
469.015	1.0	go	0.752	Go_O	1.0
471.548	1.0	go	0.623	Go_X	1.0
474.081	1.0	go	0.945	Go_O	1.0
476.615	1.0	go	0.365	Go_X	1.0
479.148	0.4	stopfail	0.598	Go_X	0.0
481.681	1.0	go	0.0	Go_X	0.0
484.214	1.0	go	0.448	Go_O	1.0
486.748	1.0	go	0.718	Go_O	1.0
489.281	0.35	stopsuccess	0.0	Go_O	1.0
491.814	0.4	stopfail	0.498	Go_X	0.0
494.348	0.35	stopsuccess	0.0	Go_O	1.0
496.881	1.0	go	0.867	Go_X	1.0
499.414	0.4	stopsuccess	0.0	Go_X	1.0
501.947	1.0	go	0.761	Go_X	1.0
504.481	1.0	go	0.0	Go_O	0.0
507.014	1.0	go	0.724	Go_X	1.0
509.547	1.0	go	0.0	Go_O	0.0
512.081	1.0	go	0.636	Go_X	1.0
514.614	1.0	go	0.805	Go_O	1.0
517.147	1.0	go	0.627	Go_O	1.0
519.68	1.0	go	0.0	Go_X	0.0
522.214	0.45	stopfail	0.523	Go_O	0.0
524.747	1.0	go	0.0	Go_O	0.0
527.28	1.0	go	0.775	Go_X	1.0
529.814	0.4	stopsuccess	0.0	Go_X	1.0
532.347	1.0	go	0.683	Go_X	1.0
534.88	1.0	go	0.986	Go_O	1.0
537.413	1.0	go	0.633	Go_X	1.0
539.947	1.0	go	0.0	Go_O	0.0
542.48	1.0	go	0.514	Go_O	1.0
545.013	0.45	stopsuccess	0.0	Go_O	1.0
547.547	1.0	go	0.531	Go_X	1.0
550.08	1.0	go	0.0	Go_O	0.0
552.613	1.0	go	0.355	Go_X	1.0
555.146	0.5	stopsuccess	0.0	Go_X	1.0
557.68	1.0	go	0.533	Go_X	1.0
560.213	0.55	stopfail	0.635	Go_O	0.0
562.746	1.0	go	0.0	Go_O	0.0
565.28	1.0	go	0.692	Go_X	1.0
567.813	1.0	go	0.818	Go_O	1.0
570.346	1.0	go	0.987	Go_O	1.0
572.879	1.0	go	0.621	Go_X	1.0
575.413	1.0	go	0.839	Go_O	1.0
577.946	1.0	go	0.852	Go_X	1.0
580.479	0.5	stopsuccess	0.0	Go_X	1.0
583.013	1.0	go	0.52	Go_O	1.0
585.546	1.0	go	0.0	Go_X	0.0
588.079	1.0	go	0.651	Go_X	1.0
590.612	1.0	go	0.576	Go_O	1.0
593.146	0.55	stopfail	0.628	Go_O	0.0
595.679	1.0	go	0.639	Go_O	1.0
598.212	0.5	stopfail	0.406	Go_X	0.0
600.746	1.0	go	0.608	Go_X	1.0
603.279	1.0	go	0.353	Go_O	1.0
605.812	0.45	stopsuccess	0.0	Go_O	1.0
608.345	1.0	go	0.418	Go_X	1.0
610.879	1.0	go	0.718	Go_X	1.0
613.412	1.0	go	0.672	Go_O	1.0
615.945	1.0	go	0.726	Go_O	0.0
618.479	1.0	go	0.552	Go_X	0.0
621.012	1.0	go	0.0	Go_X	0.0
623.545	1.0	go	0.0	Go_O	0.0
626.078	1.0	go	0.778	Go_X	1.0
628.612	1.0	go	0.722	Go_O	1.0
631.145	1.0	go	0.649	Go_X	1.0
633.678	0.5	stopsuccess	0.0	Go_X	1.0
636.212	1.0	go	0.455	Go_O	1.0
638.745	1.0	go	0.937	Go_O	1.0
641.278	0.55	stopfail	0.671	Go_O	0.0
643.811	1.0	go	0.732	Go_X	1.0
646.345	0.5	stopsuccess	0.0	Go_X	1.0
648.878	1.0	go	0.55	Go_O	1.0
651.411	1.0	go	0.803	Go_X	1.0
653.945	0.55	stopfail	0.577	Go_O	0.0
656.478	1.0	go	0.761	Go_X	1.0
659.011	0.5	stopsuccess	0.0	Go_X	1.0
661.544	1.0	go	0.57	Go_O	1.0
664.078	1.0	go	0.0	Go_O	0.0
666.611	1.0	go	0.935	Go_X	1.0
669.144	0.55	stopsuccess	0.0	Go_O	1.0
671.678	1.0	go	0.523	Go_X	1.0
674.211	1.0	go	0.697	Go_O	1.0
676.744	1.0	go	0.605	Go_X	1.0
679.277	1.0	go	0.551	Go_O	1.0
681.811	0.6	stopfail	0.469	Go_X	0.0
684.344	1.0	go	0.537	Go_O	1.0
686.877	1.0	go	0.65	Go_X	1.0
689.411	0.55	stopsuccess	0.0	Go_O	1.0
691.944	1.0	go	0.641	Go_O	0.0
694.477	1.0	go	0.0	Go_X	0.0
697.01	1.0	go	0.401	Go_X	0.0
699.544	1.0	go	0.337	Go_O	1.0
702.077	0.6	stopfail	0.417	Go_X	0.0
704.61	1.0	go	0.849	Go_O	1.0
707.144	0.55	stopsuccess	0.0	Go_O	1.0
709.693	1.0	go	0.765	Go_X	1.0
712.227	1.0	go	0.838	Go_X	1.0
714.76	0.6	stopfail	0.517	Go_X	0.0
717.293	1.0	go	0.787	Go_O	1.0
719.827	1.0	go	0.0	Go_O	0.0
722.36	1.0	go	0.0	Go_X	0.0
724.893	1.0	go	0.789	Go_X	1.0
727.426	0.55	stopfail	0.642	Go_O	0.0
729.96	1.0	go	0.0	Go_O	0.0
732.493	0.5	stopfail	0.451	Go_X	0.0
735.026	1.0	go	0.0	Go_X	0.0
737.56	1.0	go	0.649	Go_O	1.0
740.093	1.0	go	0.0	Go_O	0.0
742.626	1.0	go	0.417	Go_X	1.0
745.159	1.0	go	0.735	Go_O	1.0
747.693	1.0	go	0.6	Go_X	1.0
750.226	0.45	stopsuccess	0.0	Go_O	1.0
752.759	1.0	go	0.654	Go_X	1.0
755.293	1.0	go	0.0	Go_O	0.0
757.826	0.5	stopfail	0.446	Go_X	0.0
760.359	1.0	go	0.834	Go_O	1.0
762.892	1.0	go	0.0	Go_X	0.0
765.426	0.45	stopsuccess	0.0	Go_O	1.0
767.959	1.0	go	0.0	Go_X	0.0
770.492	1.0	go	0.55	Go_O	1.0
773.026	1.0	go	0.618	Go_O	1.0
775.559	1.0	go	0.982	Go_X	1.0
778.092	0.5	stopsuccess	0.0	Go_X	1.0
780.625	1.0	go	0.0	Go_X	0.0
783.159	0.55	stopsuccess	0.0	Go_O	1.0
785.692	1.0	go	0.374	Go_O	1.0
788.225	1.0	go	0.55	Go_O	1.0
790.759	1.0	go	0.797	Go_X	1.0
793.292	1.0	go	0.654	Go_X	1.0
795.825	1.0	go	0.548	Go_O	1.0
798.358	0.6	stopfail	0.905	Go_X	0.0
800.892	1.0	go	0.613	Go_X	1.0
803.425	1.0	go	0.839	Go_O	1.0
805.958	0.55	stopsuccess	0.0	Go_O	1.0
808.492	0.6	stopfail	0.514	Go_X	0.0
811.025	1.0	go	0.374	Go_O	1.0
813.558	1.0	go	0.806	Go_X	1.0
816.091	1.0	go	0.778	Go_X	1.0
818.625	1.0	go	0.0	Go_O	0.0
821.158	0.55	stopfail	0.567	Go_O	0.0
823.691	1.0	go	0.631	Go_X	1.0
