frame	onset	duration	trial_type	event_type	response_type	response_time	stim_file	accuracy
0	58.161		control-reward	ImageDisplay1		0.0		
0	60.401	0.75	control-reward	StartDisplay				
0	61.153		control-reward	ImageDisplay2		0.0		
0	64.145	1.6	control-reward	ChoiceDisplay	1	0.789	1	1
0	64.948	0.811	control-reward	ChosenDisplay		0.0		
0	65.75	0.25	control-reward	TurnDisplay				
0	66.001	0.75	control-reward	OutcomeDisplay				
1	66.753		win-noreward	ImageDisplay1		0.0		
1	68.993	0.75	win-noreward	StartDisplay				
1	69.745		win-noreward	ImageDisplay2		0.0		
1	72.754	1.6	win-noreward	ChoiceDisplay	1	0.642	1	1
1	73.423	0.958	win-noreward	ChosenDisplay		0.0		
1	74.359	0.25	win-noreward	TurnDisplay				
1	74.61	0.75	win-noreward	OutcomeDisplay				
2	75.362		win-reward	ImageDisplay1		0.0		
2	77.351	0.75	win-reward	StartDisplay				
2	78.104		win-reward	ImageDisplay2		0.0		
2	81.363	1.6	win-reward	ChoiceDisplay	1	0.845	1	1
2	82.233	0.755	win-reward	ChosenDisplay		0.0		
2	82.968	0.25	win-reward	TurnDisplay				
2	83.219	0.75	win-reward	OutcomeDisplay				
3	83.971		control-reward	ImageDisplay1		0.0		
3	86.211	0.75	control-reward	StartDisplay				
3	86.964		control-reward	ImageDisplay2		0.0		
3	89.973	1.6	control-reward	ChoiceDisplay	1	0.757	1	1
3	90.758	0.843	control-reward	ChosenDisplay		0.0		
3	91.577	0.25	control-reward	TurnDisplay				
3	91.828	0.75	control-reward	OutcomeDisplay				
4	92.58		win-noreward	ImageDisplay1		0.0		
4	94.57	0.75	win-noreward	StartDisplay				
4	95.322		win-noreward	ImageDisplay2		0.0		
4	98.582	1.6	win-noreward	ChoiceDisplay	1	0.579	1	1
4	99.184	1.021	win-noreward	ChosenDisplay		0.0		
4	100.187	0.25	win-noreward	TurnDisplay				
4	100.437	0.75	win-noreward	OutcomeDisplay				
5	101.189		control-reward	ImageDisplay1		0.0		
5	103.43	0.75	control-reward	StartDisplay				
5	104.182		control-reward	ImageDisplay2		0.0		
5	107.191	1.6	control-reward	ChoiceDisplay	1	0.616	1	1
5	107.826	0.984	control-reward	ChosenDisplay		0.0		
5	108.796	0.25	control-reward	TurnDisplay				
5	109.046	0.75	control-reward	OutcomeDisplay				
6	109.799		win-reward	ImageDisplay1		0.0		
6	111.788	0.75	win-reward	StartDisplay				
6	112.54		win-reward	ImageDisplay2		0.0		
6	115.8	1.6	win-reward	ChoiceDisplay	1	0.642	1	1
6	116.469	0.958	win-reward	ChosenDisplay		0.0		
6	117.405	0.25	win-reward	TurnDisplay				
6	117.656	0.75	win-reward	OutcomeDisplay				
7	118.408		win-reward	ImageDisplay1		0.0		
7	120.414	0.75	win-reward	StartDisplay				
7	121.149		win-reward	ImageDisplay2		0.0		
7	124.409	1.6	win-reward	ChoiceDisplay	1	0.719	1	1
7	125.145	0.881	win-reward	ChosenDisplay		0.0		
7	126.014	0.25	win-reward	TurnDisplay				
7	126.265	0.75	win-reward	OutcomeDisplay				
8	127.017		win-noreward	ImageDisplay1		0.0		
8	129.006	0.75	win-noreward	StartDisplay				
8	129.758		win-noreward	ImageDisplay2		0.0		
8	133.018	1.6	win-noreward	ChoiceDisplay	1	0.909	1	1
8	133.954	0.691	win-noreward	ChosenDisplay		0.0		
8	134.623	0.25	win-noreward	TurnDisplay				
8	134.874	0.75	win-noreward	OutcomeDisplay				
9	135.626		loss-noreward	ImageDisplay1		0.0		
9	137.866	0.75	loss-noreward	StartDisplay				
9	138.618		loss-noreward	ImageDisplay2		0.0		
9	141.627	1.6	loss-noreward	ChoiceDisplay	1	0.461	1	1
9	142.112	1.139	loss-noreward	ChosenDisplay		0.0		
9	143.232	0.25	loss-noreward	TurnDisplay				
9	143.483	0.75	loss-noreward	OutcomeDisplay				
10	144.252		loss-reward	ImageDisplay1		0.0		
10	146.492	0.75	loss-reward	StartDisplay				
10	147.227		loss-reward	ImageDisplay2		0.0		
10	150.236	1.6	loss-reward	ChoiceDisplay	1	0.525	1	1
10	150.788	1.075	loss-reward	ChosenDisplay		0.0		
10	151.841	0.25	loss-reward	TurnDisplay				
10	152.092	0.75	loss-reward	OutcomeDisplay				
11	152.844		control-reward	ImageDisplay1		0.0		
11	155.084	0.75	control-reward	StartDisplay				
11	155.836		control-reward	ImageDisplay2		0.0		
11	158.845	1.6	control-reward	ChoiceDisplay	1	0.444	1	1
11	159.314	1.156	control-reward	ChosenDisplay		0.0		
11	160.45	0.25	control-reward	TurnDisplay				
11	160.701	0.75	control-reward	OutcomeDisplay				
12	161.453		loss-noreward	ImageDisplay1		0.0		
12	163.443	0.75	loss-noreward	StartDisplay				
12	164.195		loss-noreward	ImageDisplay2		0.0		
12	167.455	1.6	loss-noreward	ChoiceDisplay	1	0.397	1	1
12	167.872	1.203	loss-noreward	ChosenDisplay		0.0		
12	169.059	0.25	loss-noreward	TurnDisplay				
12	169.31	0.75	loss-noreward	OutcomeDisplay				
13	170.062		control-noreward	ImageDisplay1		0.0		
13	172.302	0.75	control-noreward	StartDisplay				
13	173.055		control-noreward	ImageDisplay2		0.0		
13	176.064	1.6	control-noreward	ChoiceDisplay	1	0.61	1	1
13	176.699	0.99	control-noreward	ChosenDisplay		0.0		
13	177.669	0.25	control-noreward	TurnDisplay				
13	177.919	0.75	control-noreward	OutcomeDisplay				
14	178.671		win-reward	ImageDisplay1		0.0		
14	180.912	0.75	win-reward	StartDisplay				
14	181.664		win-reward	ImageDisplay2		0.0		
14	184.673	1.6	win-reward	ChoiceDisplay	1	0.406	1	1
14	185.107	1.194	win-reward	ChosenDisplay		0.0		
14	186.278	0.25	win-reward	TurnDisplay				
14	186.528	0.75	win-reward	OutcomeDisplay				
15	187.281		win-noreward	ImageDisplay1		0.0		
15	189.521	0.75	win-noreward	StartDisplay				
15	190.273		win-noreward	ImageDisplay2		0.0		
15	193.282	1.6	win-noreward	ChoiceDisplay	1	0.424	1	1
15	193.733	1.176	win-noreward	ChosenDisplay		0.0		
15	194.887	0.25	win-noreward	TurnDisplay				
15	195.137	0.75	win-noreward	OutcomeDisplay				
16	195.89		win-reward	ImageDisplay1		0.0		
16	198.13	0.75	win-reward	StartDisplay				
16	198.882		win-reward	ImageDisplay2		0.0		
16	201.891	1.6	win-reward	ChoiceDisplay	1	0.638	1	1
16	202.543	0.962	win-reward	ChosenDisplay		0.0		
16	203.496	0.25	win-reward	TurnDisplay				
16	203.747	0.75	win-reward	OutcomeDisplay				
17	204.499		control-reward	ImageDisplay1		0.0		
17	206.488	0.75	control-reward	StartDisplay				
17	207.24		control-reward	ImageDisplay2		0.0		
17	210.5	1.6	control-reward	ChoiceDisplay	1	0.519	1	1
17	211.035	1.081	control-reward	ChosenDisplay		0.0		
17	212.105	0.25	control-reward	TurnDisplay				
17	212.356	0.75	control-reward	OutcomeDisplay				
18	213.108		win-reward	ImageDisplay1		0.0		
18	215.348	0.75	win-reward	StartDisplay				
18	216.1		win-reward	ImageDisplay2		0.0		
18	219.109	1.6	win-reward	ChoiceDisplay	1	0.624	1	1
18	219.761	0.976	win-reward	ChosenDisplay		0.0		
18	220.714	0.25	win-reward	TurnDisplay				
18	220.965	0.75	win-reward	OutcomeDisplay				
19	221.717		control-noreward	ImageDisplay1		0.0		
19	223.723	0.75	control-noreward	StartDisplay				
19	224.459		control-noreward	ImageDisplay2		0.0		
19	227.718	1.6	control-noreward	ChoiceDisplay	1	0.652	1	1
19	228.387	0.948	control-noreward	ChosenDisplay		0.0		
19	229.323	0.25	control-noreward	TurnDisplay				
19	229.574	0.75	control-noreward	OutcomeDisplay				
20	230.326		control-reward	ImageDisplay1		0.0		
20	232.315	0.75	control-reward	StartDisplay				
20	233.068		control-reward	ImageDisplay2		0.0		
20	236.327	1.6	control-reward	ChoiceDisplay	1	0.668	1	1
20	237.013	0.932	control-reward	ChosenDisplay		0.0		
20	237.932	0.25	control-reward	TurnDisplay				
20	238.183	0.75	control-reward	OutcomeDisplay				
21	238.935		win-noreward	ImageDisplay1		0.0		
21	241.175	0.75	win-noreward	StartDisplay				
21	241.928		win-noreward	ImageDisplay2		0.0		
21	244.937	1.6	win-noreward	ChoiceDisplay	1	0.502	1	1
21	245.455	1.098	win-noreward	ChosenDisplay		0.0		
21	246.541	0.25	win-noreward	TurnDisplay				
21	246.792	0.75	win-noreward	OutcomeDisplay				
22	247.544		win-noreward	ImageDisplay1		0.0		
22	249.784	0.75	win-noreward	StartDisplay				
22	250.537		win-noreward	ImageDisplay2		0.0		
22	253.546	1.6	win-noreward	ChoiceDisplay	1	0.526	1	1
22	254.097	1.074	win-noreward	ChosenDisplay		0.0		
22	255.15	0.25	win-noreward	TurnDisplay				
22	255.401	0.75	win-noreward	OutcomeDisplay				
23	256.153		win-noreward	ImageDisplay1		0.0		
23	258.143	0.75	win-noreward	StartDisplay				
23	258.895		win-noreward	ImageDisplay2		0.0		
23	262.155	1.6	win-noreward	ChoiceDisplay	1	0.532	1	1
23	262.706	1.068	win-noreward	ChosenDisplay		0.0		
23	263.76	0.25	win-noreward	TurnDisplay				
23	264.01	0.75	win-noreward	OutcomeDisplay				
24	264.763		control-noreward	ImageDisplay1		0.0		
24	267.003	0.75	control-noreward	StartDisplay				
24	267.755		control-noreward	ImageDisplay2		0.0		
24	270.764	1.6	control-noreward	ChoiceDisplay	1	0.894	1	1
24	271.683	0.706	control-noreward	ChosenDisplay		0.0		
24	272.369	0.25	control-noreward	TurnDisplay				
24	272.619	0.75	control-noreward	OutcomeDisplay				
25	273.372		control-noreward	ImageDisplay1		0.0		
25	275.361	0.75	control-noreward	StartDisplay				
25	276.113		control-noreward	ImageDisplay2		0.0		
25	279.373	1.6	control-noreward	ChoiceDisplay	1	0.679	1	1
25	280.075	0.921	control-noreward	ChosenDisplay		0.0		
25	280.978	0.25	control-noreward	TurnDisplay				
25	281.229	0.75	control-noreward	OutcomeDisplay				
26	281.981		win-noreward	ImageDisplay1		0.0		
26	284.221	0.75	win-noreward	StartDisplay				
26	284.973		win-noreward	ImageDisplay2		0.0		
26	287.982	1.6	win-noreward	ChoiceDisplay	1	0.768	1	1
26	288.768	0.832	win-noreward	ChosenDisplay		0.0		
26	289.587	0.25	win-noreward	TurnDisplay				
26	289.839	0.75	win-noreward	OutcomeDisplay				
27	290.59		control-noreward	ImageDisplay1		0.0		
27	292.83	0.75	control-noreward	StartDisplay				
27	293.582		control-noreward	ImageDisplay2		0.0		
27	296.591	1.6	control-noreward	ChoiceDisplay	1	0.776	1	1
27	297.394	0.824	control-noreward	ChosenDisplay		0.0		
27	298.196	0.25	control-noreward	TurnDisplay				
27	298.449	0.75	control-noreward	OutcomeDisplay				
28	299.199		win-noreward	ImageDisplay1		0.0		
28	301.188	0.75	win-noreward	StartDisplay				
28	301.941		win-noreward	ImageDisplay2		0.0		
28	305.2	1.6	win-noreward	ChoiceDisplay	1	0.786	1	1
28	306.003	0.814	win-noreward	ChosenDisplay		0.0		
28	306.805	0.25	win-noreward	TurnDisplay				
28	307.056	0.75	win-noreward	OutcomeDisplay				
29	307.808		loss-reward	ImageDisplay1		0.0		
29	310.048	0.75	loss-reward	StartDisplay				
29	310.8		loss-reward	ImageDisplay2		0.0		
29	313.809	1.6	loss-reward	ChoiceDisplay	1	0.781	1	1
29	314.612	0.819	loss-reward	ChosenDisplay		0.0		
29	315.414	0.25	loss-reward	TurnDisplay				
29	315.665	0.75	loss-reward	OutcomeDisplay				
30	316.417		loss-noreward	ImageDisplay1		0.0		
30	318.407	0.75	loss-noreward	StartDisplay				
30	319.159		loss-noreward	ImageDisplay2		0.0		
30	322.419	1.6	loss-noreward	ChoiceDisplay	1	0.755	1	1
30	323.187	0.845	loss-noreward	ChosenDisplay		0.0		
30	324.023	0.25	loss-noreward	TurnDisplay				
30	324.274	0.75	loss-noreward	OutcomeDisplay				
31	325.026		win-noreward	ImageDisplay1		0.0		
31	327.016	0.75	win-noreward	StartDisplay				
31	327.768		win-noreward	ImageDisplay2		0.0		
31	331.028	1.6	win-noreward	ChoiceDisplay	1	0.378	1	1
31	331.429	1.222	win-noreward	ChosenDisplay		0.0		
31	332.632	0.25	win-noreward	TurnDisplay				
31	332.883	0.75	win-noreward	OutcomeDisplay				
32	333.636		win-reward	ImageDisplay1		0.0		
32	335.876	0.75	win-reward	StartDisplay				
32	336.628		win-reward	ImageDisplay2		0.0		
32	339.637	1.6	win-reward	ChoiceDisplay	1	0.521	1	1
32	340.172	1.079	win-reward	ChosenDisplay		0.0		
32	341.242	0.25	win-reward	TurnDisplay				
32	341.492	0.75	win-reward	OutcomeDisplay				
33	342.245		loss-reward	ImageDisplay1		0.0		
33	344.485	0.75	loss-reward	StartDisplay				
33	345.237		loss-reward	ImageDisplay2		0.0		
33	348.246	1.6	loss-reward	ChoiceDisplay	1	0.322	1	1
33	348.58	1.278	loss-reward	ChosenDisplay		0.0		
33	349.851	0.25	loss-reward	TurnDisplay				
33	350.101	0.75	loss-reward	OutcomeDisplay				
34	350.854		loss-reward	ImageDisplay1		0.0		
34	353.094	0.75	loss-reward	StartDisplay				
34	353.846		loss-reward	ImageDisplay2		0.0		
34	356.855	1.6	loss-reward	ChoiceDisplay	1	0.43	1	1
34	357.306	1.17	loss-reward	ChosenDisplay		0.0		
34	358.46	0.25	loss-reward	TurnDisplay				
34	358.711	0.75	loss-reward	OutcomeDisplay				
35	359.463		loss-reward	ImageDisplay1		0.0		
35	361.703	0.75	loss-reward	StartDisplay				
35	362.455		loss-reward	ImageDisplay2		0.0		
35	365.464	1.6	loss-reward	ChoiceDisplay	1	0.237	1	1
35	365.732	1.363	loss-reward	ChosenDisplay		0.0		
35	367.069	0.25	loss-reward	TurnDisplay				
35	367.32	0.75	loss-reward	OutcomeDisplay				
36	368.072		win-reward	ImageDisplay1		0.0		
36	370.078	0.75	win-reward	StartDisplay				
36	370.813		win-reward	ImageDisplay2		0.0		
36	374.073	1.6	win-reward	ChoiceDisplay	1	0.565	1	1
36	374.658	1.035	win-reward	ChosenDisplay		0.0		
36	375.678	0.25	win-reward	TurnDisplay				
36	375.929	0.75	win-reward	OutcomeDisplay				
37	376.681		control-noreward	ImageDisplay1		0.0		
37	378.921	0.75	control-noreward	StartDisplay				
37	379.673		control-noreward	ImageDisplay2		0.0		
37	382.682	1.6	control-noreward	ChoiceDisplay	1	0.397	1	1
37	383.1	1.203	control-noreward	ChosenDisplay		0.0		
37	384.287	0.25	control-noreward	TurnDisplay				
37	384.538	0.75	control-noreward	OutcomeDisplay				
38	385.29		loss-reward	ImageDisplay1		0.0		
38	387.53	0.75	loss-reward	StartDisplay				
38	388.282		loss-reward	ImageDisplay2		0.0		
38	391.291	1.6	loss-reward	ChoiceDisplay	1	1.338	1	1
38	392.646	0.262	loss-reward	ChosenDisplay		0.0		
38	392.896	0.25	loss-reward	TurnDisplay				
38	393.147	0.75	loss-reward	OutcomeDisplay				
39	393.899		loss-noreward	ImageDisplay1		0.0		
39	395.889	0.75	loss-noreward	StartDisplay				
39	396.641		loss-noreward	ImageDisplay2		0.0		
39	399.901	1.6	loss-noreward	ChoiceDisplay	1	0.582	1	1
39	400.502	1.018	loss-noreward	ChosenDisplay		0.0		
39	401.505	0.25	loss-noreward	TurnDisplay				
39	401.756	0.75	loss-noreward	OutcomeDisplay				
40	402.508		loss-noreward	ImageDisplay1		0.0		
40	404.498	0.75	loss-noreward	StartDisplay				
40	405.25		loss-noreward	ImageDisplay2		0.0		
40	408.51	1.6	loss-noreward	ChoiceDisplay	1	0.289	1	1
40	408.827	1.311	loss-noreward	ChosenDisplay		0.0		
40	410.114	0.25	loss-noreward	TurnDisplay				
40	410.365	0.75	loss-noreward	OutcomeDisplay				
41	411.117		loss-reward	ImageDisplay1		0.0		
41	413.107	0.75	loss-reward	StartDisplay				
41	413.859		loss-reward	ImageDisplay2		0.0		
41	417.119	1.6	loss-reward	ChoiceDisplay	1	0.245	1	1
41	417.386	1.355	loss-reward	ChosenDisplay		0.0		
41	418.724	0.25	loss-reward	TurnDisplay				
41	418.974	0.75	loss-reward	OutcomeDisplay				
42	419.727		win-noreward	ImageDisplay1		0.0		
42	421.967	0.75	win-noreward	StartDisplay				
42	422.719		win-noreward	ImageDisplay2		0.0		
42	425.728	1.6	win-noreward	ChoiceDisplay	1	0.374	1	1
42	426.129	1.226	win-noreward	ChosenDisplay		0.0		
42	427.333	0.25	win-noreward	TurnDisplay				
42	427.583	0.75	win-noreward	OutcomeDisplay				
43	428.336		loss-noreward	ImageDisplay1		0.0		
43	430.576	0.75	loss-noreward	StartDisplay				
43	431.328		loss-noreward	ImageDisplay2		0.0		
43	434.337	1.6	loss-noreward	ChoiceDisplay	1	0.263	1	1
43	434.621	1.337	loss-noreward	ChosenDisplay		0.0		
43	435.942	0.25	loss-noreward	TurnDisplay				
43	436.193	0.75	loss-noreward	OutcomeDisplay				
44	436.945		loss-reward	ImageDisplay1		0.0		
44	438.934	0.75	loss-reward	StartDisplay				
44	439.686		loss-reward	ImageDisplay2		0.0		
44	442.946	1.6	loss-reward	ChoiceDisplay	1	0.763	1	1
44	443.732	0.837	loss-reward	ChosenDisplay		0.0		
44	444.551	0.25	loss-reward	TurnDisplay				
44	444.802	0.75	loss-reward	OutcomeDisplay				
45	445.554		loss-noreward	ImageDisplay1		0.0		
45	447.794	0.75	loss-noreward	StartDisplay				
45	448.546		loss-noreward	ImageDisplay2		0.0		
45	451.555	1.6	loss-noreward	ChoiceDisplay	1	0.559	1	1
45	452.14	1.041	loss-noreward	ChosenDisplay		0.0		
45	453.16	0.25	loss-noreward	TurnDisplay				
45	453.411	0.75	loss-noreward	OutcomeDisplay				
46	454.163		win-reward	ImageDisplay1		0.0		
46	456.403	0.75	win-reward	StartDisplay				
46	457.155		win-reward	ImageDisplay2		0.0		
46	460.164	1.6	win-reward	ChoiceDisplay	1	0.762	1	1
46	460.954	0.838	win-reward	ChosenDisplay		0.0		
46	461.769	0.25	win-reward	TurnDisplay				
46	462.02	0.75	win-reward	OutcomeDisplay				
47	462.772		control-noreward	ImageDisplay1		0.0		
47	464.761	0.75	control-noreward	StartDisplay				
47	465.514		control-noreward	ImageDisplay2		0.0		
47	468.773	1.6	control-noreward	ChoiceDisplay	1	0.626	1	1
47	469.425	0.974	control-noreward	ChosenDisplay		0.0		
47	470.378	0.25	control-noreward	TurnDisplay				
47	470.629	0.75	control-noreward	OutcomeDisplay				
48	471.381		control-reward	ImageDisplay1		0.0		
48	473.621	0.75	control-reward	StartDisplay				
48	474.374		control-reward	ImageDisplay2		0.0		
48	477.383	1.6	control-reward	ChoiceDisplay	1	0.608	1	1
48	478.018	0.992	control-reward	ChosenDisplay		0.0		
48	478.987	0.25	control-reward	TurnDisplay				
48	479.238	0.75	control-reward	OutcomeDisplay				
49	479.99		loss-noreward	ImageDisplay1		0.0		
49	482.23	0.75	loss-noreward	StartDisplay				
49	482.983		loss-noreward	ImageDisplay2		0.0		
49	485.992	1.6	loss-noreward	ChoiceDisplay	1	0.459	1	1
49	486.476	1.141	loss-noreward	ChosenDisplay		0.0		
49	487.597	0.25	loss-noreward	TurnDisplay				
49	487.847	0.75	loss-noreward	OutcomeDisplay				
50	488.599		win-reward	ImageDisplay1		0.0		
50	490.839	0.75	win-reward	StartDisplay				
50	491.592		win-reward	ImageDisplay2		0.0		
50	494.601	1.6	win-reward	ChoiceDisplay	1	0.409	1	1
50	495.035	1.191	win-reward	ChosenDisplay		0.0		
50	496.206	0.25	win-reward	TurnDisplay				
50	496.456	0.75	win-reward	OutcomeDisplay				
51	497.209		win-reward	ImageDisplay1		0.0		
51	499.215	0.75	win-reward	StartDisplay				
51	499.95		win-reward	ImageDisplay2		0.0		
51	503.21	1.6	win-reward	ChoiceDisplay	1	0.257	1	1
51	503.494	1.343	win-reward	ChosenDisplay		0.0		
51	504.815	0.25	win-reward	TurnDisplay				
51	505.065	0.75	win-reward	OutcomeDisplay				
52	505.818		win-reward	ImageDisplay1		0.0		
52	507.807	0.75	win-reward	StartDisplay				
52	508.559		win-reward	ImageDisplay2		0.0		
52	511.819	1.6	win-reward	ChoiceDisplay	1	0.406	1	1
52	512.237	1.194	win-reward	ChosenDisplay		0.0		
52	513.424	0.25	win-reward	TurnDisplay				
52	513.675	0.75	win-reward	OutcomeDisplay				
53	514.427		control-noreward	ImageDisplay1		0.0		
53	516.416	0.75	control-noreward	StartDisplay				
53	517.168		control-noreward	ImageDisplay2		0.0		
53	520.428	1.6	control-noreward	ChoiceDisplay	1	0.676	1	1
53	521.13	0.924	control-noreward	ChosenDisplay		0.0		
53	522.033	0.25	control-noreward	TurnDisplay				
53	522.284	0.75	control-noreward	OutcomeDisplay				
54	523.036		win-reward	ImageDisplay1		0.0		
54	525.025	0.75	win-reward	StartDisplay				
54	525.777		win-reward	ImageDisplay2		0.0		
54	529.037	1.6	win-reward	ChoiceDisplay	1	0.574	1	1
54	529.639	1.026	win-reward	ChosenDisplay		0.0		
54	530.642	0.25	win-reward	TurnDisplay				
54	530.893	0.75	win-reward	OutcomeDisplay				
55	531.645		control-reward	ImageDisplay1		0.0		
55	533.634	0.75	control-reward	StartDisplay				
55	534.387		control-reward	ImageDisplay2		0.0		
55	537.646	1.6	control-reward	ChoiceDisplay	1	0.828	1	1
55	538.499	0.772	control-reward	ChosenDisplay		0.0		
55	539.251	0.25	control-reward	TurnDisplay				
55	539.502	0.75	control-reward	OutcomeDisplay				
56	540.254		win-reward	ImageDisplay1		0.0		
56	542.494	0.75	win-reward	StartDisplay				
56	543.246		win-reward	ImageDisplay2		0.0		
56	546.255	1.6	win-reward	ChoiceDisplay	1	0.737	1	1
56	547.008	0.863	win-reward	ChosenDisplay		0.0		
56	547.86	0.25	win-reward	TurnDisplay				
56	548.111	0.75	win-reward	OutcomeDisplay				
57	548.863		control-reward	ImageDisplay1		0.0		
57	550.853	0.75	control-reward	StartDisplay				
57	551.605		control-reward	ImageDisplay2		0.0		
57	554.865	1.6	control-reward	ChoiceDisplay	1	0.559	1	1
57	555.45	1.041	control-reward	ChosenDisplay		0.0		
57	556.469	0.25	control-reward	TurnDisplay				
57	556.72	0.75	control-reward	OutcomeDisplay				
58	557.472		loss-reward	ImageDisplay1		0.0		
58	559.462	0.75	loss-reward	StartDisplay				
58	560.214		loss-reward	ImageDisplay2		0.0		
58	563.474	1.6	loss-reward	ChoiceDisplay	1	0.466	1	1
58	563.96	1.134	loss-reward	ChosenDisplay		0.0		
58	565.078	0.25	loss-reward	TurnDisplay				
58	565.329	0.75	loss-reward	OutcomeDisplay				
59	566.081		loss-noreward	ImageDisplay1		0.0		
59	568.321	0.75	loss-noreward	StartDisplay				
59	569.074		loss-noreward	ImageDisplay2		0.0		
59	572.083	1.6	loss-noreward	ChoiceDisplay	1	0.432	1	1
59	572.534	1.168	loss-noreward	ChosenDisplay		0.0		
59	573.688	0.25	loss-noreward	TurnDisplay				
59	573.938	0.75	loss-noreward	OutcomeDisplay				
60	574.691		control-reward	ImageDisplay1		0.0		
60	576.68	0.75	control-reward	StartDisplay				
60	577.432		control-reward	ImageDisplay2		0.0		
60	580.692	1.6	control-reward	ChoiceDisplay	1	0.654	1	1
60	581.361	0.946	control-reward	ChosenDisplay		0.0		
60	582.297	0.25	control-reward	TurnDisplay				
60	582.547	0.75	control-reward	OutcomeDisplay				
61	583.3		win-reward	ImageDisplay1		0.0		
61	585.54	0.75	win-reward	StartDisplay				
61	586.292		win-reward	ImageDisplay2		0.0		
61	589.301	1.6	win-reward	ChoiceDisplay	1	0.461	1	1
61	589.786	1.139	win-reward	ChosenDisplay		0.0		
61	590.906	0.25	win-reward	TurnDisplay				
61	591.157	0.75	win-reward	OutcomeDisplay				
62	591.909		win-reward	ImageDisplay1		0.0		
62	594.149	0.75	win-reward	StartDisplay				
62	594.901		win-reward	ImageDisplay2		0.0		
62	597.91	1.6	win-reward	ChoiceDisplay	1	0.549	1	1
62	598.479	1.051	win-reward	ChosenDisplay		0.0		
62	599.515	0.25	win-reward	TurnDisplay				
62	599.766	0.75	win-reward	OutcomeDisplay				
63	600.518		loss-reward	ImageDisplay1		0.0		
63	602.507	0.75	loss-reward	StartDisplay				
63	603.259		loss-reward	ImageDisplay2		0.0		
63	606.519	1.6	loss-reward	ChoiceDisplay	1	0.6	1	1
63	607.138	1.0	loss-reward	ChosenDisplay		0.0		
63	608.124	0.25	loss-reward	TurnDisplay				
63	608.375	0.75	loss-reward	OutcomeDisplay				
64	609.127		control-reward	ImageDisplay1		0.0		
64	611.367	0.75	control-reward	StartDisplay				
64	612.119		control-reward	ImageDisplay2		0.0		
64	615.128	1.6	control-reward	ChoiceDisplay	1	0.495	1	1
64	615.647	1.105	control-reward	ChosenDisplay		0.0		
64	616.733	0.25	control-reward	TurnDisplay				
64	616.984	0.75	control-reward	OutcomeDisplay				
65	617.736		loss-noreward	ImageDisplay1		0.0		
65	619.976	0.75	loss-noreward	StartDisplay				
65	620.728		loss-noreward	ImageDisplay2		0.0		
65	623.737	1.6	loss-noreward	ChoiceDisplay	1	0.402	1	1
65	624.155	1.198	loss-noreward	ChosenDisplay		0.0		
65	625.342	0.25	loss-noreward	TurnDisplay				
65	625.593	0.75	loss-noreward	OutcomeDisplay				
66	626.345		control-noreward	ImageDisplay1		0.0		
66	628.585	0.75	control-noreward	StartDisplay				
66	629.337		control-noreward	ImageDisplay2		0.0		
66	632.347	1.6	control-noreward	ChoiceDisplay	1	0.667	1	1
66	633.032	0.933	control-noreward	ChosenDisplay		0.0		
66	633.951	0.25	control-noreward	TurnDisplay				
66	634.202	0.75	control-noreward	OutcomeDisplay				
67	634.954		loss-reward	ImageDisplay1		0.0		
67	637.194	0.75	loss-reward	StartDisplay				
67	637.947		loss-reward	ImageDisplay2		0.0		
67	640.956	1.6	loss-reward	ChoiceDisplay	1	0.513	1	1
67	641.491	1.087	loss-reward	ChosenDisplay		0.0		
67	642.56	0.25	loss-reward	TurnDisplay				
67	642.813	0.75	loss-reward	OutcomeDisplay				
68	643.563		control-noreward	ImageDisplay1		0.0		
68	645.569	0.75	control-noreward	StartDisplay				
68	646.305		control-noreward	ImageDisplay2		0.0		
68	649.565	1.6	control-noreward	ChoiceDisplay	1	0.696	1	1
68	650.284	0.904	control-noreward	ChosenDisplay		0.0		
68	651.17	0.25	control-noreward	TurnDisplay				
68	651.42	0.75	control-noreward	OutcomeDisplay				
69	652.173		loss-reward	ImageDisplay1		0.0		
69	654.162	0.75	loss-reward	StartDisplay				
69	654.914		loss-reward	ImageDisplay2		0.0		
69	658.174	1.6	loss-reward	ChoiceDisplay	1	0.676	1	1
69	658.876	0.924	loss-reward	ChosenDisplay		0.0		
69	659.779	0.25	loss-reward	TurnDisplay				
69	660.029	0.75	loss-reward	OutcomeDisplay				
70	660.782		loss-noreward	ImageDisplay1		0.0		
70	662.771	0.75	loss-noreward	StartDisplay				
70	663.523		loss-noreward	ImageDisplay2		0.0		
70	666.783	1.6	loss-noreward	ChoiceDisplay	1	0.637	1	1
70	667.435	0.963	loss-noreward	ChosenDisplay		0.0		
70	668.388	0.25	loss-noreward	TurnDisplay				
70	668.639	0.75	loss-noreward	OutcomeDisplay				
71	669.391		control-reward	ImageDisplay1		0.0		
71	671.38	0.75	control-reward	StartDisplay				
71	672.132		control-reward	ImageDisplay2		0.0		
71	675.392	1.6	control-reward	ChoiceDisplay	1	0.636	1	1
71	676.044	0.964	control-reward	ChosenDisplay		0.0		
71	676.997	0.25	control-reward	TurnDisplay				
71	677.248	0.75	control-reward	OutcomeDisplay				
72	678.0		win-noreward	ImageDisplay1		0.0		
72	679.989	0.75	win-noreward	StartDisplay				
72	680.741		win-noreward	ImageDisplay2		0.0		
72	684.001	1.6	win-noreward	ChoiceDisplay	1	0.518	1	1
72	684.536	1.082	win-noreward	ChosenDisplay		0.0		
72	685.607	0.25	win-noreward	TurnDisplay				
72	685.857	0.75	win-noreward	OutcomeDisplay				
73	686.609		control-reward	ImageDisplay1		0.0		
73	688.849	0.75	control-reward	StartDisplay				
73	689.601		control-reward	ImageDisplay2		0.0		
73	692.61	1.6	control-reward	ChoiceDisplay	1	0.603	1	1
73	693.229	0.997	control-reward	ChosenDisplay		0.0		
73	694.215	0.25	control-reward	TurnDisplay				
73	694.466	0.75	control-reward	OutcomeDisplay				
74	695.218		control-reward	ImageDisplay1		0.0		
74	697.207	0.75	control-reward	StartDisplay				
74	697.96		control-reward	ImageDisplay2		0.0		
74	701.219	1.6	control-reward	ChoiceDisplay	1	0.45	1	1
74	701.687	1.15	control-reward	ChosenDisplay		0.0		
74	702.824	0.25	control-reward	TurnDisplay				
74	703.075	0.75	control-reward	OutcomeDisplay				
75	703.827		loss-reward	ImageDisplay1		0.0		
75	705.817	0.75	loss-reward	StartDisplay				
75	706.569		loss-reward	ImageDisplay2		0.0		
75	709.829	1.6	loss-reward	ChoiceDisplay	1	0.346	1	1
75	710.196	1.254	loss-reward	ChosenDisplay		0.0		
75	711.433	0.25	loss-reward	TurnDisplay				
75	711.684	0.75	loss-reward	OutcomeDisplay				
76	712.436		control-noreward	ImageDisplay1		0.0		
76	714.676	0.75	control-noreward	StartDisplay				
76	715.429		control-noreward	ImageDisplay2		0.0		
76	718.438	1.6	control-noreward	ChoiceDisplay	1	0.662	1	1
76	719.123	0.938	control-noreward	ChosenDisplay		0.0		
76	720.042	0.25	control-noreward	TurnDisplay				
76	720.293	0.75	control-noreward	OutcomeDisplay				
77	721.045		control-noreward	ImageDisplay1		0.0		
77	723.285	0.75	control-noreward	StartDisplay				
77	724.038		control-noreward	ImageDisplay2		0.0		
77	727.047	1.6	control-noreward	ChoiceDisplay	1	0.94	1	1
77	728.0	0.66	control-noreward	ChosenDisplay		0.0		
77	728.652	0.25	control-noreward	TurnDisplay				
77	728.902	0.75	control-noreward	OutcomeDisplay				
78	729.655		loss-reward	ImageDisplay1		0.0		
78	731.895	0.75	loss-reward	StartDisplay				
78	732.647		loss-reward	ImageDisplay2		0.0		
78	735.656	1.6	loss-reward	ChoiceDisplay	1	0.904	1	1
78	736.575	0.696	loss-reward	ChosenDisplay		0.0		
78	737.261	0.25	loss-reward	TurnDisplay				
78	737.511	0.75	loss-reward	OutcomeDisplay				
79	738.264		control-noreward	ImageDisplay1		0.0		
79	740.27	0.75	control-noreward	StartDisplay				
79	741.005		control-noreward	ImageDisplay2		0.0		
79	744.265	1.6	control-noreward	ChoiceDisplay	1	0.384	1	1
79	744.666	1.216	control-noreward	ChosenDisplay		0.0		
79	745.87	0.25	control-noreward	TurnDisplay				
79	746.121	0.75	control-noreward	OutcomeDisplay				
80	746.873		control-reward	ImageDisplay1		0.0		
80	748.862	0.75	control-reward	StartDisplay				
80	749.614		control-reward	ImageDisplay2		0.0		
80	752.874	1.6	control-reward	ChoiceDisplay	1	1.054	1	1
80	753.944	0.546	control-reward	ChosenDisplay		0.0		
80	754.479	0.25	control-reward	TurnDisplay				
80	754.73	0.75	control-reward	OutcomeDisplay				
81	755.482		control-noreward	ImageDisplay1		0.0		
81	757.488	0.75	control-noreward	StartDisplay				
81	758.223		control-noreward	ImageDisplay2		0.0		
81	761.483	1.6	control-noreward	ChoiceDisplay	1	0.491	1	1
81	762.001	1.109	control-noreward	ChosenDisplay		0.0		
81	763.088	0.25	control-noreward	TurnDisplay				
81	763.339	0.75	control-noreward	OutcomeDisplay				
82	764.091		control-noreward	ImageDisplay1		0.0		
82	766.08	0.75	control-noreward	StartDisplay				
82	766.833		control-noreward	ImageDisplay2		0.0		
82	770.092	1.6	control-noreward	ChoiceDisplay	1	0.615	1	1
82	770.728	0.985	control-noreward	ChosenDisplay		0.0		
82	771.697	0.25	control-noreward	TurnDisplay				
82	771.948	0.75	control-noreward	OutcomeDisplay				
83	772.7		loss-reward	ImageDisplay1		0.0		
83	774.689	0.75	loss-reward	StartDisplay				
83	775.442		loss-reward	ImageDisplay2		0.0		
83	778.701	1.6	loss-reward	ChoiceDisplay	1	0.596	1	1
83	779.32	1.004	loss-reward	ChosenDisplay		0.0		
83	780.306	0.25	loss-reward	TurnDisplay				
83	780.557	0.75	loss-reward	OutcomeDisplay				
84	781.309		control-reward	ImageDisplay1		0.0		
84	783.549	0.75	control-reward	StartDisplay				
84	784.302		control-reward	ImageDisplay2		0.0		
84	787.311	1.6	control-reward	ChoiceDisplay	1	0.652	1	1
84	787.979	0.948	control-reward	ChosenDisplay		0.0		
84	788.915	0.25	control-reward	TurnDisplay				
84	789.166	0.75	control-reward	OutcomeDisplay				
85	789.918		loss-noreward	ImageDisplay1		0.0		
85	791.908	0.75	loss-noreward	StartDisplay				
85	792.66		loss-noreward	ImageDisplay2		0.0		
85	795.92	1.6	loss-noreward	ChoiceDisplay	1	0.614	1	1
85	796.555	0.986	loss-noreward	ChosenDisplay		0.0		
85	797.524	0.25	loss-noreward	TurnDisplay				
85	797.775	0.75	loss-noreward	OutcomeDisplay				
86	798.527		loss-noreward	ImageDisplay1		0.0		
86	800.517	0.75	loss-noreward	StartDisplay				
86	801.269		loss-noreward	ImageDisplay2		0.0		
86	804.529	1.6	loss-noreward	ChoiceDisplay	1	0.626	1	1
86	805.181	0.974	loss-noreward	ChosenDisplay		0.0		
86	806.134	0.25	loss-noreward	TurnDisplay				
86	806.384	0.75	loss-noreward	OutcomeDisplay				
87	807.137		win-noreward	ImageDisplay1		0.0		
87	809.377	0.75	win-noreward	StartDisplay				
87	810.129		win-noreward	ImageDisplay2		0.0		
87	813.138	1.6	win-noreward	ChoiceDisplay	1	0.776	1	1
87	813.94	0.824	win-noreward	ChosenDisplay		0.0		
87	814.743	0.25	win-noreward	TurnDisplay				
87	814.993	0.75	win-noreward	OutcomeDisplay				
88	815.746		loss-reward	ImageDisplay1		0.0		
88	817.735	0.75	loss-reward	StartDisplay				
88	818.487		loss-reward	ImageDisplay2		0.0		
88	821.747	1.6	loss-reward	ChoiceDisplay	1	0.544	1	1
88	822.315	1.056	loss-reward	ChosenDisplay		0.0		
88	823.352	0.25	loss-reward	TurnDisplay				
88	823.603	0.75	loss-reward	OutcomeDisplay				
89	824.355		loss-reward	ImageDisplay1		0.0		
89	826.344	0.75	loss-reward	StartDisplay				
89	827.096		loss-reward	ImageDisplay2		0.0		
89	830.356	1.6	loss-reward	ChoiceDisplay	1	0.629	1	1
89	831.008	0.971	loss-reward	ChosenDisplay		0.0		
89	831.961	0.25	loss-reward	TurnDisplay				
89	832.212	0.75	loss-reward	OutcomeDisplay				
90	832.964		win-noreward	ImageDisplay1		0.0		
90	834.953	0.75	win-noreward	StartDisplay				
90	835.705		win-noreward	ImageDisplay2		0.0		
90	838.965	1.6	win-noreward	ChoiceDisplay	1	0.209	1	1
90	839.199	1.391	win-noreward	ChosenDisplay		0.0		
90	840.57	0.25	win-noreward	TurnDisplay				
90	840.821	0.75	win-noreward	OutcomeDisplay				
91	841.573		win-reward	ImageDisplay1		0.0		
91	843.562	0.75	win-reward	StartDisplay				
91	844.315		win-reward	ImageDisplay2		0.0		
91	847.574	1.6	win-reward	ChoiceDisplay	1	0.577	1	1
91	848.176	1.023	win-reward	ChosenDisplay		0.0		
91	849.179	0.25	win-reward	TurnDisplay				
91	849.43	0.75	win-reward	OutcomeDisplay				
92	850.182		control-noreward	ImageDisplay1		0.0		
92	852.422	0.75	control-noreward	StartDisplay				
92	853.174		control-noreward	ImageDisplay2		0.0		
92	856.183	1.6	control-noreward	ChoiceDisplay	1	0.418	1	1
92	856.618	1.182	control-noreward	ChosenDisplay		0.0		
92	857.788	0.25	control-noreward	TurnDisplay				
92	858.039	0.75	control-noreward	OutcomeDisplay				
93	858.791		loss-noreward	ImageDisplay1		0.0		
93	861.031	0.75	loss-noreward	StartDisplay				
93	861.784		loss-noreward	ImageDisplay2		0.0		
93	864.793	1.6	loss-noreward	ChoiceDisplay	1	0.706	1	1
93	865.511	0.894	loss-noreward	ChosenDisplay		0.0		
93	866.397	0.25	loss-noreward	TurnDisplay				
93	866.665	0.75	loss-noreward	OutcomeDisplay				
94	867.4		win-reward	ImageDisplay1		0.0		
94	869.39	0.75	win-reward	StartDisplay				
94	870.142		win-reward	ImageDisplay2		0.0		
94	873.402	1.6	win-reward	ChoiceDisplay	1	0.525	1	1
94	873.953	1.075	win-reward	ChosenDisplay		0.0		
94	875.006	0.25	win-reward	TurnDisplay				
94	875.257	0.75	win-reward	OutcomeDisplay				
95	876.009		loss-reward	ImageDisplay1		0.0		
95	878.249	0.75	loss-reward	StartDisplay				
95	879.002		loss-reward	ImageDisplay2		0.0		
95	882.011	1.6	loss-reward	ChoiceDisplay	1	0.419	1	1
95	882.445	1.181	loss-reward	ChosenDisplay		0.0		
95	883.616	0.25	loss-reward	TurnDisplay				
95	883.866	0.75	loss-reward	OutcomeDisplay				
