onset	duration	trial_type	response_time	stim_file	accuracy
312.847	1.0	go	0.514	Go_O	1.0
315.388	1.0	go	0.275	Go_X	1.0
317.912	1.0	go	0.234	Go_X	1.0
320.437	1.0	go	0.326	Go_O	1.0
322.961	1.0	go	0.421	Go_X	1.0
325.485	1.0	go	0.249	Go_O	1.0
328.009	0.25	stopfail	0.34	Go_O	0.0
330.55	1.0	go	0.285	Go_O	1.0
333.074	0.2	stopfail	0.334	Go_X	0.0
335.599	1.0	go	0.324	Go_X	1.0
338.123	1.0	go	0.25	Go_O	1.0
340.664	1.0	go	0.405	Go_X	1.0
343.188	0.15	stopfail	0.285	Go_O	0.0
345.729	1.0	go	0.397	Go_O	1.0
348.253	1.0	go	0.579	Go_X	1.0
350.794	0.1	stopsuccess	0.0	Go_X	1.0
353.318	0.15	stopsuccess	0.0	Go_O	1.0
355.859	1.0	go	0.461	Go_O	1.0
358.384	1.0	go	0.351	Go_X	1.0
360.908	0.2	stopfail	0.32	Go_X	0.0
363.432	1.0	go	0.346	Go_X	1.0
365.957	1.0	go	0.449	Go_O	1.0
368.48	0.15	stopfail	0.26	Go_O	0.0
371.005	1.0	go	0.493	Go_O	1.0
373.529	1.0	go	0.417	Go_X	1.0
376.07	0.1	stopsuccess	0.0	Go_X	1.0
378.594	1.0	go	0.373	Go_X	1.0
381.118	1.0	go	0.373	Go_O	1.0
383.642	0.15	stopsuccess	0.0	Go_O	1.0
386.183	1.0	go	0.368	Go_O	1.0
388.708	1.0	go	0.425	Go_X	1.0
391.232	1.0	go	0.59	Go_X	1.0
393.756	1.0	go	0.688	Go_O	1.0
396.28	1.0	go	0.471	Go_X	1.0
398.821	0.2	stopsuccess	0.0	Go_X	1.0
401.345	1.0	go	0.34	Go_O	1.0
403.87	1.0	go	0.614	Go_O	1.0
406.394	1.0	go	0.612	Go_X	1.0
408.918	1.0	go	0.479	Go_O	1.0
411.442	1.0	go	0.495	Go_X	1.0
413.967	0.25	stopsuccess	0.0	Go_O	1.0
416.491	1.0	go	0.41	Go_X	1.0
419.015	1.0	go	0.399	Go_O	1.0
421.539	1.0	go	0.368	Go_O	1.0
424.063	1.0	go	0.385	Go_X	1.0
426.588	1.0	go	0.426	Go_O	1.0
429.112	1.0	go	0.508	Go_X	1.0
431.636	0.3	stopfail	0.285	Go_X	0.0
434.177	1.0	go	0.48	Go_O	1.0
436.701	1.0	go	0.447	Go_X	1.0
439.226	0.25	stopfail	0.39	Go_O	0.0
441.75	1.0	go	0.322	Go_O	1.0
444.274	0.2	stopsuccess	0.0	Go_X	1.0
446.798	0.25	stopsuccess	0.0	Go_O	1.0
449.339	1.0	go	0.627	Go_X	1.0
451.863	1.0	go	0.632	Go_X	1.0
454.388	1.0	go	0.618	Go_O	1.0
456.912	1.0	go	0.633	Go_X	1.0
459.436	0.3	stopsuccess	0.0	Go_X	1.0
461.96	1.0	go	0.6	Go_O	1.0
464.485	0.35	stopsuccess	0.0	Go_O	1.0
467.009	1.0	go	0.558	Go_O	1.0
469.533	1.0	go	0.531	Go_X	1.0
472.057	1.0	go	0.468	Go_O	1.0
474.581	1.0	go	0.414	Go_X	1.0
477.106	1.0	go	0.449	Go_X	1.0
479.63	1.0	go	0.514	Go_O	1.0
482.154	1.0	go	0.429	Go_O	1.0
484.678	1.0	go	0.487	Go_X	1.0
487.203	1.0	go	0.501	Go_X	1.0
489.727	0.4	stopfail	0.432	Go_X	0.0
492.251	1.0	go	0.457	Go_O	1.0
494.775	1.0	go	0.62	Go_O	1.0
497.299	1.0	go	0.573	Go_X	1.0
499.824	0.35	stopsuccess	0.0	Go_O	1.0
502.365	1.0	go	0.751	Go_X	1.0
504.889	1.0	go	0.433	Go_O	1.0
507.413	1.0	go	0.465	Go_X	1.0
509.937	1.0	go	0.471	Go_O	1.0
512.462	1.0	go	0.587	Go_O	1.0
514.986	1.0	go	0.895	Go_X	1.0
517.527	0.4	stopfail	0.407	Go_X	0.0
520.068	1.0	go	0.347	Go_O	1.0
522.592	1.0	go	0.238	Go_X	1.0
525.116	0.35	stopfail	0.22	Go_O	0.0
527.64	1.0	go	0.364	Go_O	1.0
530.164	1.0	go	0.302	Go_X	1.0
532.689	0.3	stopfail	0.379	Go_X	0.0
535.213	1.0	go	0.606	Go_X	1.0
537.737	0.25	stopsuccess	0.0	Go_O	1.0
540.261	1.0	go	0.426	Go_O	1.0
542.786	1.0	go	0.401	Go_O	1.0
545.31	1.0	go	0.462	Go_X	1.0
547.834	1.0	go	0.399	Go_X	1.0
550.358	1.0	go	0.343	Go_O	1.0
552.882	0.3	stopsuccess	0.0	Go_X	1.0
555.423	0.35	stopsuccess	0.0	Go_O	1.0
557.948	1.0	go	0.623	Go_O	1.0
560.489	1.0	go	0.571	Go_X	1.0
563.013	0.4	stopsuccess	0.0	Go_X	1.0
565.537	1.0	go	0.526	Go_O	1.0
568.061	1.0	go	0.514	Go_X	1.0
570.586	1.0	go	0.584	Go_O	1.0
573.11	1.0	go	0.656	Go_X	1.0
575.634	1.0	go	0.464	Go_X	1.0
578.158	1.0	go	0.579	Go_O	1.0
580.682	0.45	stopfail	0.525	Go_O	0.0
583.207	1.0	go	0.534	Go_X	1.0
585.748	1.0	go	0.796	Go_O	1.0
588.272	1.0	go	0.341	Go_O	1.0
590.796	1.0	go	0.242	Go_X	1.0
593.32	1.0	go	0.219	Go_O	1.0
595.844	0.4	stopfail	0.255	Go_X	0.0
598.369	1.0	go	0.383	Go_X	1.0
600.91	1.0	go	0.444	Go_O	1.0
603.434	1.0	go	0.211	Go_X	1.0
605.958	1.0	go	0.244	Go_O	1.0
608.482	0.35	stopfail	0.214	Go_O	0.0
611.007	1.0	go	0.307	Go_X	1.0
613.531	1.0	go	0.445	Go_X	1.0
616.055	0.3	stopsuccess	0.0	Go_X	1.0
618.579	1.0	go	0.362	Go_O	1.0
621.103	0.35	stopfail	0.494	Go_O	0.0
623.628	1.0	go	0.6	Go_X	1.0
626.152	1.0	go	0.446	Go_O	1.0
628.676	1.0	go	0.508	Go_X	1.0
631.2	1.0	go	0.439	Go_O	1.0
633.725	1.0	go	0.356	Go_O	1.0
636.249	1.0	go	0.512	Go_X	1.0
638.773	1.0	go	0.296	Go_O	1.0
641.297	0.3	stopfail	0.415	Go_X	0.0
643.821	1.0	go	0.352	Go_X	1.0
646.346	1.0	go	0.426	Go_O	1.0
648.87	1.0	go	0.489	Go_X	1.0
651.394	0.25	stopfail	0.361	Go_O	0.0
653.918	1.0	go	0.449	Go_O	1.0
656.446	1.0	go	0.528	Go_X	1.0
658.967	1.0	go	0.449	Go_X	1.0
661.491	1.0	go	0.36	Go_O	1.0
664.015	0.2	stopsuccess	0.0	Go_X	1.0
666.539	1.0	go	0.513	Go_X	1.0
669.064	1.0	go	0.364	Go_O	1.0
671.588	0.25	stopsuccess	0.0	Go_O	1.0
674.112	1.0	go	0.561	Go_X	1.0
676.636	1.0	go	0.33	Go_O	1.0
679.161	0.3	stopfail	0.411	Go_X	0.0
681.685	1.0	go	0.349	Go_O	1.0
684.21	1.0	go	0.653	Go_X	1.0
686.733	0.25	stopfail	0.417	Go_O	0.0
689.274	1.0	go	0.6	Go_O	1.0
691.798	1.0	go	0.472	Go_X	1.0
694.323	1.0	go	0.623	Go_X	1.0
696.847	1.0	go	0.435	Go_O	1.0
699.371	1.0	go	0.489	Go_O	1.0
701.912	1.0	go	0.495	Go_X	1.0
704.436	0.2	stopsuccess	0.0	Go_X	1.0
706.977	1.0	go	0.471	Go_O	1.0
709.501	0.25	stopsuccess	0.0	Go_O	1.0
712.026	1.0	go	0.527	Go_X	1.0
714.55	1.0	go	0.382	Go_X	1.0
717.074	1.0	go	0.317	Go_O	1.0
719.598	1.0	go	0.523	Go_O	1.0
722.123	1.0	go	0.479	Go_X	1.0
724.647	0.3	stopfail	0.388	Go_X	0.0
727.171	1.0	go	0.379	Go_X	1.0
729.695	1.0	go	0.356	Go_O	1.0
732.219	1.0	go	0.378	Go_X	1.0
734.744	0.25	stopsuccess	0.0	Go_O	1.0
737.268	0.3	stopfail	0.467	Go_X	0.0
739.809	0.25	stopsuccess	0.0	Go_O	1.0
742.333	1.0	go	0.467	Go_O	1.0
744.857	0.3	stopfail	0.39	Go_X	0.0
747.382	1.0	go	0.421	Go_O	1.0
749.906	1.0	go	0.501	Go_X	1.0
752.43	1.0	go	0.768	Go_X	1.0
754.954	1.0	go	0.436	Go_O	1.0
757.478	1.0	go	0.452	Go_O	1.0
760.003	1.0	go	0.385	Go_X	1.0
762.527	1.0	go	0.464	Go_O	1.0
765.051	1.0	go	0.376	Go_X	1.0
767.575	0.25	stopfail	0.35	Go_O	0.0
770.1	1.0	go	0.394	Go_O	1.0
772.624	1.0	go	0.529	Go_X	1.0
775.148	0.2	stopsuccess	0.0	Go_X	1.0
777.672	1.0	go	0.491	Go_X	1.0
780.196	1.0	go	0.45	Go_O	1.0
782.721	1.0	go	0.597	Go_O	0.0
785.245	1.0	go	0.269	Go_X	1.0
787.769	1.0	go	0.433	Go_O	1.0
790.293	0.25	stopsuccess	0.0	Go_O	1.0
792.818	1.0	go	0.286	Go_X	1.0
795.342	1.0	go	0.256	Go_O	1.0
797.866	1.0	go	0.454	Go_X	1.0
800.39	0.3	stopfail	0.381	Go_X	0.0
802.914	1.0	go	0.339	Go_X	1.0
805.439	0.25	stopfail	0.392	Go_O	0.0
807.98	1.0	go	0.253	Go_O	0.0
810.504	1.0	go	0.503	Go_O	1.0
813.028	1.0	go	0.285	Go_X	1.0
815.569	1.0	go	0.346	Go_O	0.0
818.093	1.0	go	0.591	Go_X	1.0
820.618	1.0	go	0.316	Go_O	1.0
823.142	1.0	go	0.261	Go_X	1.0
825.666	0.2	stopsuccess	0.0	Go_X	1.0
828.19	1.0	go	0.238	Go_O	1.0
830.714	1.0	go	0.359	Go_X	0.0
833.239	1.0	go	0.349	Go_O	1.0
835.763	1.0	go	0.389	Go_X	1.0
838.287	0.25	stopfail	0.285	Go_O	0.0
840.811	1.0	go	0.428	Go_X	1.0
843.336	0.2	stopsuccess	0.0	Go_X	1.0
845.86	1.0	go	0.471	Go_O	1.0
848.384	1.0	go	0.339	Go_X	1.0
850.908	0.25	stopsuccess	0.0	Go_O	1.0
853.449	1.0	go	0.415	Go_O	1.0
855.973	1.0	go	0.539	Go_O	1.0
858.498	1.0	go	0.503	Go_X	1.0
861.022	1.0	go	0.565	Go_X	1.0
863.546	1.0	go	0.365	Go_O	1.0
866.07	1.0	go	0.544	Go_O	1.0
868.594	1.0	go	0.51	Go_X	1.0
871.119	1.0	go	0.459	Go_O	1.0
873.643	1.0	go	0.497	Go_X	1.0
876.167	1.0	go	0.325	Go_O	1.0
878.691	0.3	stopfail	0.397	Go_X	0.0
881.216	1.0	go	0.443	Go_X	1.0
883.74	1.0	go	0.411	Go_O	1.0
886.281	0.25	stopsuccess	0.0	Go_O	1.0
888.805	1.0	go	0.63	Go_X	1.0
891.329	0.3	stopfail	0.444	Go_X	0.0
893.853	1.0	go	0.568	Go_O	1.0
896.378	1.0	go	0.477	Go_X	1.0
898.902	0.25	stopsuccess	0.0	Go_O	1.0
901.426	1.0	go	0.486	Go_X	1.0
903.95	0.3	stopfail	0.447	Go_X	0.0
906.491	1.0	go	0.458	Go_O	1.0
909.015	1.0	go	0.53	Go_O	1.0
911.54	1.0	go	0.518	Go_X	1.0
914.064	0.25	stopfail	0.373	Go_O	0.0
916.605	1.0	go	0.676	Go_O	1.0
919.129	1.0	go	0.524	Go_X	1.0
921.653	1.0	go	0.449	Go_O	1.0
924.178	1.0	go	0.63	Go_X	1.0
926.719	0.2	stopsuccess	0.0	Go_X	1.0
929.243	1.0	go	0.525	Go_X	1.0
931.767	1.0	go	0.284	Go_O	1.0
934.291	0.25	stopfail	0.373	Go_O	0.0
936.815	1.0	go	0.43	Go_O	1.0
939.34	1.0	go	0.371	Go_X	1.0
941.881	1.0	go	0.365	Go_O	1.0
944.405	1.0	go	0.441	Go_X	1.0
946.929	0.2	stopsuccess	0.0	Go_X	1.0
949.47	1.0	go	0.518	Go_X	1.0
952.011	0.25	stopsuccess	0.0	Go_O	1.0
954.535	1.0	go	0.0	Go_O	0.0
957.059	1.0	go	0.359	Go_X	1.0
959.584	0.3	stopfail	0.349	Go_X	0.0
962.108	1.0	go	0.427	Go_O	1.0
964.632	1.0	go	0.466	Go_X	1.0
967.156	1.0	go	0.239	Go_O	1.0
969.681	1.0	go	0.432	Go_O	1.0
972.205	0.25	stopfail	0.286	Go_O	0.0
974.729	1.0	go	0.359	Go_X	0.0
977.253	0.2	stopfail	0.419	Go_X	0.0
979.777	1.0	go	0.412	Go_X	1.0
982.302	1.0	go	0.378	Go_O	1.0
984.826	1.0	go	0.192	Go_X	1.0
987.35	1.0	go	0.214	Go_O	1.0
989.874	1.0	go	0.276	Go_O	1.0
992.398	1.0	go	0.379	Go_X	1.0
994.923	0.15	stopfail	0.225	Go_O	0.0
997.447	1.0	go	0.349	Go_X	1.0
999.988	1.0	go	0.386	Go_O	1.0
1002.512	0.1	stopsuccess	0.0	Go_X	1.0
1005.036	1.0	go	0.368	Go_X	1.0
1007.561	1.0	go	0.252	Go_O	1.0
1010.085	0.15	stopsuccess	0.0	Go_O	1.0
1012.626	1.0	go	0.465	Go_O	1.0
1015.15	1.0	go	0.208	Go_X	1.0
1017.674	1.0	go	0.422	Go_X	1.0
1020.198	1.0	go	0.358	Go_O	1.0
1022.723	0.2	stopsuccess	0.0	Go_X	1.0
1025.247	1.0	go	0.491	Go_X	1.0
1027.771	0.25	stopfail	0.44	Go_O	0.0
1030.295	1.0	go	0.509	Go_O	1.0
1032.82	1.0	go	0.314	Go_O	1.0
1035.344	1.0	go	0.456	Go_X	1.0
1037.868	1.0	go	0.52	Go_X	1.0
1040.392	1.0	go	0.403	Go_O	1.0
1042.916	0.2	stopsuccess	0.0	Go_X	1.0
1045.441	1.0	go	0.376	Go_X	1.0
1047.965	1.0	go	0.396	Go_O	0.0
1050.489	0.25	stopfail	0.29	Go_O	0.0
1053.03	0.2	stopsuccess	0.0	Go_X	1.0
1055.554	1.0	go	0.34	Go_O	1.0
1058.078	1.0	go	0.507	Go_X	1.0
1060.603	1.0	go	0.553	Go_X	1.0
1063.127	1.0	go	0.42	Go_O	1.0
1065.651	0.25	stopsuccess	0.0	Go_O	1.0
1068.175	1.0	go	0.48	Go_O	1.0
