onset	duration	trial_type	response_time	stim_file	accuracy
45.937	1.0	go	0.576	Go_X	0.0
48.511	1.0	go	0.568	Go_O	0.0
51.035	1.0	go	0.794	Go_O	0.0
53.559	1.0	go	0.343	Go_X	0.0
56.083	1.0	go	0.436	Go_X	0.0
58.608	1.0	go	0.455	Go_O	0.0
61.132	0.25	stop	0.0	Go_O	1.0
63.656	1.0	go	0.48	Go_O	0.0
66.18	0.3	stop	0.0	Go_X	1.0
68.704	1.0	go	0.419	Go_X	0.0
71.229	1.0	go	0.5	Go_O	0.0
73.753	1.0	go	0.313	Go_X	0.0
76.277	0.35	stop	0.267	Go_O	0.0
78.801	1.0	go	0.434	Go_O	0.0
81.325	1.0	go	0.285	Go_X	0.0
83.85	0.3	stop	0.388	Go_X	0.0
86.374	0.25	stop	0.368	Go_O	0.0
88.898	1.0	go	0.423	Go_O	0.0
91.422	1.0	go	0.328	Go_X	0.0
93.946	0.2	stop	0.0	Go_X	1.0
96.47	1.0	go	0.393	Go_O	0.0
98.995	1.0	go	0.516	Go_X	0.0
101.519	0.25	stop	0.371	Go_O	0.0
104.043	1.0	go	0.438	Go_O	0.0
106.567	1.0	go	0.44	Go_X	0.0
109.091	0.2	stop	0.0	Go_X	1.0
111.616	1.0	go	0.411	Go_X	0.0
114.14	1.0	go	0.458	Go_O	0.0
116.664	0.25	stop	0.0	Go_O	1.0
119.188	1.0	go	0.432	Go_X	0.0
121.712	1.0	go	0.657	Go_O	0.0
124.236	1.0	go	0.67	Go_O	0.0
126.761	1.0	go	0.588	Go_X	0.0
129.285	1.0	go	0.609	Go_X	0.0
131.809	0.3	stop	0.437	Go_X	0.0
134.333	1.0	go	0.58	Go_O	0.0
136.857	1.0	go	0.59	Go_X	0.0
139.382	1.0	go	0.422	Go_O	0.0
141.906	1.0	go	0.426	Go_X	0.0
144.43	1.0	go	0.498	Go_O	0.0
146.954	0.25	stop	0.0	Go_O	1.0
149.478	1.0	go	0.435	Go_X	0.0
152.002	1.0	go	0.577	Go_O	0.0
154.527	1.0	go	0.314	Go_X	0.0
157.051	1.0	go	0.467	Go_O	0.0
159.575	1.0	go	0.514	Go_X	0.0
162.099	1.0	go	0.369	Go_O	0.0
164.623	0.3	stop	0.327	Go_X	0.0
167.148	1.0	go	0.367	Go_O	0.0
169.672	1.0	go	0.607	Go_X	0.0
172.196	0.25	stop	0.0	Go_O	1.0
174.72	1.0	go	0.326	Go_O	0.0
177.244	0.3	stop	0.458	Go_X	0.0
179.768	0.25	stop	0.373	Go_O	0.0
182.293	1.0	go	0.536	Go_X	0.0
184.817	1.0	go	0.633	Go_O	0.0
187.341	1.0	go	0.435	Go_X	0.0
189.865	1.0	go	0.392	Go_X	0.0
192.389	0.2	stop	0.0	Go_X	1.0
194.914	1.0	go	0.401	Go_O	0.0
197.438	0.25	stop	0.0	Go_O	1.0
199.962	1.0	go	0.417	Go_X	0.0
202.486	1.0	go	0.498	Go_O	0.0
205.01	1.0	go	0.53	Go_X	0.0
207.534	1.0	go	0.412	Go_O	0.0
210.059	1.0	go	0.442	Go_X	0.0
212.583	1.0	go	0.341	Go_O	0.0
215.107	1.0	go	0.246	Go_X	0.0
217.631	1.0	go	0.249	Go_O	0.0
220.155	1.0	go	0.356	Go_X	0.0
222.68	0.3	stop	0.0	Go_X	1.0
225.204	1.0	go	0.371	Go_O	0.0
227.728	1.0	go	0.593	Go_X	0.0
230.252	1.0	go	0.442	Go_O	0.0
232.776	0.35	stop	0.475	Go_O	0.0
235.3	1.0	go	0.564	Go_O	0.0
237.825	1.0	go	0.375	Go_X	0.0
240.349	1.0	go	0.358	Go_O	0.0
242.873	1.0	go	0.489	Go_X	0.0
245.397	1.0	go	0.333	Go_O	0.0
247.921	1.0	go	0.371	Go_X	0.0
250.446	0.3	stop	0.394	Go_X	0.0
252.97	1.0	go	0.517	Go_X	0.0
255.494	1.0	go	0.707	Go_O	0.0
258.018	0.25	stop	0.39	Go_O	0.0
260.542	1.0	go	0.445	Go_O	0.0
263.066	1.0	go	0.572	Go_X	0.0
265.591	0.2	stop	0.332	Go_X	0.0
268.115	1.0	go	0.917	Go_O	0.0
270.639	0.15	stop	0.0	Go_O	1.0
273.163	1.0	go	0.414	Go_X	0.0
275.687	1.0	go	0.39	Go_O	0.0
278.212	1.0	go	0.475	Go_X	0.0
280.736	1.0	go	0.458	Go_X	0.0
283.26	1.0	go	0.479	Go_O	0.0
285.784	0.2	stop	0.0	Go_X	1.0
288.308	0.25	stop	0.573	Go_O	0.0
290.832	1.0	go	0.627	Go_X	0.0
293.357	1.0	go	0.399	Go_O	0.0
295.881	0.2	stop	0.0	Go_X	1.0
298.405	1.0	go	0.472	Go_O	0.0
300.929	1.0	go	0.498	Go_X	0.0
303.453	1.0	go	0.534	Go_O	0.0
305.978	1.0	go	0.348	Go_X	0.0
308.502	1.0	go	0.474	Go_O	0.0
311.026	1.0	go	0.309	Go_X	0.0
313.55	0.25	stop	0.34	Go_O	0.0
316.074	1.0	go	0.621	Go_O	0.0
318.598	1.0	go	0.513	Go_X	0.0
321.123	1.0	go	0.611	Go_X	0.0
323.647	1.0	go	0.586	Go_O	0.0
326.171	1.0	go	0.295	Go_O	0.0
328.695	0.2	stop	0.0	Go_X	1.0
331.219	1.0	go	0.566	Go_X	0.0
333.744	1.0	go	0.415	Go_O	0.0
336.268	1.0	go	0.384	Go_X	0.0
338.792	1.0	go	0.427	Go_O	0.0
341.316	0.25	stop	0.342	Go_O	0.0
343.84	1.0	go	0.511	Go_X	0.0
346.364	1.0	go	0.363	Go_X	1.0
348.889	0.2	stop	0.0	Go_X	1.0
351.413	1.0	go	0.64	Go_O	0.0
353.937	0.25	stop	0.0	Go_O	1.0
356.461	1.0	go	0.389	Go_O	0.0
358.985	1.0	go	0.428	Go_X	0.0
361.51	1.0	go	0.428	Go_O	0.0
364.034	1.0	go	0.514	Go_X	0.0
366.558	1.0	go	0.338	Go_O	0.0
369.082	1.0	go	0.597	Go_X	0.0
371.606	1.0	go	0.668	Go_X	0.0
374.13	0.3	stop	0.41	Go_X	0.0
376.655	1.0	go	0.571	Go_O	0.0
379.179	1.0	go	0.554	Go_X	0.0
381.703	1.0	go	0.554	Go_O	0.0
384.227	0.25	stop	0.408	Go_O	0.0
386.751	1.0	go	0.517	Go_X	0.0
389.276	1.0	go	0.501	Go_O	0.0
391.8	1.0	go	0.458	Go_O	0.0
394.324	1.0	go	0.661	Go_X	0.0
396.848	0.2	stop	0.0	Go_X	1.0
399.372	1.0	go	0.524	Go_O	0.0
401.896	1.0	go	0.569	Go_X	0.0
404.421	0.25	stop	0.0	Go_O	1.0
406.945	1.0	go	0.562	Go_O	0.0
409.469	1.0	go	0.67	Go_X	0.0
411.993	0.3	stop	0.0	Go_X	1.0
414.517	1.0	go	0.433	Go_X	0.0
417.042	1.0	go	0.493	Go_O	0.0
419.566	0.35	stop	0.462	Go_O	0.0
422.09	1.0	go	0.377	Go_O	0.0
424.614	1.0	go	0.467	Go_X	0.0
427.138	1.0	go	0.3	Go_O	0.0
429.663	1.0	go	0.499	Go_X	0.0
432.187	1.0	go	0.43	Go_X	0.0
434.711	1.0	go	0.386	Go_O	0.0
437.235	0.3	stop	0.369	Go_X	0.0
439.759	1.0	go	0.458	Go_X	0.0
442.283	0.25	stop	0.0	Go_O	1.0
444.808	1.0	go	0.552	Go_O	0.0
447.332	1.0	go	0.55	Go_O	0.0
449.856	1.0	go	0.463	Go_X	0.0
452.38	1.0	go	0.503	Go_O	0.0
454.904	1.0	go	0.667	Go_X	0.0
457.429	0.3	stop	0.0	Go_X	1.0
459.953	1.0	go	0.466	Go_X	0.0
462.477	1.0	go	0.347	Go_O	0.0
465.001	1.0	go	0.424	Go_X	0.0
467.525	0.35	stop	0.587	Go_O	0.0
470.049	0.3	stop	0.405	Go_X	0.0
472.574	0.25	stop	0.0	Go_O	1.0
475.098	1.0	go	0.544	Go_O	0.0
477.622	0.3	stop	0.499	Go_X	0.0
480.146	1.0	go	0.615	Go_O	0.0
482.67	1.0	go	0.491	Go_X	0.0
485.195	1.0	go	0.546	Go_O	0.0
487.719	1.0	go	0.392	Go_X	0.0
490.243	1.0	go	0.479	Go_X	0.0
492.767	1.0	go	0.584	Go_O	0.0
495.291	1.0	go	0.477	Go_X	0.0
497.815	1.0	go	0.339	Go_O	0.0
500.34	0.25	stop	0.339	Go_O	0.0
502.864	1.0	go	0.517	Go_O	0.0
505.388	1.0	go	0.782	Go_X	1.0
507.912	0.2	stop	0.0	Go_X	1.0
510.436	1.0	go	0.5	Go_X	0.0
512.961	1.0	go	0.416	Go_O	0.0
515.485	1.0	go	0.442	Go_O	0.0
518.009	1.0	go	0.483	Go_X	0.0
520.533	1.0	go	0.445	Go_O	0.0
523.057	0.25	stop	0.0	Go_O	1.0
525.581	1.0	go	0.538	Go_X	0.0
528.106	1.0	go	0.465	Go_O	0.0
530.63	1.0	go	0.643	Go_X	0.0
533.154	0.3	stop	0.0	Go_X	1.0
535.678	1.0	go	0.5	Go_X	0.0
538.202	0.35	stop	0.485	Go_O	0.0
540.727	1.0	go	0.559	Go_O	0.0
543.251	1.0	go	0.8	Go_X	0.0
545.775	1.0	go	0.325	Go_O	0.0
548.299	1.0	go	0.327	Go_X	0.0
550.823	1.0	go	0.457	Go_O	0.0
553.347	1.0	go	0.434	Go_O	0.0
555.872	1.0	go	0.635	Go_X	0.0
558.396	0.3	stop	0.359	Go_X	0.0
560.92	1.0	go	0.544	Go_X	0.0
563.444	1.0	go	0.558	Go_O	0.0
565.968	1.0	go	0.703	Go_X	0.0
568.493	1.0	go	0.381	Go_O	0.0
571.017	0.25	stop	0.411	Go_O	0.0
573.541	1.0	go	0.392	Go_O	0.0
576.065	0.2	stop	0.0	Go_X	1.0
578.589	1.0	go	0.515	Go_X	0.0
581.113	1.0	go	0.459	Go_X	0.0
583.638	0.25	stop	0.0	Go_O	1.0
586.162	1.0	go	0.415	Go_O	0.0
588.686	1.0	go	0.541	Go_O	0.0
591.21	1.0	go	0.576	Go_X	0.0
593.734	1.0	go	0.612	Go_X	0.0
596.259	1.0	go	0.473	Go_O	0.0
598.783	1.0	go	0.33	Go_X	0.0
601.307	1.0	go	0.493	Go_O	0.0
603.831	1.0	go	0.427	Go_O	0.0
606.355	1.0	go	0.542	Go_X	0.0
608.879	1.0	go	0.422	Go_O	0.0
611.404	0.3	stop	0.414	Go_X	0.0
613.928	1.0	go	0.409	Go_X	0.0
616.452	1.0	go	0.366	Go_O	0.0
618.976	0.25	stop	0.0	Go_O	1.0
621.5	1.0	go	0.523	Go_X	0.0
624.025	0.3	stop	0.433	Go_X	0.0
626.549	1.0	go	0.568	Go_O	0.0
629.073	1.0	go	0.466	Go_X	0.0
631.597	0.25	stop	0.0	Go_O	1.0
634.121	1.0	go	0.426	Go_X	0.0
636.645	0.3	stop	0.459	Go_X	0.0
639.17	1.0	go	0.437	Go_O	0.0
641.694	1.0	go	0.409	Go_O	0.0
644.218	1.0	go	0.491	Go_X	0.0
646.742	0.25	stop	0.0	Go_O	1.0
649.266	1.0	go	0.454	Go_X	0.0
651.791	1.0	go	0.318	Go_O	0.0
654.315	1.0	go	0.539	Go_X	0.0
656.839	1.0	go	0.288	Go_O	0.0
659.363	0.3	stop	0.328	Go_X	0.0
661.887	1.0	go	0.602	Go_X	0.0
664.411	1.0	go	0.346	Go_O	0.0
666.936	0.25	stop	0.0	Go_O	1.0
669.46	1.0	go	0.308	Go_X	0.0
671.984	1.0	go	0.836	Go_O	0.0
674.508	1.0	go	0.423	Go_O	0.0
677.032	1.0	go	0.322	Go_X	0.0
679.557	0.3	stop	0.335	Go_X	0.0
682.081	1.0	go	0.478	Go_O	0.0
684.605	0.25	stop	0.0	Go_O	1.0
687.129	1.0	go	0.402	Go_X	0.0
689.653	1.0	go	0.39	Go_O	0.0
692.177	0.3	stop	0.431	Go_X	0.0
694.702	1.0	go	0.379	Go_X	0.0
697.226	1.0	go	0.448	Go_O	0.0
699.75	1.0	go	0.563	Go_X	0.0
702.274	1.0	go	0.293	Go_O	0.0
704.798	0.25	stop	0.0	Go_O	1.0
707.323	1.0	go	0.365	Go_X	0.0
709.847	0.3	stop	0.491	Go_X	0.0
712.371	1.0	go	0.514	Go_O	0.0
714.895	1.0	go	0.45	Go_X	0.0
717.419	1.0	go	0.465	Go_O	0.0
719.943	1.0	go	0.521	Go_X	0.0
722.468	1.0	go	0.751	Go_O	0.0
724.992	1.0	go	0.39	Go_X	0.0
727.516	0.25	stop	0.0	Go_O	1.0
730.04	1.0	go	0.482	Go_O	0.0
732.564	1.0	go	0.574	Go_X	0.0
735.089	0.3	stop	0.0	Go_X	1.0
737.613	1.0	go	0.644	Go_O	0.0
740.137	1.0	go	0.623	Go_X	0.0
742.661	0.35	stop	0.534	Go_O	0.0
745.185	1.0	go	0.403	Go_O	0.0
747.71	1.0	go	0.359	Go_X	0.0
750.234	1.0	go	0.664	Go_X	0.0
752.758	1.0	go	0.433	Go_O	0.0
755.282	0.3	stop	0.334	Go_X	0.0
757.806	1.0	go	0.329	Go_X	0.0
760.33	0.25	stop	0.404	Go_O	0.0
762.855	1.0	go	0.435	Go_O	0.0
765.379	1.0	go	0.5	Go_O	0.0
767.903	1.0	go	0.501	Go_X	0.0
770.427	1.0	go	0.31	Go_X	1.0
772.951	1.0	go	0.345	Go_O	0.0
775.476	0.2	stop	0.382	Go_X	0.0
778.0	1.0	go	0.377	Go_X	0.0
780.524	1.0	go	0.301	Go_O	0.0
783.048	0.15	stop	0.0	Go_O	1.0
785.572	0.2	stop	0.0	Go_X	1.0
788.096	1.0	go	0.465	Go_O	0.0
790.621	1.0	go	0.493	Go_X	0.0
793.145	1.0	go	0.349	Go_O	0.0
795.669	1.0	go	0.434	Go_X	0.0
798.193	0.25	stop	0.387	Go_O	0.0
800.717	1.0	go	0.518	Go_X	0.0
