onset	duration	trial_type	response_time	stim_file	accuracy
363.329	1.0	go	0.448	Go_O	1.0
365.895	1.0	go	0.233	Go_X	1.0
368.429	1.0	go	0.459	Go_X	1.0
370.962	1.0	go	0.343	Go_O	1.0
373.495	1.0	go	0.345	Go_O	1.0
376.028	1.0	go	0.225	Go_X	1.0
378.562	0.25	stop	0.267	Go_O	0.0
381.095	1.0	go	0.219	Go_X	1.0
383.628	0.2	stop	0.448	Go_X	0.0
386.162	1.0	go	0.329	Go_O	0.0
388.695	1.0	go	0.448	Go_O	1.0
391.228	1.0	go	0.314	Go_X	0.0
393.761	0.15	stop	0.0	Go_O	1.0
396.295	1.0	go	0.339	Go_X	1.0
398.828	1.0	go	0.3	Go_O	1.0
401.361	0.2	stop	0.323	Go_X	0.0
403.894	0.15	stop	0.0	Go_O	1.0
406.444	1.0	go	0.216	Go_X	1.0
408.978	1.0	go	0.25	Go_O	1.0
411.511	0.2	stop	0.267	Go_X	0.0
414.044	1.0	go	0.36	Go_O	1.0
416.578	1.0	go	0.446	Go_X	1.0
419.127	0.15	stop	0.0	Go_O	1.0
421.661	1.0	go	0.519	Go_O	1.0
424.194	1.0	go	0.501	Go_X	1.0
426.727	0.2	stop	0.355	Go_X	0.0
429.261	1.0	go	0.242	Go_X	1.0
431.794	1.0	go	0.269	Go_O	1.0
434.327	0.15	stop	0.258	Go_O	0.0
436.86	1.0	go	0.474	Go_O	1.0
439.394	1.0	go	0.319	Go_X	1.0
441.927	1.0	go	0.312	Go_O	1.0
444.46	1.0	go	0.389	Go_X	1.0
446.993	1.0	go	0.438	Go_X	1.0
449.527	0.1	stop	0.239	Go_X	0.0
452.06	1.0	go	0.227	Go_O	1.0
454.593	1.0	go	0.254	Go_O	0.0
457.127	1.0	go	0.306	Go_X	1.0
459.66	1.0	go	0.362	Go_X	1.0
462.193	1.0	go	0.402	Go_O	1.0
464.726	0.05	stop	0.0	Go_O	1.0
467.26	1.0	go	0.243	Go_O	0.0
469.793	1.0	go	0.28	Go_X	1.0
472.326	1.0	go	0.332	Go_X	1.0
474.86	1.0	go	0.463	Go_O	1.0
477.409	1.0	go	0.666	Go_X	1.0
479.943	1.0	go	0.434	Go_O	1.0
482.476	0.1	stop	0.0	Go_X	1.0
485.009	1.0	go	0.345	Go_X	1.0
487.543	1.0	go	0.428	Go_O	1.0
490.076	0.15	stop	0.0	Go_O	1.0
492.609	1.0	go	0.313	Go_X	1.0
495.142	0.2	stop	0.392	Go_X	0.0
497.676	0.15	stop	0.394	Go_O	0.0
500.209	1.0	go	0.395	Go_O	1.0
502.742	1.0	go	0.271	Go_X	1.0
505.275	1.0	go	0.369	Go_O	1.0
507.809	1.0	go	0.458	Go_O	1.0
510.342	0.1	stop	0.0	Go_X	1.0
512.875	1.0	go	0.432	Go_X	1.0
515.409	0.15	stop	0.252	Go_O	0.0
517.942	1.0	go	0.293	Go_X	1.0
520.475	1.0	go	0.345	Go_O	1.0
523.008	1.0	go	0.497	Go_X	1.0
525.542	1.0	go	0.278	Go_O	1.0
528.075	1.0	go	0.501	Go_O	1.0
530.608	1.0	go	0.291	Go_X	1.0
533.141	1.0	go	0.313	Go_O	1.0
535.675	1.0	go	0.27	Go_X	1.0
538.208	1.0	go	0.403	Go_X	1.0
540.741	0.1	stop	0.0	Go_X	1.0
543.275	1.0	go	0.408	Go_O	1.0
545.808	1.0	go	0.488	Go_X	1.0
548.341	1.0	go	0.399	Go_O	1.0
550.874	0.15	stop	0.0	Go_O	1.0
553.408	1.0	go	0.342	Go_X	1.0
555.941	1.0	go	0.459	Go_O	1.0
558.474	1.0	go	0.409	Go_X	1.0
561.008	1.0	go	0.478	Go_O	1.0
563.557	1.0	go	0.436	Go_X	1.0
566.091	1.0	go	0.419	Go_O	1.0
568.624	0.2	stop	0.279	Go_X	0.0
571.157	1.0	go	0.402	Go_X	1.0
573.691	1.0	go	0.461	Go_O	1.0
576.224	0.15	stop	0.384	Go_O	0.0
578.757	1.0	go	0.48	Go_X	1.0
581.29	1.0	go	0.457	Go_O	1.0
583.824	0.1	stop	0.0	Go_X	1.0
586.357	1.0	go	0.485	Go_O	1.0
588.89	0.15	stop	0.0	Go_O	1.0
591.423	1.0	go	0.455	Go_X	1.0
593.957	1.0	go	0.493	Go_X	1.0
596.49	1.0	go	0.434	Go_O	1.0
599.023	1.0	go	0.273	Go_O	0.0
601.557	1.0	go	0.258	Go_X	1.0
604.09	0.2	stop	0.387	Go_X	0.0
606.623	0.15	stop	0.0	Go_O	1.0
609.156	1.0	go	0.289	Go_O	1.0
611.69	1.0	go	0.342	Go_X	1.0
614.223	0.2	stop	0.0	Go_X	1.0
616.756	1.0	go	0.405	Go_O	1.0
619.289	1.0	go	0.384	Go_X	1.0
621.823	1.0	go	0.463	Go_X	1.0
624.356	1.0	go	0.517	Go_O	1.0
626.889	1.0	go	0.339	Go_X	1.0
629.423	1.0	go	0.426	Go_O	1.0
631.956	0.25	stop	0.0	Go_O	1.0
634.489	1.0	go	0.44	Go_O	1.0
637.022	1.0	go	0.251	Go_X	1.0
639.556	1.0	go	0.316	Go_O	0.0
642.089	1.0	go	0.449	Go_X	1.0
644.622	1.0	go	0.346	Go_X	1.0
647.156	0.3	stop	0.427	Go_X	0.0
649.705	1.0	go	0.449	Go_O	1.0
652.239	1.0	go	0.354	Go_X	1.0
654.772	1.0	go	0.425	Go_O	1.0
657.305	1.0	go	0.345	Go_X	1.0
659.839	0.25	stop	0.0	Go_O	1.0
662.388	1.0	go	0.46	Go_O	1.0
664.922	1.0	go	0.542	Go_O	1.0
667.455	0.3	stop	0.484	Go_X	0.0
669.988	1.0	go	0.251	Go_X	1.0
672.522	0.25	stop	0.231	Go_O	0.0
675.055	1.0	go	0.264	Go_O	1.0
677.588	1.0	go	0.389	Go_X	1.0
680.121	1.0	go	0.412	Go_O	1.0
682.655	1.0	go	0.351	Go_X	1.0
685.188	1.0	go	0.279	Go_O	1.0
687.721	1.0	go	0.348	Go_X	1.0
690.254	1.0	go	0.408	Go_X	1.0
692.788	0.2	stop	0.0	Go_X	1.0
695.321	1.0	go	0.287	Go_O	1.0
697.854	1.0	go	0.356	Go_X	1.0
700.388	1.0	go	0.494	Go_O	1.0
702.921	0.25	stop	0.337	Go_O	0.0
705.454	1.0	go	0.373	Go_O	1.0
707.987	1.0	go	0.265	Go_X	1.0
710.521	1.0	go	0.274	Go_X	1.0
713.054	1.0	go	0.392	Go_O	1.0
715.587	0.2	stop	0.0	Go_X	1.0
718.121	1.0	go	0.263	Go_O	1.0
720.67	1.0	go	0.307	Go_X	0.0
723.204	0.25	stop	0.468	Go_O	0.0
725.737	1.0	go	0.423	Go_O	1.0
728.27	1.0	go	0.327	Go_X	1.0
730.804	0.2	stop	0.246	Go_X	0.0
733.337	1.0	go	0.471	Go_O	1.0
735.87	1.0	go	0.94	Go_X	1.0
738.403	0.15	stop	0.407	Go_O	0.0
740.937	1.0	go	0.373	Go_X	1.0
743.47	1.0	go	0.41	Go_O	1.0
746.003	1.0	go	0.614	Go_O	1.0
748.536	1.0	go	0.518	Go_X	1.0
751.07	1.0	go	0.469	Go_X	1.0
753.603	1.0	go	0.54	Go_O	1.0
756.136	0.1	stop	0.0	Go_X	1.0
758.67	1.0	go	0.605	Go_X	1.0
761.203	0.15	stop	0.0	Go_O	1.0
763.736	1.0	go	0.533	Go_O	1.0
766.269	1.0	go	0.409	Go_O	1.0
768.803	1.0	go	0.437	Go_X	1.0
771.336	1.0	go	0.407	Go_X	1.0
773.869	1.0	go	0.372	Go_O	1.0
776.402	0.2	stop	0.478	Go_X	0.0
778.936	1.0	go	0.364	Go_O	1.0
781.469	1.0	go	0.362	Go_X	1.0
784.002	1.0	go	0.31	Go_X	1.0
786.536	0.15	stop	0.409	Go_O	0.0
789.069	0.1	stop	0.0	Go_X	1.0
791.602	0.15	stop	0.0	Go_O	1.0
794.135	1.0	go	0.479	Go_O	1.0
796.669	0.2	stop	0.39	Go_X	0.0
799.202	1.0	go	0.392	Go_O	1.0
801.735	1.0	go	0.492	Go_X	1.0
804.269	1.0	go	0.422	Go_O	1.0
806.818	1.0	go	0.491	Go_X	1.0
809.352	1.0	go	0.412	Go_O	1.0
811.885	1.0	go	0.254	Go_X	1.0
814.418	1.0	go	0.372	Go_O	1.0
816.952	1.0	go	0.462	Go_X	1.0
819.485	0.15	stop	0.32	Go_O	0.0
822.018	1.0	go	0.331	Go_X	1.0
824.551	1.0	go	0.366	Go_O	1.0
827.085	0.1	stop	0.0	Go_X	1.0
829.618	1.0	go	0.4	Go_O	1.0
832.151	1.0	go	0.395	Go_X	1.0
834.684	1.0	go	0.278	Go_O	1.0
837.218	1.0	go	0.482	Go_X	1.0
839.751	1.0	go	0.487	Go_O	1.0
842.284	0.15	stop	0.0	Go_O	1.0
844.818	1.0	go	0.361	Go_X	0.0
847.351	1.0	go	0.425	Go_O	1.0
849.884	1.0	go	0.593	Go_X	1.0
852.417	0.2	stop	0.366	Go_X	0.0
854.951	1.0	go	0.453	Go_X	1.0
857.484	0.15	stop	0.0	Go_O	1.0
860.017	1.0	go	0.344	Go_O	1.0
862.55	1.0	go	0.592	Go_O	0.0
865.084	1.0	go	0.22	Go_X	1.0
867.617	1.0	go	0.412	Go_X	1.0
870.15	1.0	go	0.331	Go_O	1.0
872.684	1.0	go	0.349	Go_O	1.0
875.217	1.0	go	0.484	Go_X	1.0
877.75	0.2	stop	0.0	Go_X	1.0
880.283	1.0	go	0.506	Go_X	1.0
882.817	1.0	go	0.417	Go_O	1.0
885.35	1.0	go	0.433	Go_X	1.0
887.883	1.0	go	0.549	Go_O	1.0
890.417	0.25	stop	0.0	Go_O	1.0
892.966	1.0	go	0.479	Go_X	1.0
895.5	0.3	stop	0.346	Go_X	0.0
898.033	1.0	go	0.473	Go_O	1.0
900.566	1.0	go	0.456	Go_X	1.0
903.1	0.25	stop	0.0	Go_O	1.0
905.649	1.0	go	0.561	Go_O	1.0
908.183	1.0	go	0.32	Go_X	1.0
910.716	1.0	go	0.437	Go_O	1.0
913.249	1.0	go	0.376	Go_X	1.0
915.783	1.0	go	0.5	Go_O	1.0
918.316	1.0	go	0.648	Go_X	1.0
920.849	1.0	go	0.402	Go_O	1.0
923.382	1.0	go	0.339	Go_O	1.0
925.916	1.0	go	0.418	Go_X	1.0
928.449	1.0	go	0.424	Go_O	1.0
930.982	0.3	stop	0.433	Go_X	0.0
933.515	1.0	go	0.436	Go_X	1.0
936.049	1.0	go	0.361	Go_X	1.0
938.582	0.25	stop	0.0	Go_O	1.0
941.115	1.0	go	0.48	Go_O	1.0
943.649	0.3	stop	0.325	Go_X	0.0
946.182	1.0	go	0.455	Go_X	1.0
948.715	1.0	go	0.787	Go_O	1.0
951.248	0.25	stop	0.376	Go_O	0.0
953.782	1.0	go	0.451	Go_X	1.0
956.315	0.2	stop	0.0	Go_X	1.0
958.848	1.0	go	0.378	Go_O	1.0
961.382	1.0	go	0.351	Go_X	1.0
963.931	1.0	go	0.38	Go_O	1.0
966.465	0.25	stop	0.0	Go_O	1.0
968.998	1.0	go	0.344	Go_O	1.0
971.531	1.0	go	0.338	Go_X	1.0
974.065	1.0	go	0.572	Go_O	1.0
976.598	1.0	go	0.753	Go_X	0.0
979.131	0.3	stop	0.395	Go_X	0.0
981.664	1.0	go	0.314	Go_O	1.0
984.198	1.0	go	0.382	Go_X	1.0
986.731	0.25	stop	0.0	Go_O	1.0
989.264	1.0	go	0.278	Go_X	1.0
991.797	1.0	go	0.372	Go_O	1.0
994.331	1.0	go	0.311	Go_O	0.0
996.864	1.0	go	0.356	Go_X	1.0
999.397	0.3	stop	0.0	Go_X	1.0
1001.931	1.0	go	0.254	Go_O	1.0
1004.464	0.35	stop	0.394	Go_O	0.0
1006.997	1.0	go	0.213	Go_X	1.0
1009.53	1.0	go	0.427	Go_X	1.0
1012.064	0.3	stop	0.439	Go_X	0.0
1014.597	1.0	go	0.632	Go_O	1.0
1017.13	1.0	go	0.34	Go_O	0.0
1019.663	1.0	go	0.223	Go_X	1.0
1022.197	1.0	go	0.297	Go_O	1.0
1024.73	0.25	stop	0.0	Go_O	1.0
1027.263	1.0	go	0.409	Go_X	1.0
1029.797	0.3	stop	0.332	Go_X	0.0
1032.33	1.0	go	0.435	Go_O	1.0
1034.863	1.0	go	0.333	Go_X	1.0
1037.396	1.0	go	0.596	Go_X	1.0
1039.93	1.0	go	0.412	Go_O	1.0
1042.463	1.0	go	0.442	Go_O	1.0
1044.996	1.0	go	0.416	Go_X	1.0
1047.53	0.25	stop	0.356	Go_O	0.0
1050.079	1.0	go	0.584	Go_X	1.0
1052.613	1.0	go	0.525	Go_O	1.0
1055.146	0.2	stop	0.312	Go_X	0.0
1057.679	1.0	go	0.561	Go_O	1.0
1060.213	1.0	go	0.375	Go_X	1.0
1062.746	0.15	stop	0.34	Go_O	0.0
1065.279	1.0	go	0.266	Go_X	1.0
1067.812	1.0	go	0.399	Go_O	1.0
1070.346	1.0	go	0.362	Go_X	0.0
1072.879	1.0	go	0.358	Go_O	1.0
1075.412	0.1	stop	0.0	Go_X	1.0
1077.945	1.0	go	0.496	Go_X	1.0
1080.479	0.15	stop	0.0	Go_O	1.0
1083.012	1.0	go	0.357	Go_O	1.0
1085.545	1.0	go	0.291	Go_X	1.0
1088.079	1.0	go	0.465	Go_O	1.0
1090.612	1.0	go	0.311	Go_O	0.0
1093.145	1.0	go	0.295	Go_X	1.0
1095.678	0.2	stop	0.0	Go_X	1.0
1098.212	1.0	go	0.432	Go_O	1.0
1100.745	1.0	go	0.527	Go_X	1.0
1103.278	0.25	stop	0.449	Go_O	0.0
1105.811	0.2	stop	0.371	Go_X	0.0
1108.345	1.0	go	0.319	Go_O	1.0
1110.878	1.0	go	0.274	Go_X	1.0
1113.411	1.0	go	0.304	Go_X	0.0
1115.945	1.0	go	0.237	Go_O	1.0
1118.478	0.15	stop	0.0	Go_O	1.0
1121.011	1.0	go	0.581	Go_O	1.0
