onset	duration	trial_type	response_time	stim_file	accuracy
41.903	1.0	go	0.935	Go_X	1.0
44.477	1.0	go	0.724	Go_O	1.0
47.001	1.0	go	0.746	Go_O	1.0
49.526	1.0	go	0.455	Go_X	1.0
52.05	1.0	go	0.678	Go_X	1.0
54.574	1.0	go	0.468	Go_O	1.0
57.098	0.25	stopsuccess	0.0	Go_O	1.0
59.622	1.0	go	0.755	Go_O	1.0
62.147	0.3	stopsuccess	0.0	Go_X	1.0
64.671	1.0	go	0.654	Go_X	1.0
67.195	1.0	go	0.779	Go_X	1.0
69.719	1.0	go	0.947	Go_O	1.0
72.244	0.35	stopsuccess	0.0	Go_O	1.0
74.768	1.0	go	0.708	Go_O	1.0
77.292	1.0	go	0.62	Go_X	1.0
79.816	0.4	stopsuccess	0.0	Go_X	1.0
82.34	0.45	stopsuccess	0.0	Go_O	1.0
84.865	1.0	go	0.745	Go_X	1.0
87.389	1.0	go	0.644	Go_O	1.0
89.913	0.5	stopsuccess	0.0	Go_X	1.0
92.437	1.0	go	0.762	Go_O	1.0
94.961	1.0	go	0.726	Go_X	1.0
97.486	0.55	stopsuccess	0.0	Go_O	1.0
100.01	1.0	go	0.862	Go_O	1.0
102.534	1.0	go	0.678	Go_X	1.0
105.058	0.6	stopsuccess	0.0	Go_X	1.0
107.582	1.0	go	0.0	Go_X	0.0
110.107	1.0	go	0.821	Go_O	1.0
112.631	0.65	stopfail	0.784	Go_O	0.0
115.155	1.0	go	0.838	Go_X	1.0
117.679	1.0	go	0.83	Go_O	1.0
120.203	1.0	go	0.0	Go_X	0.0
122.728	1.0	go	0.69	Go_O	1.0
125.252	1.0	go	0.0	Go_O	0.0
127.776	0.6	stopsuccess	0.0	Go_X	1.0
130.3	1.0	go	0.818	Go_X	1.0
132.824	1.0	go	0.604	Go_X	1.0
135.349	1.0	go	0.864	Go_O	1.0
137.873	1.0	go	0.637	Go_O	1.0
140.397	1.0	go	0.94	Go_X	1.0
142.921	0.65	stopsuccess	0.0	Go_O	1.0
145.445	1.0	go	0.671	Go_X	1.0
147.97	1.0	go	0.708	Go_O	1.0
150.494	1.0	go	0.637	Go_X	1.0
153.018	1.0	go	0.711	Go_O	1.0
155.542	1.0	go	0.905	Go_O	1.0
158.066	1.0	go	0.582	Go_X	1.0
160.591	0.7	stopfail	0.596	Go_X	0.0
163.115	1.0	go	0.721	Go_O	1.0
165.639	1.0	go	0.712	Go_X	1.0
168.163	0.65	stopsuccess	0.0	Go_O	1.0
170.687	1.0	go	0.423	Go_X	1.0
173.212	0.7	stopfail	0.765	Go_X	0.0
175.736	0.65	stopfail	0.592	Go_O	0.0
178.26	1.0	go	0.836	Go_O	1.0
180.784	1.0	go	0.952	Go_X	1.0
183.308	1.0	go	0.623	Go_O	1.0
185.833	1.0	go	0.717	Go_O	1.0
188.357	0.6	stopfail	0.792	Go_X	0.0
190.881	1.0	go	0.718	Go_X	1.0
193.405	0.55	stopsuccess	0.0	Go_O	1.0
195.929	1.0	go	0.895	Go_O	1.0
198.454	1.0	go	0.795	Go_X	1.0
200.978	1.0	go	0.829	Go_O	1.0
203.502	1.0	go	0.496	Go_X	1.0
206.026	1.0	go	0.466	Go_X	1.0
208.55	1.0	go	0.307	Go_O	1.0
211.075	1.0	go	0.491	Go_O	1.0
213.599	1.0	go	0.593	Go_X	1.0
216.123	1.0	go	0.498	Go_O	1.0
218.647	0.6	stopfail	0.416	Go_X	0.0
221.171	1.0	go	0.735	Go_X	1.0
223.696	1.0	go	0.381	Go_X	0.0
226.22	1.0	go	0.581	Go_O	1.0
228.744	0.55	stopfail	0.68	Go_O	0.0
231.268	1.0	go	0.602	Go_X	1.0
233.792	1.0	go	0.743	Go_O	1.0
236.317	1.0	go	0.671	Go_X	1.0
238.841	1.0	go	0.436	Go_O	1.0
241.365	1.0	go	0.62	Go_X	1.0
243.889	1.0	go	0.491	Go_O	1.0
246.414	0.5	stopsuccess	0.0	Go_X	1.0
248.938	1.0	go	0.669	Go_X	1.0
251.462	1.0	go	0.445	Go_O	1.0
253.986	0.55	stopfail	0.469	Go_O	0.0
256.51	1.0	go	0.566	Go_O	1.0
259.035	1.0	go	0.873	Go_X	1.0
261.559	0.5	stopfail	0.616	Go_X	0.0
264.083	1.0	go	0.946	Go_O	1.0
266.607	0.45	stopfail	0.589	Go_O	0.0
269.131	1.0	go	0.753	Go_X	1.0
271.656	1.0	go	0.517	Go_O	1.0
274.18	1.0	go	0.499	Go_X	1.0
276.704	1.0	go	0.721	Go_X	1.0
279.228	1.0	go	0.415	Go_O	1.0
281.752	0.4	stopfail	0.48	Go_X	0.0
284.277	0.35	stopfail	0.567	Go_O	0.0
286.801	1.0	go	0.526	Go_X	1.0
289.325	1.0	go	0.485	Go_O	1.0
291.849	0.3	stopsuccess	0.0	Go_X	1.0
294.373	1.0	go	0.496	Go_X	1.0
296.898	1.0	go	0.437	Go_O	1.0
299.422	1.0	go	0.779	Go_X	1.0
301.946	1.0	go	0.414	Go_O	1.0
304.47	1.0	go	0.462	Go_O	1.0
306.994	1.0	go	0.423	Go_X	1.0
309.519	0.35	stopfail	0.442	Go_O	0.0
312.043	1.0	go	0.71	Go_X	1.0
314.567	1.0	go	0.622	Go_O	1.0
317.091	1.0	go	0.457	Go_X	1.0
319.615	1.0	go	0.611	Go_O	1.0
322.14	1.0	go	0.653	Go_O	1.0
324.664	0.3	stopsuccess	0.0	Go_X	1.0
327.188	1.0	go	0.446	Go_X	0.0
329.712	1.0	go	0.472	Go_X	1.0
332.236	1.0	go	0.371	Go_O	1.0
334.761	1.0	go	0.564	Go_X	1.0
337.285	0.35	stopsuccess	0.0	Go_O	1.0
339.809	1.0	go	0.516	Go_O	1.0
342.333	1.0	go	0.45	Go_X	1.0
344.857	0.4	stopfail	0.482	Go_X	0.0
347.382	1.0	go	0.65	Go_O	1.0
349.906	0.35	stopfail	0.757	Go_O	0.0
352.43	1.0	go	0.981	Go_X	1.0
354.954	1.0	go	0.801	Go_O	1.0
357.478	1.0	go	0.764	Go_O	1.0
360.003	1.0	go	0.883	Go_X	1.0
362.527	1.0	go	0.919	Go_O	1.0
365.051	1.0	go	0.386	Go_X	1.0
367.575	1.0	go	0.269	Go_O	1.0
370.099	0.3	stopsuccess	0.0	Go_X	1.0
372.624	1.0	go	0.638	Go_X	1.0
375.148	1.0	go	0.517	Go_O	1.0
377.672	1.0	go	0.491	Go_X	1.0
380.196	0.35	stopsuccess	0.0	Go_O	1.0
382.72	1.0	go	0.774	Go_O	1.0
385.245	1.0	go	0.955	Go_X	1.0
387.769	1.0	go	0.852	Go_X	1.0
390.293	1.0	go	0.746	Go_O	1.0
392.817	0.4	stopsuccess	0.0	Go_X	1.0
395.341	1.0	go	0.694	Go_X	1.0
397.866	1.0	go	0.924	Go_O	1.0
400.39	0.45	stopsuccess	0.0	Go_O	1.0
402.914	1.0	go	0.662	Go_O	1.0
405.438	1.0	go	0.483	Go_X	1.0
407.962	0.5	stopfail	0.661	Go_X	0.0
410.487	1.0	go	0.76	Go_O	1.0
413.011	1.0	go	0.702	Go_X	1.0
415.535	0.45	stopsuccess	0.0	Go_O	1.0
418.059	1.0	go	0.707	Go_X	1.0
420.584	1.0	go	0.573	Go_O	1.0
423.108	1.0	go	0.802	Go_X	1.0
425.632	1.0	go	0.599	Go_O	1.0
428.156	1.0	go	0.632	Go_X	1.0
430.68	1.0	go	0.897	Go_O	1.0
433.205	0.5	stopfail	0.602	Go_X	0.0
435.729	1.0	go	0.455	Go_O	1.0
438.253	0.45	stopsuccess	0.0	Go_O	1.0
440.777	1.0	go	0.607	Go_X	1.0
443.301	1.0	go	0.89	Go_X	1.0
445.826	1.0	go	0.616	Go_O	1.0
448.35	1.0	go	0.455	Go_O	1.0
450.874	1.0	go	0.752	Go_X	0.0
453.398	0.5	stopfail	0.929	Go_X	0.0
455.922	1.0	go	0.581	Go_X	1.0
458.447	1.0	go	0.679	Go_O	1.0
460.971	1.0	go	0.489	Go_O	1.0
463.495	0.45	stopfail	0.414	Go_O	0.0
466.019	0.4	stopsuccess	0.0	Go_X	1.0
468.543	0.45	stopsuccess	0.0	Go_O	1.0
471.068	1.0	go	0.495	Go_X	1.0
473.592	0.5	stopsuccess	0.0	Go_X	1.0
476.116	1.0	go	0.864	Go_X	1.0
478.64	1.0	go	0.499	Go_O	1.0
481.164	1.0	go	0.623	Go_X	1.0
483.689	1.0	go	0.344	Go_O	1.0
486.213	1.0	go	0.285	Go_X	1.0
488.737	1.0	go	0.453	Go_O	1.0
491.261	1.0	go	0.565	Go_O	0.0
493.785	1.0	go	0.617	Go_X	1.0
496.31	0.55	stopfail	0.602	Go_O	0.0
498.834	1.0	go	0.507	Go_X	1.0
501.358	1.0	go	0.441	Go_O	1.0
503.882	0.5	stopfail	0.588	Go_X	0.0
506.406	1.0	go	0.781	Go_O	1.0
508.931	1.0	go	0.751	Go_X	1.0
511.455	1.0	go	0.82	Go_X	1.0
513.979	1.0	go	0.0	Go_O	0.0
516.503	1.0	go	0.577	Go_X	1.0
519.027	0.45	stopfail	0.462	Go_O	0.0
521.552	1.0	go	0.719	Go_O	1.0
524.076	1.0	go	0.547	Go_X	1.0
526.6	1.0	go	0.495	Go_O	1.0
529.124	0.4	stopfail	0.515	Go_X	0.0
531.648	1.0	go	0.434	Go_O	1.0
534.173	0.35	stopsuccess	0.0	Go_O	1.0
536.697	1.0	go	0.454	Go_X	1.0
539.221	1.0	go	0.638	Go_O	1.0
541.745	1.0	go	0.372	Go_X	1.0
544.269	1.0	go	0.681	Go_O	1.0
546.794	1.0	go	0.613	Go_X	1.0
549.318	1.0	go	0.535	Go_O	1.0
551.842	1.0	go	0.376	Go_X	1.0
554.366	0.4	stopfail	0.408	Go_X	0.0
556.89	1.0	go	0.493	Go_X	0.0
559.415	1.0	go	0.326	Go_O	1.0
561.939	1.0	go	0.574	Go_X	1.0
564.463	1.0	go	0.413	Go_O	1.0
566.987	0.35	stopfail	0.607	Go_O	0.0
569.512	1.0	go	0.867	Go_O	1.0
572.036	0.3	stopsuccess	0.0	Go_X	1.0
574.56	1.0	go	0.504	Go_X	0.0
577.084	1.0	go	0.544	Go_X	1.0
579.608	0.35	stopsuccess	0.0	Go_O	1.0
582.133	1.0	go	0.626	Go_O	1.0
584.657	1.0	go	0.872	Go_X	1.0
587.181	1.0	go	0.376	Go_O	1.0
589.705	1.0	go	0.783	Go_O	1.0
592.229	1.0	go	0.765	Go_X	1.0
594.754	1.0	go	0.437	Go_X	1.0
597.278	1.0	go	0.0	Go_O	0.0
599.802	1.0	go	0.0	Go_O	0.0
602.326	1.0	go	0.488	Go_X	1.0
604.85	1.0	go	0.521	Go_X	1.0
607.375	0.4	stopfail	0.473	Go_X	0.0
609.899	1.0	go	0.314	Go_O	1.0
612.423	1.0	go	0.479	Go_O	1.0
614.947	0.35	stopsuccess	0.0	Go_O	1.0
617.471	1.0	go	0.555	Go_X	1.0
619.996	0.4	stopfail	0.499	Go_X	0.0
622.52	1.0	go	0.902	Go_X	1.0
625.044	1.0	go	0.573	Go_O	1.0
627.568	0.35	stopfail	0.522	Go_O	0.0
630.092	1.0	go	0.496	Go_X	1.0
632.617	0.3	stopfail	0.419	Go_X	0.0
635.141	1.0	go	0.72	Go_O	1.0
637.665	1.0	go	0.585	Go_X	1.0
640.189	1.0	go	0.524	Go_O	1.0
642.713	0.25	stopsuccess	0.0	Go_O	1.0
645.238	1.0	go	0.741	Go_O	1.0
647.762	1.0	go	0.422	Go_X	1.0
650.286	1.0	go	0.798	Go_O	1.0
652.81	1.0	go	0.426	Go_X	1.0
655.334	0.3	stopsuccess	0.0	Go_X	1.0
657.859	1.0	go	0.67	Go_X	1.0
660.383	1.0	go	0.448	Go_O	1.0
662.907	0.35	stopfail	0.502	Go_O	0.0
665.431	1.0	go	0.547	Go_X	1.0
667.955	1.0	go	0.77	Go_O	1.0
670.48	1.0	go	0.548	Go_X	1.0
673.004	1.0	go	0.0	Go_O	0.0
675.528	0.3	stopfail	0.701	Go_X	0.0
678.052	1.0	go	0.538	Go_X	1.0
680.576	0.25	stopfail	0.329	Go_O	0.0
683.101	1.0	go	0.509	Go_O	1.0
685.625	1.0	go	0.384	Go_X	0.0
688.149	0.2	stopsuccess	0.0	Go_X	1.0
690.673	1.0	go	0.496	Go_O	1.0
693.197	1.0	go	0.0	Go_X	0.0
695.722	1.0	go	0.361	Go_O	1.0
698.246	1.0	go	0.599	Go_X	1.0
700.77	0.25	stopfail	0.379	Go_O	0.0
703.294	1.0	go	0.539	Go_O	1.0
705.818	0.2	stopsuccess	0.0	Go_X	1.0
708.343	1.0	go	0.0	Go_O	0.0
710.867	1.0	go	0.436	Go_X	1.0
713.391	1.0	go	0.302	Go_O	1.0
715.915	1.0	go	0.865	Go_X	1.0
718.439	1.0	go	0.51	Go_O	1.0
720.964	1.0	go	0.0	Go_X	0.0
723.488	0.25	stopsuccess	0.0	Go_O	1.0
726.012	1.0	go	0.559	Go_O	1.0
728.536	1.0	go	0.435	Go_X	1.0
731.06	0.3	stopsuccess	0.0	Go_X	1.0
733.585	1.0	go	0.407	Go_X	0.0
736.109	1.0	go	0.646	Go_O	1.0
738.633	0.35	stopsuccess	0.0	Go_O	1.0
741.157	1.0	go	0.48	Go_X	1.0
743.682	1.0	go	0.617	Go_O	0.0
746.206	1.0	go	0.508	Go_O	1.0
748.73	1.0	go	0.329	Go_X	0.0
751.254	0.4	stopfail	0.747	Go_X	0.0
753.778	1.0	go	0.482	Go_O	0.0
756.303	0.35	stopsuccess	0.0	Go_O	1.0
758.827	1.0	go	0.494	Go_X	1.0
761.351	1.0	go	0.399	Go_O	0.0
763.875	1.0	go	0.793	Go_X	1.0
766.399	1.0	go	0.588	Go_O	1.0
768.924	1.0	go	0.421	Go_X	1.0
771.448	0.4	stopfail	0.477	Go_X	0.0
773.972	1.0	go	0.801	Go_X	1.0
776.496	1.0	go	0.48	Go_O	1.0
779.02	0.35	stopfail	0.5	Go_O	0.0
781.545	0.3	stopsuccess	0.0	Go_X	1.0
784.069	1.0	go	0.605	Go_O	1.0
786.593	1.0	go	0.702	Go_X	1.0
789.117	1.0	go	0.452	Go_O	1.0
791.641	1.0	go	0.823	Go_X	1.0
794.166	0.35	stopsuccess	0.0	Go_O	1.0
796.69	1.0	go	0.769	Go_O	1.0
