frame	onset	duration	trial_type	event_type	response_type	response_time	stim_file	accuracy
0	74.213		control-noreward	ImageDisplay1		0.0		
0	76.447	0.75	control-noreward	StartDisplay				
0	77.196		control-noreward	ImageDisplay2		0.0		
0	80.196	1.6	control-noreward	ChoiceDisplay	1	0.94	1	1
0	81.163	0.66	control-noreward	ChosenDisplay		0.0		
0	81.796	0.25	control-noreward	TurnDisplay				
0	82.046	0.75	control-noreward	OutcomeDisplay				
1	82.796		win-reward	ImageDisplay1		0.0		
1	84.796	0.75	win-reward	StartDisplay				
1	85.546		win-reward	ImageDisplay2		0.0		
1	88.796	1.6	win-reward	ChoiceDisplay	1	1.593	1	1
1	90.396	0.0	win-reward	ChosenDisplay		0.0		
1	90.413	0.25	win-reward	TurnDisplay				
1	90.646	0.75	win-reward	OutcomeDisplay				
2	91.396		control-noreward	ImageDisplay1		0.0		
2	93.646	0.75	control-noreward	StartDisplay				
2	94.396		control-noreward	ImageDisplay2		0.0		
2	97.396	1.6	control-noreward	ChoiceDisplay	1	0.603	1	1
2	98.013	0.997	control-noreward	ChosenDisplay		0.0		
2	98.996	0.25	control-noreward	TurnDisplay				
2	99.246	0.75	control-noreward	OutcomeDisplay				
3	99.996		loss-reward	ImageDisplay1		0.0		
3	101.996	0.75	loss-reward	StartDisplay				
3	102.746		loss-reward	ImageDisplay2		0.0		
3	105.996	1.6	loss-reward	ChoiceDisplay	1	0.302	1	1
3	106.312	1.298	loss-reward	ChosenDisplay		0.0		
3	107.596	0.25	loss-reward	TurnDisplay				
3	107.846	0.75	loss-reward	OutcomeDisplay				
4	108.596		control-noreward	ImageDisplay1		0.0		
4	110.596	0.75	control-noreward	StartDisplay				
4	111.346		control-noreward	ImageDisplay2		0.0		
4	114.596	1.6	control-noreward	ChoiceDisplay	1	0.554	1	1
4	115.162	1.046	control-noreward	ChosenDisplay		0.0		
4	116.196	0.25	control-noreward	TurnDisplay				
4	116.446	0.75	control-noreward	OutcomeDisplay				
5	117.196		win-noreward	ImageDisplay1		0.0		
5	119.195	0.75	win-noreward	StartDisplay				
5	119.945		win-noreward	ImageDisplay2		0.0		
5	123.195	1.6	win-noreward	ChoiceDisplay	1	0.741	1	1
5	123.962	0.859	win-noreward	ChosenDisplay		0.0		
5	124.795	0.25	win-noreward	TurnDisplay				
5	125.045	0.75	win-noreward	OutcomeDisplay				
6	125.795		loss-reward	ImageDisplay1		0.0		
6	128.045	0.75	loss-reward	StartDisplay				
6	128.795		loss-reward	ImageDisplay2		0.0		
6	131.795	1.6	loss-reward	ChoiceDisplay	1	0.972	1	1
6	132.779	0.628	loss-reward	ChosenDisplay		0.0		
6	133.395	0.25	loss-reward	TurnDisplay				
6	133.645	0.75	loss-reward	OutcomeDisplay				
7	134.395		control-reward	ImageDisplay1		0.0		
7	136.645	0.75	control-reward	StartDisplay				
7	137.395		control-reward	ImageDisplay2		0.0		
7	140.395	1.6	control-reward	ChoiceDisplay	1	0.795	1	1
7	141.212	0.805	control-reward	ChosenDisplay		0.0		
7	141.995	0.25	control-reward	TurnDisplay				
7	142.245	0.75	control-reward	OutcomeDisplay				
8	142.995		win-reward	ImageDisplay1		0.0		
8	145.245	0.75	win-reward	StartDisplay				
8	145.995		win-reward	ImageDisplay2		0.0		
8	148.995	1.6	win-reward	ChoiceDisplay	1	0.764	1	1
8	149.778	0.836	win-reward	ChosenDisplay		0.0		
8	150.595	0.25	win-reward	TurnDisplay				
8	150.845	0.75	win-reward	OutcomeDisplay				
9	151.595		loss-reward	ImageDisplay1		0.0		
9	153.845	0.75	loss-reward	StartDisplay				
9	154.595		loss-reward	ImageDisplay2		0.0		
9	157.595	1.6	loss-reward	ChoiceDisplay	1	0.856	1	1
9	158.478	0.744	loss-reward	ChosenDisplay		0.0		
9	159.195	0.25	loss-reward	TurnDisplay				
9	159.445	0.75	loss-reward	OutcomeDisplay				
10	160.195		win-reward	ImageDisplay1		0.0		
10	162.195	0.75	win-reward	StartDisplay				
10	162.944		win-reward	ImageDisplay2		0.0		
10	166.194	1.6	win-reward	ChoiceDisplay	1	0.308	1	1
10	166.528	1.292	win-reward	ChosenDisplay		0.0		
10	167.794	0.25	win-reward	TurnDisplay				
10	168.044	0.75	win-reward	OutcomeDisplay				
11	168.794		win-reward	ImageDisplay1		0.0		
11	171.044	0.75	win-reward	StartDisplay				
11	171.794		win-reward	ImageDisplay2		0.0		
11	174.794	1.6	win-reward	ChoiceDisplay	1	0.466	1	1
11	175.278	1.134	win-reward	ChosenDisplay		0.0		
11	176.394	0.25	win-reward	TurnDisplay				
11	176.644	0.75	win-reward	OutcomeDisplay				
12	177.394		loss-reward	ImageDisplay1		0.0		
12	179.394	0.75	loss-reward	StartDisplay				
12	180.144		loss-reward	ImageDisplay2		0.0		
12	183.394	1.6	loss-reward	ChoiceDisplay	1	0.294	1	1
12	183.711	1.306	loss-reward	ChosenDisplay		0.0		
12	184.994	0.25	loss-reward	TurnDisplay				
12	185.244	0.75	loss-reward	OutcomeDisplay				
13	185.994		win-reward	ImageDisplay1		0.0		
13	187.994	0.75	win-reward	StartDisplay				
13	188.744		win-reward	ImageDisplay2		0.0		
13	191.994	1.6	win-reward	ChoiceDisplay	1	0.624	1	1
13	192.644	0.976	win-reward	ChosenDisplay		0.0		
13	193.594	0.25	win-reward	TurnDisplay				
13	193.844	0.75	win-reward	OutcomeDisplay				
14	194.594		control-reward	ImageDisplay1		0.0		
14	196.844	0.75	control-reward	StartDisplay				
14	197.594		control-reward	ImageDisplay2		0.0		
14	200.594	1.6	control-reward	ChoiceDisplay	1	0.463	1	1
14	201.077	1.137	control-reward	ChosenDisplay		0.0		
14	202.194	0.25	control-reward	TurnDisplay				
14	202.444	0.75	control-reward	OutcomeDisplay				
15	203.194		win-reward	ImageDisplay1		0.0		
15	205.444	0.75	win-reward	StartDisplay				
15	206.193		win-reward	ImageDisplay2		0.0		
15	209.193	1.6	win-reward	ChoiceDisplay	1	0.63	1	1
15	209.843	0.97	win-reward	ChosenDisplay		0.0		
15	210.793	0.25	win-reward	TurnDisplay				
15	211.043	0.75	win-reward	OutcomeDisplay				
16	211.793		control-reward	ImageDisplay1		0.0		
16	214.043	0.75	control-reward	StartDisplay				
16	214.793		control-reward	ImageDisplay2		0.0		
16	217.793	1.6	control-reward	ChoiceDisplay	1	0.52	1	1
16	218.327	1.08	control-reward	ChosenDisplay		0.0		
16	219.393	0.25	control-reward	TurnDisplay				
16	219.643	0.75	control-reward	OutcomeDisplay				
17	220.393		win-reward	ImageDisplay1		0.0		
17	222.393	0.75	win-reward	StartDisplay				
17	223.143		win-reward	ImageDisplay2		0.0		
17	226.393	1.6	win-reward	ChoiceDisplay	1	0.614	1	1
17	227.026	0.986	win-reward	ChosenDisplay		0.0		
17	227.993	0.25	win-reward	TurnDisplay				
17	228.243	0.75	win-reward	OutcomeDisplay				
18	228.993		win-reward	ImageDisplay1		0.0		
18	230.993	0.75	win-reward	StartDisplay				
18	231.743		win-reward	ImageDisplay2		0.0		
18	234.993	1.6	win-reward	ChoiceDisplay	1	0.876	1	1
18	235.893	0.724	win-reward	ChosenDisplay		0.0		
18	236.593	0.25	win-reward	TurnDisplay				
18	236.843	0.75	win-reward	OutcomeDisplay				
19	237.593		control-noreward	ImageDisplay1		0.0		
19	239.593	0.75	control-noreward	StartDisplay				
19	240.343		control-noreward	ImageDisplay2		0.0		
19	243.593	1.6	control-noreward	ChoiceDisplay	1	0.811	1	1
19	244.426	0.789	control-noreward	ChosenDisplay		0.0		
19	245.193	0.25	control-noreward	TurnDisplay				
19	245.443	0.75	control-noreward	OutcomeDisplay				
20	246.193		win-reward	ImageDisplay1		0.0		
20	248.192	0.75	win-reward	StartDisplay				
20	248.942		win-reward	ImageDisplay2		0.0		
20	252.192	1.6	win-reward	ChoiceDisplay	1	0.635	1	1
20	252.842	0.965	win-reward	ChosenDisplay		0.0		
20	253.792	0.25	win-reward	TurnDisplay				
20	254.042	0.75	win-reward	OutcomeDisplay				
21	254.792		loss-reward	ImageDisplay1		0.0		
21	257.042	0.75	loss-reward	StartDisplay				
21	257.792		loss-reward	ImageDisplay2		0.0		
21	260.792	1.6	loss-reward	ChoiceDisplay	1	0.31	1	1
21	261.126	1.29	loss-reward	ChosenDisplay		0.0		
21	262.392	0.25	loss-reward	TurnDisplay				
21	262.642	0.75	loss-reward	OutcomeDisplay				
22	263.392		control-noreward	ImageDisplay1		0.0		
22	265.392	0.75	control-noreward	StartDisplay				
22	266.142		control-noreward	ImageDisplay2		0.0		
22	269.392	1.6	control-noreward	ChoiceDisplay	1	0.484	1	1
22	269.892	1.116	control-noreward	ChosenDisplay		0.0		
22	270.992	0.25	control-noreward	TurnDisplay				
22	271.242	0.75	control-noreward	OutcomeDisplay				
23	271.992		control-noreward	ImageDisplay1		0.0		
23	273.992	0.75	control-noreward	StartDisplay				
23	274.742		control-noreward	ImageDisplay2		0.0		
23	277.992	1.6	control-noreward	ChoiceDisplay	1	0.675	1	1
23	278.692	0.925	control-noreward	ChosenDisplay		0.0		
23	279.592	0.25	control-noreward	TurnDisplay				
23	279.842	0.75	control-noreward	OutcomeDisplay				
24	280.592		win-reward	ImageDisplay1		0.0		
24	282.592	0.75	win-reward	StartDisplay				
24	283.342		win-reward	ImageDisplay2		0.0		
24	286.592	1.6	win-reward	ChoiceDisplay		0.0		
24	288.192	0.0	win-reward	ChosenDisplay		0.0		
24	288.208	0.25	win-reward	TurnDisplay				
24	288.442	0.75	win-reward	OutcomeDisplay				
25	289.192		win-noreward	ImageDisplay1		0.0		
25	291.441	0.75	win-noreward	StartDisplay				
25	292.191		win-noreward	ImageDisplay2		0.0		
25	295.191	1.6	win-noreward	ChoiceDisplay	1	0.45	1	1
25	295.658	1.15	win-noreward	ChosenDisplay		0.0		
25	296.791	0.25	win-noreward	TurnDisplay				
25	297.041	0.75	win-noreward	OutcomeDisplay				
26	297.791		loss-noreward	ImageDisplay1		0.0		
26	299.791	0.75	loss-noreward	StartDisplay				
26	300.541		loss-noreward	ImageDisplay2		0.0		
26	303.791	1.6	loss-noreward	ChoiceDisplay	1	1.104	1	1
26	304.908	0.496	loss-noreward	ChosenDisplay		0.0		
26	305.391	0.25	loss-noreward	TurnDisplay				
26	305.641	0.75	loss-noreward	OutcomeDisplay				
27	306.391		control-reward	ImageDisplay1		0.0		
27	308.391	0.75	control-reward	StartDisplay				
27	309.141		control-reward	ImageDisplay2		0.0		
27	312.391	1.6	control-reward	ChoiceDisplay	1	0.5	1	1
27	312.908	1.1	control-reward	ChosenDisplay		0.0		
27	313.991	0.25	control-reward	TurnDisplay				
27	314.241	0.75	control-reward	OutcomeDisplay				
28	314.991		win-noreward	ImageDisplay1		0.0		
28	317.241	0.75	win-noreward	StartDisplay				
28	317.991		win-noreward	ImageDisplay2		0.0		
28	320.991	1.6	win-noreward	ChoiceDisplay	1	0.523	1	1
28	321.541	1.077	win-noreward	ChosenDisplay		0.0		
28	322.591	0.25	win-noreward	TurnDisplay				
28	322.841	0.75	win-noreward	OutcomeDisplay				
29	323.591		win-noreward	ImageDisplay1		0.0		
29	325.591	0.75	win-noreward	StartDisplay				
29	326.341		win-noreward	ImageDisplay2		0.0		
29	329.591	1.6	win-noreward	ChoiceDisplay	1	0.606	1	1
29	330.224	0.994	win-noreward	ChosenDisplay		0.0		
29	331.191	0.25	win-noreward	TurnDisplay				
29	331.441	0.75	win-noreward	OutcomeDisplay				
30	332.191		win-noreward	ImageDisplay1		0.0		
30	334.191	0.75	win-noreward	StartDisplay				
30	334.941		win-noreward	ImageDisplay2		0.0		
30	338.19	1.6	win-noreward	ChoiceDisplay	1	0.447	1	1
30	338.657	1.153	win-noreward	ChosenDisplay		0.0		
30	339.79	0.25	win-noreward	TurnDisplay				
30	340.04	0.75	win-noreward	OutcomeDisplay				
31	340.79		win-reward	ImageDisplay1		0.0		
31	343.04	0.75	win-reward	StartDisplay				
31	343.79		win-reward	ImageDisplay2		0.0		
31	346.79	1.6	win-reward	ChoiceDisplay	1	0.376	1	1
31	347.19	1.224	win-reward	ChosenDisplay		0.0		
31	348.39	0.25	win-reward	TurnDisplay				
31	348.64	0.75	win-reward	OutcomeDisplay				
32	349.39		win-reward	ImageDisplay1		0.0		
32	351.64	0.75	win-reward	StartDisplay				
32	352.39		win-reward	ImageDisplay2		0.0		
32	355.39	1.6	win-reward	ChoiceDisplay	1	0.58	1	1
32	355.99	1.02	win-reward	ChosenDisplay		0.0		
32	356.99	0.25	win-reward	TurnDisplay				
32	357.24	0.75	win-reward	OutcomeDisplay				
33	357.99		control-reward	ImageDisplay1		0.0		
33	359.99	0.75	control-reward	StartDisplay				
33	360.74		control-reward	ImageDisplay2		0.0		
33	363.99	1.6	control-reward	ChoiceDisplay	1	0.534	1	1
33	364.54	1.066	control-reward	ChosenDisplay		0.0		
33	365.59	0.25	control-reward	TurnDisplay				
33	365.84	0.75	control-reward	OutcomeDisplay				
34	366.59		loss-reward	ImageDisplay1		0.0		
34	368.59	0.75	loss-reward	StartDisplay				
34	369.34		loss-reward	ImageDisplay2		0.0		
34	372.59	1.6	loss-reward	ChoiceDisplay	1	0.567	1	1
34	373.173	1.033	loss-reward	ChosenDisplay		0.0		
34	374.19	0.25	loss-reward	TurnDisplay				
34	374.44	0.75	loss-reward	OutcomeDisplay				
35	375.19		loss-reward	ImageDisplay1		0.0		
35	377.44	0.75	loss-reward	StartDisplay				
35	378.189		loss-reward	ImageDisplay2		0.0		
35	381.189	1.6	loss-reward	ChoiceDisplay	1	0.569	1	1
35	381.773	1.031	loss-reward	ChosenDisplay		0.0		
35	382.789	0.25	loss-reward	TurnDisplay				
35	383.039	0.75	loss-reward	OutcomeDisplay				
36	383.789		control-reward	ImageDisplay1		0.0		
36	385.789	0.75	control-reward	StartDisplay				
36	386.539		control-reward	ImageDisplay2		0.0		
36	389.789	1.6	control-reward	ChoiceDisplay	1	0.574	1	1
36	390.389	1.026	control-reward	ChosenDisplay		0.0		
36	391.389	0.25	control-reward	TurnDisplay				
36	391.639	0.75	control-reward	OutcomeDisplay				
37	392.389		control-noreward	ImageDisplay1		0.0		
37	394.639	0.75	control-noreward	StartDisplay				
37	395.389		control-noreward	ImageDisplay2		0.0		
37	398.389	1.6	control-noreward	ChoiceDisplay	1	0.725	1	1
37	399.139	0.875	control-noreward	ChosenDisplay		0.0		
37	399.989	0.25	control-noreward	TurnDisplay				
37	400.239	0.75	control-noreward	OutcomeDisplay				
38	400.989		win-reward	ImageDisplay1		0.0		
38	403.239	0.75	win-reward	StartDisplay				
38	403.989		win-reward	ImageDisplay2		0.0		
38	406.989	1.6	win-reward	ChoiceDisplay	1	0.428	1	1
38	407.439	1.172	win-reward	ChosenDisplay		0.0		
38	408.589	0.25	win-reward	TurnDisplay				
38	408.839	0.75	win-reward	OutcomeDisplay				
39	409.589		control-noreward	ImageDisplay1		0.0		
39	411.839	0.75	control-noreward	StartDisplay				
39	412.589		control-noreward	ImageDisplay2		0.0		
39	415.589	1.6	control-noreward	ChoiceDisplay	1	0.749	1	1
39	416.355	0.851	control-noreward	ChosenDisplay		0.0		
39	417.189	0.25	control-noreward	TurnDisplay				
39	417.439	0.75	control-noreward	OutcomeDisplay				
40	418.189		loss-noreward	ImageDisplay1		0.0		
40	420.189	0.75	loss-noreward	StartDisplay				
40	420.938		loss-noreward	ImageDisplay2		0.0		
40	424.188	1.6	loss-noreward	ChoiceDisplay	1	0.675	1	1
40	424.888	0.925	loss-noreward	ChosenDisplay		0.0		
40	425.788	0.25	loss-noreward	TurnDisplay				
40	426.038	0.75	loss-noreward	OutcomeDisplay				
41	426.788		win-noreward	ImageDisplay1		0.0		
41	428.788	0.75	win-noreward	StartDisplay				
41	429.538		win-noreward	ImageDisplay2		0.0		
41	432.788	1.6	win-noreward	ChoiceDisplay	1	0.803	1	1
41	433.605	0.797	win-noreward	ChosenDisplay		0.0		
41	434.388	0.25	win-noreward	TurnDisplay				
41	434.638	0.75	win-noreward	OutcomeDisplay				
42	435.388		control-reward	ImageDisplay1		0.0		
42	437.388	0.75	control-reward	StartDisplay				
42	438.138		control-reward	ImageDisplay2		0.0		
42	441.388	1.6	control-reward	ChoiceDisplay	1	0.899	1	1
42	442.305	0.701	control-reward	ChosenDisplay		0.0		
42	442.988	0.25	control-reward	TurnDisplay				
42	443.238	0.75	control-reward	OutcomeDisplay				
43	443.988		control-reward	ImageDisplay1		0.0		
43	446.238	0.75	control-reward	StartDisplay				
43	446.988		control-reward	ImageDisplay2		0.0		
43	449.988	1.6	control-reward	ChoiceDisplay	1	0.608	1	1
43	450.621	0.992	control-reward	ChosenDisplay		0.0		
43	451.588	0.25	control-reward	TurnDisplay				
43	451.838	0.75	control-reward	OutcomeDisplay				
44	452.588		win-noreward	ImageDisplay1		0.0		
44	454.588	0.75	win-noreward	StartDisplay				
44	455.338		win-noreward	ImageDisplay2		0.0		
44	458.588	1.6	win-noreward	ChoiceDisplay	1	0.573	1	1
44	459.188	1.027	win-noreward	ChosenDisplay		0.0		
44	460.188	0.25	win-noreward	TurnDisplay				
44	460.438	0.75	win-noreward	OutcomeDisplay				
45	461.188		loss-noreward	ImageDisplay1		0.0		
45	463.188	0.75	loss-noreward	StartDisplay				
45	463.937		loss-noreward	ImageDisplay2		0.0		
45	467.187	1.6	loss-noreward	ChoiceDisplay		0.0		
45	468.787	0.0	loss-noreward	ChosenDisplay		0.0		
45	468.804	0.25	loss-noreward	TurnDisplay				
45	469.037	0.75	loss-noreward	OutcomeDisplay				
46	469.787		loss-reward	ImageDisplay1		0.0		
46	471.787	0.75	loss-reward	StartDisplay				
46	472.537		loss-reward	ImageDisplay2		0.0		
46	475.787	1.6	loss-reward	ChoiceDisplay	1	0.507	1	1
46	476.321	1.093	loss-reward	ChosenDisplay		0.0		
46	477.387	0.25	loss-reward	TurnDisplay				
46	477.637	0.75	loss-reward	OutcomeDisplay				
47	478.387		control-reward	ImageDisplay1		0.0		
47	480.637	0.75	control-reward	StartDisplay				
47	481.387		control-reward	ImageDisplay2		0.0		
47	484.387	1.6	control-reward	ChoiceDisplay	1	0.577	1	1
47	484.987	1.023	control-reward	ChosenDisplay		0.0		
47	485.987	0.25	control-reward	TurnDisplay				
47	486.237	0.75	control-reward	OutcomeDisplay				
48	486.987		win-noreward	ImageDisplay1		0.0		
48	489.237	0.75	win-noreward	StartDisplay				
48	489.987		win-noreward	ImageDisplay2		0.0		
48	492.987	1.6	win-noreward	ChoiceDisplay	1	0.849	1	1
48	493.853	0.751	win-noreward	ChosenDisplay		0.0		
48	494.587	0.25	win-noreward	TurnDisplay				
48	494.837	0.75	win-noreward	OutcomeDisplay				
49	495.587		win-noreward	ImageDisplay1		0.0		
49	497.587	0.75	win-noreward	StartDisplay				
49	498.337		win-noreward	ImageDisplay2		0.0		
49	501.587	1.6	win-noreward	ChoiceDisplay	1	0.642	1	1
49	502.253	0.958	win-noreward	ChosenDisplay		0.0		
49	503.187	0.25	win-noreward	TurnDisplay				
49	503.437	0.75	win-noreward	OutcomeDisplay				
50	504.187		loss-reward	ImageDisplay1		0.0		
50	506.437	0.75	loss-reward	StartDisplay				
50	507.186		loss-reward	ImageDisplay2		0.0		
50	510.186	1.6	loss-reward	ChoiceDisplay	1	0.716	1	1
50	510.92	0.884	loss-reward	ChosenDisplay		0.0		
50	511.786	0.25	loss-reward	TurnDisplay				
50	512.036	0.75	loss-reward	OutcomeDisplay				
51	512.786		loss-reward	ImageDisplay1		0.0		
51	514.786	0.75	loss-reward	StartDisplay				
51	515.536		loss-reward	ImageDisplay2		0.0		
51	518.786	1.6	loss-reward	ChoiceDisplay	1	0.816	1	1
51	519.62	0.784	loss-reward	ChosenDisplay		0.0		
51	520.386	0.25	loss-reward	TurnDisplay				
51	520.636	0.75	loss-reward	OutcomeDisplay				
52	521.386		win-reward	ImageDisplay1		0.0		
52	523.636	0.75	win-reward	StartDisplay				
52	524.386		win-reward	ImageDisplay2		0.0		
52	527.386	1.6	win-reward	ChoiceDisplay	1	0.495	1	1
52	527.903	1.105	win-reward	ChosenDisplay		0.0		
52	528.986	0.25	win-reward	TurnDisplay				
52	529.236	0.75	win-reward	OutcomeDisplay				
53	529.986		loss-reward	ImageDisplay1		0.0		
53	532.236	0.75	loss-reward	StartDisplay				
53	532.986		loss-reward	ImageDisplay2		0.0		
53	535.986	1.6	loss-reward	ChoiceDisplay	1	0.778	1	1
53	536.786	0.822	loss-reward	ChosenDisplay		0.0		
53	537.586	0.25	loss-reward	TurnDisplay				
53	537.836	0.75	loss-reward	OutcomeDisplay				
54	538.586		control-noreward	ImageDisplay1		0.0		
54	540.836	0.75	control-noreward	StartDisplay				
54	541.586		control-noreward	ImageDisplay2		0.0		
54	544.586	1.6	control-noreward	ChoiceDisplay	1	0.853	1	1
54	545.452	0.747	control-noreward	ChosenDisplay		0.0		
54	546.186	0.25	control-noreward	TurnDisplay				
54	546.436	0.75	control-noreward	OutcomeDisplay				
55	547.186		control-reward	ImageDisplay1		0.0		
55	549.435	0.75	control-reward	StartDisplay				
55	550.185		control-reward	ImageDisplay2		0.0		
55	553.185	1.6	control-reward	ChoiceDisplay	1	1.515	1	1
55	554.719	0.0	control-reward	ChosenDisplay		0.0		
55	554.802	0.25	control-reward	TurnDisplay				
55	554.952	0.75	control-reward	OutcomeDisplay				
56	555.702		loss-reward	ImageDisplay1		0.0		
56	557.702	0.75	loss-reward	StartDisplay				
56	558.452		loss-reward	ImageDisplay2		0.0		
56	561.702	1.6	loss-reward	ChoiceDisplay	1	0.418	1	1
56	562.135	1.182	loss-reward	ChosenDisplay		0.0		
56	563.302	0.25	loss-reward	TurnDisplay				
56	563.552	0.75	loss-reward	OutcomeDisplay				
57	564.302		win-reward	ImageDisplay1		0.0		
57	566.552	0.75	win-reward	StartDisplay				
57	567.302		win-reward	ImageDisplay2		0.0		
57	570.302	1.6	win-reward	ChoiceDisplay	1	0.748	1	1
57	571.068	0.852	win-reward	ChosenDisplay		0.0		
57	571.902	0.25	win-reward	TurnDisplay				
57	572.152	0.75	win-reward	OutcomeDisplay				
58	572.902		loss-reward	ImageDisplay1		0.0		
58	574.902	0.75	loss-reward	StartDisplay				
58	575.652		loss-reward	ImageDisplay2		0.0		
58	578.901	1.6	loss-reward	ChoiceDisplay	1	1.088	1	1
58	580.001	0.512	loss-reward	ChosenDisplay		0.0		
58	580.501	0.25	loss-reward	TurnDisplay				
58	580.751	0.75	loss-reward	OutcomeDisplay				
59	581.501		loss-noreward	ImageDisplay1		0.0		
59	583.751	0.75	loss-noreward	StartDisplay				
59	584.501		loss-noreward	ImageDisplay2		0.0		
59	587.501	1.6	loss-noreward	ChoiceDisplay		0.0		
59	589.101	0.0	loss-noreward	ChosenDisplay		0.0		
59	589.118	0.25	loss-noreward	TurnDisplay				
59	589.351	0.75	loss-noreward	OutcomeDisplay				
60	590.101		loss-reward	ImageDisplay1		0.0		
60	592.351	0.75	loss-reward	StartDisplay				
60	593.101		loss-reward	ImageDisplay2		0.0		
60	596.101	1.6	loss-reward	ChoiceDisplay	1	0.912	1	1
60	597.034	0.688	loss-reward	ChosenDisplay		0.0		
60	597.701	0.25	loss-reward	TurnDisplay				
60	597.951	0.75	loss-reward	OutcomeDisplay				
61	598.701		loss-reward	ImageDisplay1		0.0		
61	600.951	0.75	loss-reward	StartDisplay				
61	601.701		loss-reward	ImageDisplay2		0.0		
61	604.701	1.6	loss-reward	ChoiceDisplay	1	0.498	1	1
61	605.218	1.102	loss-reward	ChosenDisplay		0.0		
61	606.301	0.25	loss-reward	TurnDisplay				
61	606.551	0.75	loss-reward	OutcomeDisplay				
62	607.301		loss-noreward	ImageDisplay1		0.0		
62	609.301	0.75	loss-noreward	StartDisplay				
62	610.051		loss-noreward	ImageDisplay2		0.0		
62	613.301	1.6	loss-noreward	ChoiceDisplay	1	0.482	1	1
62	613.801	1.118	loss-noreward	ChosenDisplay		0.0		
62	614.901	0.25	loss-noreward	TurnDisplay				
62	615.151	0.75	loss-noreward	OutcomeDisplay				
63	615.901		loss-reward	ImageDisplay1		0.0		
63	617.901	0.75	loss-reward	StartDisplay				
63	618.651		loss-reward	ImageDisplay2		0.0		
63	621.9	1.6	loss-reward	ChoiceDisplay	1	0.86	1	1
63	622.784	0.74	loss-reward	ChosenDisplay		0.0		
63	623.5	0.25	loss-reward	TurnDisplay				
63	623.75	0.75	loss-reward	OutcomeDisplay				
64	624.5		loss-noreward	ImageDisplay1		0.0		
64	626.75	0.75	loss-noreward	StartDisplay				
64	627.5		loss-noreward	ImageDisplay2		0.0		
64	630.5	1.6	loss-noreward	ChoiceDisplay	1	0.676	1	1
64	631.2	0.924	loss-noreward	ChosenDisplay		0.0		
64	632.1	0.25	loss-noreward	TurnDisplay				
64	632.35	0.75	loss-noreward	OutcomeDisplay				
65	633.1		loss-noreward	ImageDisplay1		0.0		
65	635.1	0.75	loss-noreward	StartDisplay				
65	635.85		loss-noreward	ImageDisplay2		0.0		
65	639.1	1.6	loss-noreward	ChoiceDisplay		0.0		
65	640.7	0.0	loss-noreward	ChosenDisplay		0.0		
65	640.717	0.25	loss-noreward	TurnDisplay				
65	640.95	0.75	loss-noreward	OutcomeDisplay				
66	641.7		loss-noreward	ImageDisplay1		0.0		
66	643.95	0.75	loss-noreward	StartDisplay				
66	644.7		loss-noreward	ImageDisplay2		0.0		
66	647.7	1.6	loss-noreward	ChoiceDisplay		0.0		
66	649.3	0.0	loss-noreward	ChosenDisplay		0.0		
66	649.317	0.25	loss-noreward	TurnDisplay				
66	649.55	0.75	loss-noreward	OutcomeDisplay				
67	650.3		control-reward	ImageDisplay1		0.0		
67	652.3	0.75	control-reward	StartDisplay				
67	653.05		control-reward	ImageDisplay2		0.0		
67	656.3	1.6	control-reward	ChoiceDisplay	1	0.897	1	1
67	657.216	0.703	control-reward	ChosenDisplay		0.0		
67	657.9	0.25	control-reward	TurnDisplay				
67	658.15	0.75	control-reward	OutcomeDisplay				
68	658.9		win-noreward	ImageDisplay1		0.0		
68	661.15	0.75	win-noreward	StartDisplay				
68	661.9		win-noreward	ImageDisplay2		0.0		
68	664.899	1.6	win-noreward	ChoiceDisplay	1	0.503	1	1
68	665.416	1.097	win-noreward	ChosenDisplay		0.0		
68	666.499	0.25	win-noreward	TurnDisplay				
68	666.749	0.75	win-noreward	OutcomeDisplay				
69	667.499		control-noreward	ImageDisplay1		0.0		
69	669.499	0.75	control-noreward	StartDisplay				
69	670.249		control-noreward	ImageDisplay2		0.0		
69	673.499	1.6	control-noreward	ChoiceDisplay		0.0		
69	675.099	0.0	control-noreward	ChosenDisplay		0.0		
69	675.116	0.25	control-noreward	TurnDisplay				
69	675.349	0.75	control-noreward	OutcomeDisplay				
70	676.099		control-noreward	ImageDisplay1		0.0		
70	678.099	0.75	control-noreward	StartDisplay				
70	678.849		control-noreward	ImageDisplay2		0.0		
70	682.099	1.6	control-noreward	ChoiceDisplay		0.0		
70	683.699	0.0	control-noreward	ChosenDisplay		0.0		
70	683.716	0.25	control-noreward	TurnDisplay				
70	683.949	0.75	control-noreward	OutcomeDisplay				
71	684.699		loss-noreward	ImageDisplay1		0.0		
71	686.699	0.75	loss-noreward	StartDisplay				
71	687.449		loss-noreward	ImageDisplay2		0.0		
71	690.699	1.6	loss-noreward	ChoiceDisplay		0.0		
71	692.299	0.0	loss-noreward	ChosenDisplay		0.0		
71	692.315	0.25	loss-noreward	TurnDisplay				
71	692.549	0.75	loss-noreward	OutcomeDisplay				
72	693.299		win-reward	ImageDisplay1		0.0		
72	695.549	0.75	win-reward	StartDisplay				
72	696.299		win-reward	ImageDisplay2		0.0		
72	699.299	1.6	win-reward	ChoiceDisplay	1	0.656	1	1
72	699.982	0.944	win-reward	ChosenDisplay		0.0		
72	700.899	0.25	win-reward	TurnDisplay				
72	701.149	0.75	win-reward	OutcomeDisplay				
73	701.899		win-noreward	ImageDisplay1		0.0		
73	704.149	0.75	win-noreward	StartDisplay				
73	704.899		win-noreward	ImageDisplay2		0.0		
73	707.898	1.6	win-noreward	ChoiceDisplay	1	0.675	1	1
73	708.598	0.925	win-noreward	ChosenDisplay		0.0		
73	709.498	0.25	win-noreward	TurnDisplay				
73	709.748	0.75	win-noreward	OutcomeDisplay				
74	710.498		loss-noreward	ImageDisplay1		0.0		
74	712.748	0.75	loss-noreward	StartDisplay				
74	713.498		loss-noreward	ImageDisplay2		0.0		
74	716.498	1.6	loss-noreward	ChoiceDisplay		0.0		
74	718.098	0.0	loss-noreward	ChosenDisplay		0.0		
74	718.115	0.25	loss-noreward	TurnDisplay				
74	718.348	0.75	loss-noreward	OutcomeDisplay				
75	719.098		loss-reward	ImageDisplay1		0.0		
75	721.348	0.75	loss-reward	StartDisplay				
75	722.098		loss-reward	ImageDisplay2		0.0		
75	725.098	1.6	loss-reward	ChoiceDisplay	1	0.741	1	1
75	725.865	0.859	loss-reward	ChosenDisplay		0.0		
75	726.698	0.25	loss-reward	TurnDisplay				
75	726.948	0.75	loss-reward	OutcomeDisplay				
76	727.698		loss-noreward	ImageDisplay1		0.0		
76	729.948	0.75	loss-noreward	StartDisplay				
76	730.698		loss-noreward	ImageDisplay2		0.0		
76	733.698	1.6	loss-noreward	ChoiceDisplay	1	0.579	1	1
76	734.298	1.021	loss-noreward	ChosenDisplay		0.0		
76	735.298	0.25	loss-noreward	TurnDisplay				
76	735.548	0.75	loss-noreward	OutcomeDisplay				
77	736.298		control-reward	ImageDisplay1		0.0		
77	738.298	0.75	control-reward	StartDisplay				
77	739.048		control-reward	ImageDisplay2		0.0		
77	742.298	1.6	control-reward	ChoiceDisplay		0.0		
77	743.898	0.0	control-reward	ChosenDisplay		0.0		
77	743.914	0.25	control-reward	TurnDisplay				
77	744.148	0.75	control-reward	OutcomeDisplay				
78	744.898		win-reward	ImageDisplay1		0.0		
78	746.898	0.75	win-reward	StartDisplay				
78	747.648		win-reward	ImageDisplay2		0.0		
78	750.897	1.6	win-reward	ChoiceDisplay	1	0.566	1	1
78	751.481	1.034	win-reward	ChosenDisplay		0.0		
78	752.497	0.25	win-reward	TurnDisplay				
78	752.747	0.75	win-reward	OutcomeDisplay				
79	753.497		win-noreward	ImageDisplay1		0.0		
79	755.747	0.75	win-noreward	StartDisplay				
79	756.497		win-noreward	ImageDisplay2		0.0		
79	759.497	1.6	win-noreward	ChoiceDisplay	1	1.077	1	1
79	760.597	0.523	win-noreward	ChosenDisplay		0.0		
79	761.097	0.25	win-noreward	TurnDisplay				
79	761.347	0.75	win-noreward	OutcomeDisplay				
80	762.097		control-reward	ImageDisplay1		0.0		
80	764.097	0.75	control-reward	StartDisplay				
80	764.847		control-reward	ImageDisplay2		0.0		
80	768.097	1.6	control-reward	ChoiceDisplay		0.0		
80	769.697	0.0	control-reward	ChosenDisplay		0.0		
80	769.714	0.25	control-reward	TurnDisplay				
80	769.947	0.75	control-reward	OutcomeDisplay				
81	770.697		loss-reward	ImageDisplay1		0.0		
81	772.697	0.75	loss-reward	StartDisplay				
81	773.447		loss-reward	ImageDisplay2		0.0		
81	776.697	1.6	loss-reward	ChoiceDisplay		0.0		
81	778.297	0.0	loss-reward	ChosenDisplay		0.0		
81	778.313	0.25	loss-reward	TurnDisplay				
81	778.547	0.75	loss-reward	OutcomeDisplay				
82	779.297		win-noreward	ImageDisplay1		0.0		
82	781.547	0.75	win-noreward	StartDisplay				
82	782.297		win-noreward	ImageDisplay2		0.0		
82	785.297	1.6	win-noreward	ChoiceDisplay	1	0.48	1	1
82	785.797	1.12	win-noreward	ChosenDisplay		0.0		
82	786.897	0.25	win-noreward	TurnDisplay				
82	787.147	0.75	win-noreward	OutcomeDisplay				
83	787.897		control-noreward	ImageDisplay1		0.0		
83	789.897	0.75	control-noreward	StartDisplay				
83	790.647		control-noreward	ImageDisplay2		0.0		
83	793.896	1.6	control-noreward	ChoiceDisplay	1	1.022	1	1
83	794.93	0.578	control-noreward	ChosenDisplay		0.0		
83	795.496	0.25	control-noreward	TurnDisplay				
83	795.746	0.75	control-noreward	OutcomeDisplay				
84	796.496		control-reward	ImageDisplay1		0.0		
84	798.496	0.75	control-reward	StartDisplay				
84	799.246		control-reward	ImageDisplay2		0.0		
84	802.496	1.6	control-reward	ChoiceDisplay	1	1.099	1	1
84	803.613	0.501	control-reward	ChosenDisplay		0.0		
84	804.096	0.25	control-reward	TurnDisplay				
84	804.346	0.75	control-reward	OutcomeDisplay				
85	805.096		loss-noreward	ImageDisplay1		0.0		
85	807.346	0.75	loss-noreward	StartDisplay				
85	808.096		loss-noreward	ImageDisplay2		0.0		
85	811.096	1.6	loss-noreward	ChoiceDisplay	1	0.403	1	1
85	811.513	1.197	loss-noreward	ChosenDisplay		0.0		
85	812.696	0.25	loss-noreward	TurnDisplay				
85	812.946	0.75	loss-noreward	OutcomeDisplay				
86	813.696		control-noreward	ImageDisplay1		0.0		
86	815.946	0.75	control-noreward	StartDisplay				
86	816.696		control-noreward	ImageDisplay2		0.0		
86	819.696	1.6	control-noreward	ChoiceDisplay		0.0		
86	821.296	0.0	control-noreward	ChosenDisplay		0.0		
86	821.312	0.25	control-noreward	TurnDisplay				
86	821.546	0.75	control-noreward	OutcomeDisplay				
87	822.296		loss-noreward	ImageDisplay1		0.0		
87	824.296	0.75	loss-noreward	StartDisplay				
87	825.046		loss-noreward	ImageDisplay2		0.0		
87	828.296	1.6	loss-noreward	ChoiceDisplay	1	0.556	1	1
87	828.879	1.044	loss-noreward	ChosenDisplay		0.0		
87	829.896	0.25	loss-noreward	TurnDisplay				
87	830.146	0.75	loss-noreward	OutcomeDisplay				
88	830.896		win-reward	ImageDisplay1		0.0		
88	832.896	0.75	win-reward	StartDisplay				
88	833.646		win-reward	ImageDisplay2		0.0		
88	836.895	1.6	win-reward	ChoiceDisplay	1	0.752	1	1
88	837.662	0.848	win-reward	ChosenDisplay		0.0		
88	838.495	0.25	win-reward	TurnDisplay				
88	838.745	0.75	win-reward	OutcomeDisplay				
89	839.495		control-noreward	ImageDisplay1		0.0		
89	841.745	0.75	control-noreward	StartDisplay				
89	842.495		control-noreward	ImageDisplay2		0.0		
89	845.495	1.6	control-noreward	ChoiceDisplay	1	0.42	1	1
89	845.929	1.18	control-noreward	ChosenDisplay		0.0		
89	847.095	0.25	control-noreward	TurnDisplay				
89	847.345	0.75	control-noreward	OutcomeDisplay				
90	848.095		control-reward	ImageDisplay1		0.0		
90	850.345	0.75	control-reward	StartDisplay				
90	851.095		control-reward	ImageDisplay2		0.0		
90	854.095	1.6	control-reward	ChoiceDisplay		0.0		
90	855.695	0.0	control-reward	ChosenDisplay		0.0		
90	855.712	0.25	control-reward	TurnDisplay				
90	855.945	0.75	control-reward	OutcomeDisplay				
91	856.695		control-noreward	ImageDisplay1		0.0		
91	858.695	0.75	control-noreward	StartDisplay				
91	859.445		control-noreward	ImageDisplay2		0.0		
91	862.695	1.6	control-noreward	ChoiceDisplay	1	0.519	1	1
91	863.228	1.081	control-noreward	ChosenDisplay		0.0		
91	864.295	0.25	control-noreward	TurnDisplay				
91	864.545	0.75	control-noreward	OutcomeDisplay				
92	865.295		win-noreward	ImageDisplay1		0.0		
92	867.295	0.75	win-noreward	StartDisplay				
92	868.045		win-noreward	ImageDisplay2		0.0		
92	871.295	1.6	win-noreward	ChoiceDisplay		0.0		
92	872.895	0.0	win-noreward	ChosenDisplay		0.0		
92	872.911	0.25	win-noreward	TurnDisplay				
92	873.145	0.75	win-noreward	OutcomeDisplay				
93	873.895		control-noreward	ImageDisplay1		0.0		
93	876.145	0.75	control-noreward	StartDisplay				
93	876.895		control-noreward	ImageDisplay2		0.0		
93	879.894	1.6	control-noreward	ChoiceDisplay		0.0		
93	881.494	0.0	control-noreward	ChosenDisplay		0.0		
93	881.511	0.25	control-noreward	TurnDisplay				
93	881.744	0.75	control-noreward	OutcomeDisplay				
94	882.494		control-reward	ImageDisplay1		0.0		
94	884.744	0.75	control-reward	StartDisplay				
94	885.494		control-reward	ImageDisplay2		0.0		
94	888.494	1.6	control-reward	ChoiceDisplay	1	0.486	1	1
94	888.994	1.114	control-reward	ChosenDisplay		0.0		
94	890.094	0.25	control-reward	TurnDisplay				
94	890.344	0.75	control-reward	OutcomeDisplay				
95	891.094		loss-noreward	ImageDisplay1		0.0		
95	893.344	0.75	loss-noreward	StartDisplay				
95	894.094		loss-noreward	ImageDisplay2		0.0		
95	897.094	1.6	loss-noreward	ChoiceDisplay	1	0.54	1	1
95	897.661	1.06	loss-noreward	ChosenDisplay		0.0		
95	898.694	0.25	loss-noreward	TurnDisplay				
95	898.944	0.75	loss-noreward	OutcomeDisplay				
