onset	duration	trial_type	response_time	stim_file	accuracy
402.894	1.0	go	0.819	Go_X	1.0
405.518	1.0	go	0.471	Go_O	1.0
408.059	1.0	go	0.413	Go_X	1.0
410.583	1.0	go	0.463	Go_O	1.0
413.108	1.0	go	0.453	Go_O	1.0
415.648	1.0	go	0.439	Go_X	1.0
418.173	0.25	stop	0.449	Go_O	0.0
420.714	1.0	go	0.352	Go_X	1.0
423.254	0.2	stop	0.0	Go_X	1.0
425.779	1.0	go	0.335	Go_O	1.0
428.303	1.0	go	0.33	Go_O	1.0
430.844	1.0	go	0.54	Go_X	1.0
433.385	0.25	stop	0.365	Go_O	0.0
435.909	1.0	go	0.488	Go_X	1.0
438.433	1.0	go	0.402	Go_O	1.0
440.974	0.2	stop	0.315	Go_X	0.0
443.515	0.15	stop	0.0	Go_O	1.0
446.056	1.0	go	0.407	Go_O	1.0
448.58	1.0	go	0.427	Go_X	1.0
451.104	0.2	stop	0.0	Go_X	1.0
453.628	1.0	go	0.439	Go_O	1.0
456.153	1.0	go	0.317	Go_X	1.0
458.677	0.25	stop	0.331	Go_O	0.0
461.218	1.0	go	0.356	Go_X	1.0
463.742	1.0	go	0.365	Go_O	1.0
466.283	0.2	stop	0.0	Go_X	1.0
468.824	1.0	go	0.437	Go_O	1.0
471.348	1.0	go	0.511	Go_X	1.0
473.872	0.25	stop	0.366	Go_O	0.0
476.396	1.0	go	0.472	Go_O	1.0
478.921	1.0	go	0.369	Go_X	1.0
481.445	1.0	go	0.452	Go_X	1.0
483.969	1.0	go	0.493	Go_O	1.0
486.51	1.0	go	0.492	Go_O	1.0
489.034	0.2	stop	0.0	Go_X	1.0
491.575	1.0	go	0.457	Go_X	1.0
494.099	1.0	go	0.363	Go_X	1.0
496.624	1.0	go	0.381	Go_O	1.0
499.148	1.0	go	0.477	Go_O	1.0
501.672	1.0	go	0.454	Go_X	1.0
504.196	0.25	stop	0.388	Go_O	0.0
506.737	1.0	go	0.402	Go_O	1.0
509.278	1.0	go	0.375	Go_X	1.0
511.802	1.0	go	0.364	Go_X	1.0
514.326	1.0	go	0.346	Go_O	1.0
516.851	1.0	go	0.338	Go_X	1.0
519.375	1.0	go	0.391	Go_O	1.0
521.899	0.2	stop	0.279	Go_X	0.0
524.44	1.0	go	0.379	Go_O	1.0
526.964	1.0	go	0.367	Go_X	1.0
529.488	0.15	stop	0.0	Go_O	1.0
532.013	1.0	go	0.33	Go_X	1.0
534.537	0.2	stop	0.0	Go_X	1.0
537.061	0.25	stop	0.374	Go_O	0.0
539.602	1.0	go	0.409	Go_O	1.0
542.126	1.0	go	0.389	Go_X	1.0
544.65	1.0	go	0.375	Go_O	1.0
547.174	1.0	go	0.366	Go_O	1.0
549.699	0.2	stop	0.286	Go_X	0.0
552.24	1.0	go	0.442	Go_X	1.0
554.764	0.15	stop	0.308	Go_O	0.0
557.305	1.0	go	0.404	Go_O	1.0
559.829	1.0	go	0.394	Go_X	1.0
562.353	1.0	go	0.373	Go_X	1.0
564.894	1.0	go	0.348	Go_O	1.0
567.421	1.0	go	0.471	Go_X	1.0
569.942	1.0	go	0.397	Go_O	1.0
572.467	1.0	go	0.483	Go_O	1.0
574.991	1.0	go	0.428	Go_X	1.0
577.515	1.0	go	0.403	Go_X	1.0
580.039	0.1	stop	0.0	Go_X	1.0
582.564	1.0	go	0.291	Go_O	1.0
585.088	1.0	go	0.369	Go_O	1.0
587.612	1.0	go	0.411	Go_X	1.0
590.136	0.15	stop	0.0	Go_O	1.0
592.66	1.0	go	0.376	Go_X	1.0
595.184	1.0	go	0.388	Go_O	1.0
597.709	1.0	go	0.405	Go_X	1.0
600.233	1.0	go	0.354	Go_O	1.0
602.757	1.0	go	0.397	Go_O	1.0
605.281	1.0	go	0.354	Go_X	1.0
607.805	0.2	stop	0.0	Go_X	1.0
610.33	1.0	go	0.373	Go_X	1.0
612.854	1.0	go	0.379	Go_O	1.0
615.378	0.25	stop	0.385	Go_O	0.0
617.902	1.0	go	0.391	Go_X	1.0
620.426	1.0	go	0.336	Go_O	1.0
622.951	0.2	stop	0.341	Go_X	0.0
625.492	1.0	go	0.377	Go_X	1.0
628.033	0.15	stop	0.0	Go_O	1.0
630.573	1.0	go	0.378	Go_O	1.0
633.098	1.0	go	0.369	Go_O	1.0
635.622	1.0	go	0.379	Go_X	1.0
638.146	1.0	go	0.425	Go_O	1.0
640.67	1.0	go	0.364	Go_X	1.0
643.194	0.2	stop	0.0	Go_X	1.0
645.719	0.25	stop	0.354	Go_O	0.0
648.26	1.0	go	0.427	Go_X	1.0
650.784	1.0	go	0.333	Go_O	1.0
653.308	0.2	stop	0.0	Go_X	1.0
655.849	1.0	go	0.307	Go_O	1.0
658.373	1.0	go	0.384	Go_X	1.0
660.897	1.0	go	0.378	Go_X	1.0
663.422	1.0	go	0.389	Go_O	1.0
665.946	1.0	go	0.4	Go_X	1.0
668.47	1.0	go	0.368	Go_O	1.0
670.994	0.25	stop	0.447	Go_O	0.0
673.535	1.0	go	0.421	Go_O	1.0
676.059	1.0	go	0.282	Go_X	1.0
678.583	1.0	go	0.464	Go_X	1.0
681.108	1.0	go	0.362	Go_O	1.0
683.632	1.0	go	0.401	Go_O	1.0
686.156	0.2	stop	0.0	Go_X	1.0
688.697	1.0	go	0.334	Go_X	1.0
691.221	1.0	go	0.395	Go_X	1.0
693.745	1.0	go	0.345	Go_O	1.0
696.27	1.0	go	0.381	Go_X	1.0
698.811	0.25	stop	0.0	Go_O	1.0
701.351	1.0	go	0.351	Go_O	1.0
703.876	1.0	go	0.453	Go_O	1.0
706.417	0.3	stop	0.41	Go_X	0.0
708.958	1.0	go	0.47	Go_X	1.0
711.498	0.25	stop	0.35	Go_O	0.0
714.023	1.0	go	0.393	Go_X	1.0
716.564	1.0	go	0.391	Go_O	1.0
719.088	1.0	go	0.447	Go_X	1.0
721.629	1.0	go	0.399	Go_O	1.0
724.153	1.0	go	0.455	Go_O	1.0
726.677	1.0	go	0.422	Go_X	1.0
729.201	1.0	go	0.326	Go_O	1.0
731.725	0.2	stop	0.205	Go_X	0.0
734.25	1.0	go	0.42	Go_X	1.0
736.774	1.0	go	0.312	Go_O	1.0
739.298	1.0	go	0.324	Go_X	1.0
741.822	0.15	stop	0.311	Go_O	0.0
744.346	1.0	go	0.42	Go_O	1.0
746.871	1.0	go	0.323	Go_X	1.0
749.395	1.0	go	0.38	Go_X	1.0
751.919	1.0	go	0.43	Go_O	1.0
754.46	0.1	stop	0.0	Go_X	1.0
757.001	1.0	go	0.331	Go_O	1.0
759.542	1.0	go	0.355	Go_X	1.0
762.066	0.15	stop	0.306	Go_O	0.0
764.59	1.0	go	0.492	Go_O	1.0
767.114	1.0	go	0.311	Go_X	1.0
769.639	0.1	stop	0.0	Go_X	1.0
772.18	1.0	go	0.345	Go_X	1.0
774.704	1.0	go	0.377	Go_O	1.0
777.228	0.15	stop	0.311	Go_O	0.0
779.769	1.0	go	0.327	Go_X	1.0
782.293	1.0	go	0.359	Go_O	1.0
784.817	1.0	go	0.351	Go_X	1.0
787.342	1.0	go	0.312	Go_O	1.0
789.866	1.0	go	0.373	Go_X	1.0
792.39	1.0	go	0.367	Go_O	1.0
794.914	0.1	stop	0.0	Go_X	1.0
797.455	1.0	go	0.349	Go_O	1.0
799.979	0.15	stop	0.0	Go_O	1.0
802.503	1.0	go	0.338	Go_X	1.0
805.028	1.0	go	0.321	Go_X	0.0
807.552	1.0	go	0.333	Go_O	1.0
810.076	1.0	go	0.348	Go_X	1.0
812.6	1.0	go	0.333	Go_O	1.0
815.124	0.2	stop	0.4	Go_X	0.0
817.649	1.0	go	0.382	Go_O	1.0
820.173	1.0	go	0.351	Go_X	1.0
822.697	1.0	go	0.392	Go_O	1.0
825.221	0.15	stop	0.0	Go_O	1.0
827.746	0.2	stop	0.349	Go_X	0.0
830.286	0.15	stop	0.0	Go_O	1.0
832.811	1.0	go	0.407	Go_X	1.0
835.335	0.2	stop	0.0	Go_X	1.0
837.876	1.0	go	0.384	Go_X	1.0
840.417	1.0	go	0.461	Go_O	1.0
842.958	1.0	go	0.418	Go_O	1.0
845.482	1.0	go	0.337	Go_X	1.0
848.006	1.0	go	0.411	Go_O	1.0
850.53	1.0	go	0.321	Go_X	1.0
853.054	1.0	go	0.414	Go_O	1.0
855.579	1.0	go	0.339	Go_X	1.0
858.103	0.25	stop	0.357	Go_O	0.0
860.644	1.0	go	0.488	Go_O	1.0
863.185	1.0	go	0.35	Go_X	1.0
865.709	0.2	stop	0.338	Go_X	0.0
868.25	1.0	go	0.286	Go_O	1.0
870.774	1.0	go	0.458	Go_X	1.0
873.298	1.0	go	0.347	Go_O	1.0
875.822	1.0	go	0.362	Go_X	1.0
878.347	1.0	go	0.442	Go_X	1.0
880.871	0.15	stop	0.0	Go_O	1.0
883.412	1.0	go	0.402	Go_O	1.0
885.936	1.0	go	0.413	Go_X	1.0
888.46	1.0	go	0.373	Go_O	1.0
890.984	0.2	stop	0.359	Go_X	0.0
893.508	1.0	go	0.402	Go_X	1.0
896.033	0.15	stop	0.292	Go_O	0.0
898.574	1.0	go	0.446	Go_O	1.0
901.098	1.0	go	0.363	Go_X	1.0
903.622	1.0	go	0.34	Go_O	1.0
906.146	1.0	go	0.327	Go_X	1.0
908.67	1.0	go	0.373	Go_O	1.0
911.195	1.0	go	0.355	Go_X	1.0
913.719	1.0	go	0.422	Go_O	1.0
916.243	0.1	stop	0.0	Go_X	1.0
918.784	1.0	go	0.384	Go_O	1.0
921.308	1.0	go	0.406	Go_X	1.0
923.849	1.0	go	0.384	Go_O	1.0
926.373	1.0	go	0.452	Go_X	1.0
928.898	0.15	stop	0.0	Go_O	1.0
931.438	1.0	go	0.427	Go_O	1.0
933.963	0.2	stop	0.0	Go_X	1.0
936.504	1.0	go	0.357	Go_X	1.0
939.028	1.0	go	0.4	Go_X	1.0
941.552	0.25	stop	0.0	Go_O	1.0
944.076	1.0	go	0.395	Go_O	1.0
946.6	1.0	go	0.393	Go_X	1.0
949.125	1.0	go	0.504	Go_O	1.0
951.649	1.0	go	0.37	Go_X	1.0
954.173	1.0	go	0.387	Go_O	1.0
956.697	1.0	go	0.38	Go_X	1.0
959.221	1.0	go	0.446	Go_O	1.0
961.746	1.0	go	0.337	Go_X	1.0
964.27	1.0	go	0.335	Go_O	1.0
966.811	1.0	go	0.573	Go_O	1.0
969.335	0.3	stop	0.341	Go_X	0.0
971.876	1.0	go	0.376	Go_X	1.0
974.4	1.0	go	0.356	Go_X	1.0
976.941	0.25	stop	0.354	Go_O	0.0
979.465	1.0	go	0.384	Go_O	1.0
982.006	0.2	stop	0.32	Go_X	0.0
984.547	1.0	go	0.356	Go_X	1.0
987.088	1.0	go	0.321	Go_O	1.0
989.612	0.15	stop	0.0	Go_O	1.0
992.136	1.0	go	0.309	Go_X	1.0
994.661	0.2	stop	0.0	Go_X	1.0
997.185	1.0	go	0.324	Go_O	1.0
999.726	1.0	go	0.415	Go_X	1.0
1002.25	1.0	go	0.412	Go_O	1.0
1004.774	0.25	stop	0.0	Go_O	1.0
1007.317	1.0	go	0.43	Go_O	1.0
1009.839	1.0	go	0.378	Go_X	1.0
1012.363	1.0	go	0.481	Go_O	1.0
1014.888	1.0	go	0.408	Go_X	1.0
1017.412	0.3	stop	0.375	Go_X	0.0
1019.953	1.0	go	0.321	Go_O	1.0
1022.477	1.0	go	0.378	Go_X	1.0
1025.001	0.25	stop	0.377	Go_O	0.0
1027.525	1.0	go	0.442	Go_O	1.0
1030.049	1.0	go	0.407	Go_X	1.0
1032.574	1.0	go	0.376	Go_O	1.0
1035.098	1.0	go	0.324	Go_X	1.0
1037.622	0.2	stop	0.0	Go_X	1.0
1040.163	1.0	go	0.355	Go_O	1.0
1042.704	0.25	stop	0.0	Go_O	1.0
1045.245	1.0	go	0.44	Go_X	1.0
1047.769	1.0	go	0.493	Go_X	1.0
1050.293	0.3	stop	0.362	Go_X	0.0
1052.818	1.0	go	0.352	Go_O	1.0
1055.342	1.0	go	0.422	Go_O	1.0
1057.866	1.0	go	0.423	Go_X	1.0
1060.39	1.0	go	0.376	Go_O	1.0
1062.914	0.25	stop	0.365	Go_O	0.0
1065.438	1.0	go	0.378	Go_X	1.0
1067.963	0.2	stop	0.0	Go_X	1.0
1070.504	1.0	go	0.358	Go_O	1.0
1073.028	1.0	go	0.339	Go_X	1.0
1075.552	1.0	go	0.498	Go_X	1.0
1078.076	1.0	go	0.402	Go_O	1.0
1080.6	1.0	go	0.399	Go_O	1.0
1083.125	1.0	go	0.379	Go_X	1.0
1085.649	0.25	stop	0.386	Go_O	0.0
1088.19	1.0	go	0.395	Go_O	0.0
1090.714	1.0	go	0.43	Go_X	1.0
1093.238	0.2	stop	0.311	Go_X	0.0
1095.762	1.0	go	0.346	Go_O	1.0
1098.287	1.0	go	0.31	Go_X	1.0
1100.811	0.15	stop	0.0	Go_O	1.0
1103.352	1.0	go	0.313	Go_X	1.0
1105.876	1.0	go	0.352	Go_O	1.0
1108.417	1.0	go	0.439	Go_O	1.0
1110.941	1.0	go	0.343	Go_X	1.0
1113.465	0.2	stop	0.398	Go_X	0.0
1115.989	1.0	go	0.396	Go_O	1.0
1118.514	0.15	stop	0.0	Go_O	1.0
1121.055	1.0	go	0.403	Go_X	1.0
1123.579	1.0	go	0.387	Go_O	1.0
1126.103	1.0	go	0.377	Go_X	1.0
1128.627	1.0	go	0.423	Go_X	1.0
1131.168	1.0	go	0.369	Go_O	1.0
1133.692	0.2	stop	0.335	Go_X	0.0
1136.216	1.0	go	0.385	Go_X	1.0
1138.741	1.0	go	0.369	Go_O	1.0
1141.265	0.15	stop	0.0	Go_O	1.0
1143.806	0.2	stop	0.0	Go_X	1.0
1146.347	1.0	go	0.422	Go_X	1.0
1148.871	1.0	go	0.315	Go_O	1.0
1151.395	1.0	go	0.374	Go_O	1.0
1153.936	1.0	go	0.46	Go_X	1.0
1156.46	0.25	stop	0.0	Go_O	1.0
1158.984	1.0	go	0.417	Go_O	1.0
