onset	duration	trial_type	response_time	stim_file	accuracy
65.413	1.0	go	0.659	Go_X	1.0
67.938	1.0	go	0.321	Go_O	1.0
70.462	1.0	go	0.387	Go_X	1.0
72.986	1.0	go	0.322	Go_O	1.0
75.51	1.0	go	0.311	Go_O	1.0
78.034	1.0	go	0.272	Go_X	1.0
80.559	0.25	stop	0.372	Go_O	0.0
83.083	1.0	go	0.33	Go_X	1.0
85.607	0.2	stop	0.444	Go_X	0.0
88.131	1.0	go	0.397	Go_O	1.0
90.656	1.0	go	0.427	Go_X	1.0
93.18	1.0	go	0.38	Go_O	1.0
95.704	0.15	stop	0.481	Go_O	0.0
98.228	1.0	go	0.45	Go_X	1.0
100.752	1.0	go	0.283	Go_O	1.0
103.277	0.1	stop	0.436	Go_X	0.0
105.801	0.05	stop	0.266	Go_O	0.0
108.325	1.0	go	0.303	Go_O	1.0
110.849	1.0	go	0.214	Go_X	1.0
113.373	0.0	stop	0.204	Go_X	0.0
115.914	1.0	go	0.235	Go_O	1.0
118.439	1.0	go	0.339	Go_X	1.0
120.963	0.0	stop	0.437	Go_O	0.0
123.504	1.0	go	0.395	Go_O	1.0
126.028	1.0	go	0.297	Go_X	1.0
128.552	0.0	stop	0.393	Go_X	0.0
131.093	1.0	go	0.431	Go_X	1.0
133.617	1.0	go	0.337	Go_O	1.0
136.141	0.0	stop	0.326	Go_O	0.0
138.682	1.0	go	0.568	Go_O	1.0
141.207	1.0	go	0.256	Go_X	1.0
143.731	1.0	go	0.271	Go_X	1.0
146.255	1.0	go	0.234	Go_O	1.0
148.779	1.0	go	0.234	Go_X	1.0
151.304	0.0	stop	0.19	Go_X	0.0
153.844	1.0	go	0.24	Go_O	1.0
156.369	1.0	go	0.312	Go_O	1.0
158.893	1.0	go	0.376	Go_X	1.0
161.417	1.0	go	0.276	Go_O	1.0
163.941	1.0	go	0.225	Go_X	1.0
166.466	0.0	stop	0.357	Go_O	0.0
169.006	1.0	go	0.403	Go_O	1.0
171.531	1.0	go	0.377	Go_X	1.0
174.055	1.0	go	0.386	Go_X	1.0
176.579	1.0	go	0.336	Go_O	1.0
179.103	1.0	go	0.532	Go_X	1.0
181.627	1.0	go	0.25	Go_O	1.0
184.152	0.0	stop	0.343	Go_X	0.0
186.693	1.0	go	0.326	Go_O	1.0
189.217	1.0	go	0.334	Go_X	1.0
191.741	0.0	stop	0.285	Go_O	0.0
194.282	1.0	go	0.39	Go_O	1.0
196.806	0.0	stop	0.0	Go_X	1.0
199.347	0.05	stop	0.0	Go_O	1.0
201.871	1.0	go	0.477	Go_X	1.0
204.396	1.0	go	0.251	Go_O	1.0
206.92	1.0	go	0.347	Go_X	0.0
209.444	1.0	go	0.395	Go_O	1.0
211.968	0.1	stop	0.452	Go_X	0.0
214.492	1.0	go	0.513	Go_X	1.0
217.017	0.05	stop	0.0	Go_O	1.0
219.541	1.0	go	0.4	Go_X	1.0
222.065	1.0	go	0.303	Go_O	1.0
224.589	1.0	go	0.425	Go_O	1.0
227.113	1.0	go	0.278	Go_X	1.0
229.638	1.0	go	0.31	Go_O	1.0
232.162	1.0	go	0.372	Go_X	1.0
234.686	1.0	go	0.412	Go_X	1.0
237.21	1.0	go	0.417	Go_O	1.0
239.735	1.0	go	0.301	Go_O	1.0
242.259	0.1	stop	0.47	Go_X	0.0
244.783	1.0	go	0.4	Go_X	1.0
247.307	1.0	go	0.368	Go_X	1.0
249.831	1.0	go	0.334	Go_O	1.0
252.356	0.05	stop	0.0	Go_O	1.0
254.88	1.0	go	0.397	Go_O	1.0
257.404	1.0	go	0.276	Go_X	1.0
259.928	1.0	go	0.456	Go_X	1.0
262.452	1.0	go	0.478	Go_O	1.0
264.977	1.0	go	0.32	Go_O	1.0
267.501	1.0	go	0.373	Go_X	1.0
270.025	0.1	stop	0.438	Go_X	0.0
272.549	1.0	go	0.369	Go_O	1.0
275.074	1.0	go	0.426	Go_X	1.0
277.598	0.05	stop	0.0	Go_O	1.0
280.122	1.0	go	0.393	Go_X	1.0
282.646	1.0	go	0.333	Go_O	1.0
285.17	0.1	stop	0.0	Go_X	1.0
287.695	1.0	go	0.393	Go_X	1.0
290.219	0.15	stop	0.385	Go_O	0.0
292.743	1.0	go	0.361	Go_O	1.0
295.267	1.0	go	0.4	Go_O	1.0
297.791	1.0	go	0.386	Go_X	1.0
300.316	1.0	go	0.409	Go_X	1.0
302.84	1.0	go	0.477	Go_O	1.0
305.364	0.1	stop	0.0	Go_X	1.0
307.888	0.15	stop	0.308	Go_O	0.0
310.413	1.0	go	0.372	Go_X	1.0
312.937	1.0	go	0.312	Go_O	1.0
315.461	0.1	stop	0.0	Go_X	1.0
317.985	1.0	go	0.411	Go_O	1.0
320.509	1.0	go	0.36	Go_X	1.0
323.034	1.0	go	0.33	Go_O	1.0
325.558	1.0	go	0.511	Go_X	1.0
328.082	1.0	go	0.322	Go_O	1.0
330.606	1.0	go	0.308	Go_X	1.0
333.13	0.15	stop	0.259	Go_O	0.0
335.655	1.0	go	0.321	Go_O	1.0
338.179	1.0	go	0.4	Go_X	1.0
340.703	1.0	go	0.346	Go_O	1.0
343.227	1.0	go	0.42	Go_X	1.0
345.752	1.0	go	0.277	Go_O	1.0
348.276	0.1	stop	0.0	Go_X	1.0
350.8	1.0	go	0.56	Go_X	1.0
353.324	1.0	go	0.329	Go_O	1.0
355.848	1.0	go	0.312	Go_X	1.0
358.373	1.0	go	0.271	Go_O	1.0
360.897	0.15	stop	0.291	Go_O	0.0
363.421	1.0	go	0.308	Go_X	1.0
365.945	1.0	go	0.396	Go_X	1.0
368.469	0.1	stop	0.0	Go_X	1.0
370.994	1.0	go	0.423	Go_O	1.0
373.518	0.15	stop	0.292	Go_O	0.0
376.042	1.0	go	0.494	Go_X	1.0
378.566	1.0	go	0.319	Go_O	1.0
381.091	1.0	go	0.456	Go_X	1.0
383.615	1.0	go	0.369	Go_O	1.0
386.139	1.0	go	0.375	Go_O	1.0
388.663	1.0	go	0.498	Go_X	1.0
391.187	1.0	go	0.305	Go_O	1.0
393.712	0.1	stop	0.0	Go_X	1.0
396.236	1.0	go	0.488	Go_X	1.0
398.76	1.0	go	0.276	Go_O	1.0
401.284	1.0	go	0.344	Go_X	1.0
403.808	0.15	stop	0.0	Go_O	1.0
406.333	1.0	go	0.354	Go_O	1.0
408.857	1.0	go	0.501	Go_X	1.0
411.381	1.0	go	0.302	Go_O	1.0
413.905	1.0	go	0.307	Go_X	1.0
416.43	0.2	stop	0.0	Go_X	1.0
418.954	1.0	go	0.326	Go_O	1.0
421.478	1.0	go	0.451	Go_X	1.0
424.002	0.25	stop	0.257	Go_O	0.0
426.526	1.0	go	0.402	Go_O	1.0
429.051	1.0	go	0.433	Go_X	1.0
431.575	0.2	stop	0.338	Go_X	0.0
434.099	1.0	go	0.32	Go_O	1.0
436.623	1.0	go	0.643	Go_X	1.0
439.147	0.15	stop	0.0	Go_O	1.0
441.672	1.0	go	0.332	Go_O	0.0
444.196	1.0	go	0.316	Go_X	1.0
446.72	1.0	go	0.376	Go_O	1.0
449.244	1.0	go	0.4	Go_X	1.0
451.769	1.0	go	0.529	Go_X	1.0
454.293	1.0	go	0.386	Go_O	1.0
456.817	0.2	stop	0.386	Go_X	0.0
459.341	1.0	go	0.584	Go_X	1.0
461.865	0.15	stop	0.284	Go_O	0.0
464.39	1.0	go	0.508	Go_O	1.0
466.914	1.0	go	0.359	Go_X	1.0
469.438	1.0	go	0.324	Go_O	1.0
471.962	1.0	go	0.312	Go_X	1.0
474.486	1.0	go	0.374	Go_O	1.0
477.011	0.1	stop	0.0	Go_X	1.0
479.552	1.0	go	0.305	Go_O	1.0
482.076	1.0	go	0.438	Go_X	1.0
484.6	1.0	go	0.264	Go_O	1.0
487.124	0.15	stop	0.315	Go_O	0.0
489.648	0.1	stop	0.0	Go_X	1.0
492.173	0.15	stop	0.287	Go_O	0.0
494.697	1.0	go	0.427	Go_X	1.0
497.221	0.1	stop	0.0	Go_X	1.0
499.745	1.0	go	0.549	Go_X	1.0
502.27	1.0	go	0.354	Go_O	1.0
504.794	1.0	go	0.364	Go_O	1.0
507.318	1.0	go	0.385	Go_X	1.0
509.842	1.0	go	0.354	Go_O	1.0
512.366	1.0	go	0.366	Go_X	1.0
514.891	1.0	go	0.423	Go_X	1.0
517.415	1.0	go	0.376	Go_O	1.0
519.939	0.15	stop	0.366	Go_O	0.0
522.463	1.0	go	0.343	Go_O	1.0
524.987	1.0	go	0.408	Go_X	0.0
527.512	0.1	stop	0.259	Go_X	0.0
530.036	1.0	go	0.398	Go_O	1.0
532.56	1.0	go	0.619	Go_X	1.0
535.084	1.0	go	0.402	Go_X	1.0
537.609	1.0	go	0.291	Go_O	1.0
540.133	1.0	go	0.258	Go_O	1.0
542.657	0.05	stop	0.0	Go_O	1.0
545.181	1.0	go	0.644	Go_X	1.0
547.705	1.0	go	0.281	Go_O	1.0
550.23	1.0	go	0.464	Go_X	1.0
552.754	0.1	stop	0.0	Go_X	1.0
555.278	1.0	go	0.48	Go_X	1.0
557.802	0.15	stop	0.0	Go_O	1.0
560.326	1.0	go	0.337	Go_O	1.0
562.851	1.0	go	0.394	Go_O	1.0
565.375	1.0	go	0.474	Go_X	1.0
567.899	1.0	go	0.463	Go_X	1.0
570.423	1.0	go	0.48	Go_O	1.0
572.948	1.0	go	0.335	Go_O	1.0
575.472	1.0	go	0.233	Go_X	1.0
577.996	0.2	stop	0.443	Go_X	0.0
580.52	1.0	go	0.407	Go_X	1.0
583.044	1.0	go	0.301	Go_O	1.0
585.569	1.0	go	0.298	Go_O	1.0
588.093	1.0	go	0.68	Go_X	1.0
590.617	0.15	stop	0.442	Go_O	0.0
593.141	1.0	go	0.295	Go_O	1.0
595.665	0.1	stop	0.433	Go_X	0.0
598.19	1.0	go	0.507	Go_X	1.0
600.714	1.0	go	0.336	Go_X	1.0
603.238	0.05	stop	0.0	Go_O	1.0
605.762	1.0	go	0.399	Go_O	1.0
608.287	1.0	go	0.42	Go_X	1.0
610.811	1.0	go	0.518	Go_O	1.0
613.335	1.0	go	0.327	Go_X	1.0
615.859	1.0	go	0.309	Go_O	1.0
618.383	1.0	go	0.448	Go_X	1.0
620.908	1.0	go	0.376	Go_O	1.0
623.432	1.0	go	0.295	Go_O	1.0
625.956	1.0	go	0.3	Go_X	1.0
628.48	1.0	go	0.256	Go_O	1.0
631.004	0.1	stop	0.283	Go_X	0.0
633.529	1.0	go	0.465	Go_X	1.0
636.053	1.0	go	0.325	Go_X	1.0
638.577	0.05	stop	0.741	Go_O	0.0
641.101	1.0	go	0.46	Go_O	1.0
643.626	0.0	stop	0.0	Go_X	1.0
646.166	1.0	go	0.426	Go_O	1.0
648.691	1.0	go	0.503	Go_X	1.0
651.215	0.05	stop	0.0	Go_O	1.0
653.739	1.0	go	0.377	Go_O	1.0
656.263	0.1	stop	0.0	Go_X	1.0
658.787	1.0	go	0.563	Go_X	1.0
661.312	1.0	go	0.501	Go_X	1.0
663.836	1.0	go	0.354	Go_O	1.0
666.36	0.15	stop	0.348	Go_O	0.0
668.884	1.0	go	0.516	Go_X	1.0
671.409	1.0	go	0.284	Go_O	1.0
673.933	1.0	go	0.305	Go_O	1.0
676.457	1.0	go	0.41	Go_X	1.0
678.981	0.1	stop	0.0	Go_X	1.0
681.505	1.0	go	0.429	Go_X	1.0
684.03	1.0	go	0.438	Go_O	1.0
686.554	0.15	stop	0.0	Go_O	1.0
689.078	1.0	go	0.459	Go_O	1.0
691.602	1.0	go	0.499	Go_X	1.0
694.126	1.0	go	0.512	Go_X	1.0
696.651	1.0	go	0.398	Go_O	1.0
699.175	0.2	stop	0.422	Go_X	0.0
701.699	1.0	go	0.401	Go_O	1.0
704.223	0.15	stop	0.0	Go_O	1.0
706.748	1.0	go	0.364	Go_X	1.0
709.272	1.0	go	0.379	Go_O	1.0
711.796	0.2	stop	0.371	Go_X	0.0
714.32	1.0	go	0.504	Go_X	1.0
716.844	1.0	go	0.398	Go_X	1.0
719.369	1.0	go	0.312	Go_O	1.0
721.893	1.0	go	0.379	Go_O	1.0
724.417	0.15	stop	0.0	Go_O	1.0
726.941	1.0	go	0.563	Go_X	1.0
729.465	0.2	stop	0.0	Go_X	1.0
731.99	1.0	go	0.362	Go_O	1.0
734.514	1.0	go	0.387	Go_X	0.0
737.038	1.0	go	0.551	Go_X	1.0
739.562	1.0	go	0.236	Go_O	1.0
742.087	1.0	go	0.452	Go_O	1.0
744.611	1.0	go	0.414	Go_X	1.0
747.135	0.25	stop	0.594	Go_O	0.0
749.659	1.0	go	0.782	Go_X	1.0
752.183	1.0	go	0.267	Go_O	1.0
754.708	0.2	stop	0.0	Go_X	1.0
757.232	1.0	go	0.454	Go_X	1.0
759.756	1.0	go	0.367	Go_O	1.0
762.28	0.25	stop	0.383	Go_O	0.0
764.804	1.0	go	0.377	Go_O	1.0
767.329	1.0	go	0.359	Go_X	1.0
769.853	1.0	go	0.275	Go_O	1.0
772.377	1.0	go	0.372	Go_X	1.0
774.901	0.2	stop	0.396	Go_X	0.0
777.426	1.0	go	0.508	Go_X	1.0
779.95	0.15	stop	0.406	Go_O	0.0
782.474	1.0	go	0.289	Go_O	1.0
784.998	1.0	go	0.338	Go_O	1.0
787.522	1.0	go	0.399	Go_X	1.0
790.047	1.0	go	0.47	Go_X	1.0
792.571	1.0	go	0.329	Go_O	1.0
795.095	0.1	stop	0.397	Go_X	0.0
797.619	1.0	go	0.377	Go_O	1.0
800.143	1.0	go	0.372	Go_X	1.0
802.668	0.05	stop	0.0	Go_O	1.0
805.192	0.1	stop	0.0	Go_X	1.0
807.716	1.0	go	0.503	Go_X	1.0
810.24	1.0	go	0.279	Go_O	1.0
812.765	1.0	go	0.281	Go_X	1.0
815.289	1.0	go	0.355	Go_O	1.0
817.813	0.15	stop	0.345	Go_O	0.0
820.337	1.0	go	0.709	Go_X	1.0
