onset	duration	trial_type	response_time	stim_file	accuracy
507.903	1.0	go	0.689	Go_O	1.0
510.494	1.0	go	0.642	Go_X	1.0
513.018	1.0	go	0.581	Go_X	1.0
515.542	1.0	go	0.359	Go_O	1.0
518.066	1.0	go	0.586	Go_X	1.0
520.59	1.0	go	0.278	Go_O	1.0
523.114	0.25	stop	0.387	Go_O	0.0
525.639	1.0	go	0.794	Go_X	0.0
528.163	0.2	stop	0.0	Go_X	1.0
530.687	1.0	go	0.308	Go_O	1.0
533.211	1.0	go	0.84	Go_O	1.0
535.735	1.0	go	0.945	Go_X	1.0
538.259	0.25	stop	0.484	Go_O	0.0
540.783	1.0	go	0.678	Go_O	0.0
543.308	1.0	go	0.58	Go_X	1.0
545.832	0.2	stop	0.0	Go_X	1.0
548.356	0.25	stop	0.585	Go_O	0.0
550.88	1.0	go	0.448	Go_O	1.0
553.404	1.0	go	0.622	Go_X	0.0
555.928	0.2	stop	0.0	Go_X	1.0
558.453	1.0	go	0.664	Go_X	1.0
560.977	1.0	go	0.542	Go_O	1.0
563.501	0.25	stop	0.0	Go_O	1.0
566.025	1.0	go	0.464	Go_X	1.0
568.549	1.0	go	0.474	Go_O	1.0
571.073	0.3	stop	0.561	Go_X	0.0
573.598	1.0	go	0.557	Go_X	1.0
576.122	1.0	go	0.652	Go_O	1.0
578.646	0.25	stop	0.0	Go_O	1.0
581.17	1.0	go	0.626	Go_X	1.0
583.694	1.0	go	0.353	Go_O	1.0
586.218	1.0	go	0.443	Go_X	1.0
588.743	1.0	go	0.721	Go_O	1.0
591.267	1.0	go	0.722	Go_O	1.0
593.791	0.3	stop	0.361	Go_X	0.0
596.315	1.0	go	0.442	Go_X	1.0
598.839	1.0	go	0.559	Go_X	1.0
601.363	1.0	go	0.354	Go_O	1.0
603.887	1.0	go	0.33	Go_X	1.0
606.412	1.0	go	0.381	Go_O	1.0
608.936	0.25	stop	0.515	Go_O	0.0
611.46	1.0	go	0.515	Go_X	1.0
613.984	1.0	go	0.415	Go_O	1.0
616.508	1.0	go	0.444	Go_X	1.0
619.032	1.0	go	0.328	Go_O	1.0
621.557	1.0	go	0.389	Go_O	1.0
624.081	1.0	go	0.47	Go_X	1.0
626.605	0.2	stop	0.0	Go_X	1.0
629.129	1.0	go	0.531	Go_X	1.0
631.653	1.0	go	0.285	Go_O	1.0
634.177	0.25	stop	0.395	Go_O	0.0
636.702	1.0	go	0.634	Go_X	1.0
639.226	0.2	stop	0.0	Go_X	1.0
641.75	0.25	stop	0.0	Go_O	1.0
644.274	1.0	go	0.58	Go_O	1.0
646.798	1.0	go	0.564	Go_X	1.0
649.322	1.0	go	0.414	Go_O	1.0
651.847	1.0	go	0.507	Go_X	1.0
654.371	0.3	stop	0.445	Go_X	0.0
656.895	1.0	go	0.604	Go_O	1.0
659.419	0.25	stop	0.502	Go_O	0.0
661.943	1.0	go	0.544	Go_O	1.0
664.467	1.0	go	0.494	Go_X	1.0
666.992	1.0	go	0.477	Go_X	1.0
669.516	1.0	go	0.358	Go_O	1.0
672.04	1.0	go	0.519	Go_O	1.0
674.564	1.0	go	0.762	Go_X	1.0
677.088	1.0	go	0.933	Go_X	1.0
679.612	1.0	go	0.668	Go_O	1.0
682.136	1.0	go	0.458	Go_X	1.0
684.661	0.2	stop	0.0	Go_X	1.0
687.185	1.0	go	0.479	Go_O	1.0
689.709	1.0	go	0.596	Go_X	1.0
692.233	1.0	go	0.648	Go_O	1.0
694.757	0.25	stop	0.0	Go_O	1.0
697.281	1.0	go	0.463	Go_O	1.0
699.806	1.0	go	0.569	Go_X	1.0
702.33	1.0	go	0.584	Go_O	1.0
704.854	1.0	go	0.635	Go_X	1.0
707.378	1.0	go	0.564	Go_X	1.0
709.902	1.0	go	0.451	Go_O	1.0
712.426	0.3	stop	0.0	Go_X	1.0
714.951	1.0	go	0.458	Go_X	1.0
717.475	1.0	go	0.72	Go_O	1.0
719.999	0.35	stop	0.482	Go_O	0.0
722.523	1.0	go	0.472	Go_O	1.0
725.047	1.0	go	0.532	Go_X	1.0
727.571	0.3	stop	0.0	Go_X	1.0
730.096	1.0	go	0.466	Go_O	1.0
732.62	0.35	stop	0.542	Go_O	0.0
735.144	1.0	go	0.81	Go_X	1.0
737.668	1.0	go	0.977	Go_O	1.0
740.192	1.0	go	0.556	Go_X	1.0
742.716	1.0	go	0.512	Go_O	1.0
745.241	1.0	go	0.436	Go_X	1.0
747.765	0.3	stop	0.0	Go_X	1.0
750.289	0.35	stop	0.0	Go_O	1.0
752.813	1.0	go	0.386	Go_X	1.0
755.337	1.0	go	0.771	Go_O	1.0
757.861	0.4	stop	0.0	Go_X	1.0
760.385	1.0	go	0.43	Go_O	1.0
762.91	1.0	go	0.54	Go_X	1.0
765.434	1.0	go	0.616	Go_O	1.0
767.958	1.0	go	0.683	Go_X	1.0
770.482	1.0	go	0.554	Go_O	1.0
773.006	1.0	go	0.56	Go_X	1.0
775.53	0.45	stop	0.0	Go_O	1.0
778.055	1.0	go	0.513	Go_O	1.0
780.579	1.0	go	0.491	Go_X	1.0
783.103	1.0	go	0.513	Go_X	1.0
785.627	1.0	go	0.518	Go_O	1.0
788.151	1.0	go	0.481	Go_O	1.0
790.675	0.5	stop	0.41	Go_X	0.0
793.2	1.0	go	0.552	Go_X	1.0
795.724	1.0	go	0.62	Go_X	1.0
798.248	1.0	go	0.47	Go_O	1.0
800.772	1.0	go	0.532	Go_O	1.0
803.296	0.45	stop	0.48	Go_O	0.0
805.82	1.0	go	0.519	Go_X	1.0
808.345	1.0	go	0.481	Go_O	1.0
810.869	0.4	stop	0.49	Go_X	0.0
813.393	1.0	go	0.376	Go_X	1.0
815.917	0.35	stop	0.465	Go_O	0.0
818.441	1.0	go	0.439	Go_O	1.0
820.965	1.0	go	0.587	Go_X	1.0
823.49	1.0	go	0.596	Go_O	1.0
826.014	1.0	go	0.552	Go_X	1.0
828.538	1.0	go	0.458	Go_O	1.0
831.062	1.0	go	0.423	Go_X	1.0
833.586	1.0	go	0.598	Go_X	1.0
836.11	0.3	stop	0.0	Go_X	1.0
838.634	1.0	go	0.702	Go_O	1.0
841.159	1.0	go	0.47	Go_O	1.0
843.683	1.0	go	0.783	Go_X	1.0
846.207	0.35	stop	0.0	Go_O	1.0
848.731	1.0	go	0.478	Go_O	1.0
851.255	1.0	go	0.568	Go_X	1.0
853.779	1.0	go	0.444	Go_O	1.0
856.304	1.0	go	0.387	Go_X	1.0
858.828	0.4	stop	0.485	Go_X	0.0
861.352	1.0	go	0.475	Go_O	1.0
863.876	1.0	go	0.373	Go_X	1.0
866.4	0.35	stop	0.394	Go_O	0.0
868.924	1.0	go	0.611	Go_X	1.0
871.449	1.0	go	0.433	Go_O	1.0
873.973	0.3	stop	0.0	Go_X	1.0
876.497	1.0	go	0.37	Go_O	1.0
879.021	1.0	go	0.563	Go_X	1.0
881.545	0.35	stop	0.457	Go_O	0.0
884.069	1.0	go	0.513	Go_O	1.0
886.594	1.0	go	0.497	Go_X	1.0
889.118	1.0	go	0.908	Go_O	1.0
891.642	1.0	go	0.454	Go_X	1.0
894.166	1.0	go	0.568	Go_X	0.0
896.69	1.0	go	0.454	Go_O	1.0
899.214	0.3	stop	0.434	Go_X	0.0
901.738	1.0	go	0.489	Go_O	1.0
904.263	0.25	stop	0.0	Go_O	1.0
906.787	1.0	go	0.482	Go_X	1.0
909.311	1.0	go	0.543	Go_X	1.0
911.835	1.0	go	0.481	Go_O	1.0
914.359	1.0	go	0.545	Go_O	1.0
916.883	1.0	go	0.862	Go_X	1.0
919.408	0.3	stop	0.488	Go_X	0.0
921.932	1.0	go	0.614	Go_O	1.0
924.456	1.0	go	0.711	Go_X	1.0
926.98	1.0	go	0.681	Go_X	1.0
929.504	0.25	stop	0.0	Go_O	1.0
932.028	0.3	stop	0.553	Go_X	0.0
934.553	0.25	stop	0.0	Go_O	1.0
937.077	1.0	go	0.634	Go_O	1.0
939.601	0.3	stop	0.0	Go_X	1.0
942.125	1.0	go	0.609	Go_X	1.0
944.649	1.0	go	0.783	Go_O	1.0
947.173	1.0	go	0.59	Go_O	0.0
949.698	1.0	go	0.518	Go_X	1.0
952.222	1.0	go	0.482	Go_X	1.0
954.746	1.0	go	0.516	Go_O	1.0
957.27	1.0	go	0.0	Go_O	0.0
959.794	1.0	go	0.362	Go_X	1.0
962.318	0.35	stop	0.575	Go_O	0.0
964.843	1.0	go	0.574	Go_X	1.0
967.367	1.0	go	0.411	Go_O	1.0
969.891	0.3	stop	0.402	Go_X	0.0
972.415	1.0	go	0.467	Go_O	1.0
974.939	1.0	go	0.95	Go_X	1.0
977.463	1.0	go	0.841	Go_O	1.0
979.987	1.0	go	0.76	Go_X	1.0
982.512	1.0	go	0.587	Go_X	1.0
985.036	0.25	stop	0.0	Go_O	1.0
987.56	1.0	go	0.562	Go_O	1.0
990.084	1.0	go	0.587	Go_X	1.0
992.608	1.0	go	0.623	Go_O	1.0
995.132	0.3	stop	0.48	Go_X	0.0
997.657	1.0	go	0.491	Go_X	1.0
1000.181	0.25	stop	0.0	Go_O	1.0
1002.705	1.0	go	0.916	Go_O	1.0
1005.229	1.0	go	0.388	Go_O	1.0
1007.753	1.0	go	0.363	Go_X	1.0
1010.277	1.0	go	0.473	Go_X	1.0
1012.802	1.0	go	0.513	Go_O	1.0
1015.326	1.0	go	0.754	Go_X	1.0
1017.85	1.0	go	0.754	Go_O	1.0
1020.374	0.3	stop	0.0	Go_X	1.0
1022.898	1.0	go	0.0	Go_X	0.0
1025.422	1.0	go	0.521	Go_O	1.0
1027.947	1.0	go	0.598	Go_X	0.0
1030.471	1.0	go	0.289	Go_O	1.0
1032.995	0.35	stop	0.395	Go_O	0.0
1035.519	1.0	go	0.519	Go_X	1.0
1038.043	0.3	stop	0.414	Go_X	0.0
1040.567	1.0	go	0.45	Go_O	1.0
1043.091	1.0	go	0.541	Go_X	1.0
1045.616	0.25	stop	0.0	Go_O	1.0
1048.14	1.0	go	0.595	Go_O	1.0
1050.664	1.0	go	0.46	Go_O	1.0
1053.188	1.0	go	0.466	Go_X	1.0
1055.712	1.0	go	0.638	Go_X	1.0
1058.236	1.0	go	0.475	Go_O	1.0
1060.761	1.0	go	0.645	Go_O	1.0
1063.285	1.0	go	0.689	Go_X	1.0
1065.809	1.0	go	0.644	Go_O	1.0
1068.333	1.0	go	0.441	Go_X	1.0
1070.857	1.0	go	0.549	Go_O	1.0
1073.381	0.3	stop	0.0	Go_X	1.0
1075.906	1.0	go	0.597	Go_X	1.0
1078.43	1.0	go	0.503	Go_O	1.0
1080.954	0.35	stop	0.0	Go_O	1.0
1083.478	1.0	go	0.571	Go_X	1.0
1086.002	0.4	stop	0.0	Go_X	1.0
1088.526	1.0	go	0.555	Go_O	1.0
1091.051	1.0	go	0.573	Go_X	1.0
1093.575	0.45	stop	0.509	Go_O	0.0
1096.099	1.0	go	0.62	Go_X	1.0
1098.623	0.4	stop	0.496	Go_X	0.0
1101.147	1.0	go	0.524	Go_O	1.0
1103.671	1.0	go	0.527	Go_X	1.0
1106.196	1.0	go	0.662	Go_O	1.0
1108.72	0.35	stop	0.472	Go_O	0.0
1111.244	1.0	go	0.607	Go_X	1.0
1113.768	1.0	go	0.541	Go_O	1.0
1116.292	1.0	go	0.523	Go_X	1.0
1118.816	1.0	go	0.648	Go_O	1.0
1121.34	0.3	stop	0.0	Go_X	1.0
1123.865	1.0	go	0.467	Go_X	1.0
1126.389	1.0	go	0.683	Go_O	1.0
1128.913	0.35	stop	0.0	Go_O	1.0
1131.437	1.0	go	0.591	Go_X	1.0
1133.961	1.0	go	0.643	Go_O	1.0
1136.485	1.0	go	0.58	Go_X	1.0
1139.01	1.0	go	0.51	Go_O	1.0
1141.534	0.4	stop	0.517	Go_X	0.0
1144.058	1.0	go	0.502	Go_O	1.0
1146.582	0.35	stop	0.53	Go_O	0.0
1149.106	1.0	go	0.341	Go_X	1.0
1151.63	1.0	go	0.521	Go_O	1.0
1154.155	0.3	stop	0.406	Go_X	0.0
1156.679	1.0	go	0.611	Go_X	1.0
1159.203	1.0	go	0.607	Go_X	1.0
1161.727	1.0	go	0.474	Go_O	1.0
1164.251	1.0	go	0.557	Go_X	1.0
1166.775	0.25	stop	0.487	Go_O	0.0
1169.3	1.0	go	0.0	Go_O	0.0
1171.824	0.2	stop	0.0	Go_X	1.0
1174.348	1.0	go	0.656	Go_X	0.0
1176.872	1.0	go	0.313	Go_O	1.0
1179.396	1.0	go	0.539	Go_X	1.0
1181.92	1.0	go	0.694	Go_O	1.0
1184.445	1.0	go	0.562	Go_X	1.0
1186.969	1.0	go	0.361	Go_O	1.0
1189.493	0.25	stop	0.434	Go_O	0.0
1192.017	1.0	go	0.348	Go_X	1.0
1194.541	1.0	go	0.35	Go_O	1.0
1197.065	0.2	stop	0.0	Go_X	1.0
1199.589	1.0	go	0.739	Go_O	1.0
1202.114	1.0	go	0.279	Go_X	1.0
1204.638	0.25	stop	0.399	Go_O	0.0
1207.162	1.0	go	0.721	Go_X	1.0
1209.686	1.0	go	0.554	Go_O	1.0
1212.21	1.0	go	0.568	Go_X	1.0
1214.734	1.0	go	0.741	Go_O	1.0
1217.259	0.2	stop	0.475	Go_X	0.0
1219.783	1.0	go	0.463	Go_X	1.0
1222.307	0.15	stop	0.0	Go_O	1.0
1224.831	1.0	go	0.522	Go_O	0.0
1227.355	1.0	go	0.655	Go_X	0.0
1229.879	1.0	go	0.796	Go_O	1.0
1232.404	1.0	go	0.517	Go_X	1.0
1234.928	1.0	go	0.953	Go_O	1.0
1237.452	0.2	stop	0.0	Go_X	1.0
1239.976	1.0	go	0.716	Go_O	1.0
1242.5	1.0	go	0.626	Go_X	1.0
1245.024	0.25	stop	0.0	Go_O	1.0
1247.549	0.3	stop	0.0	Go_X	1.0
1250.073	1.0	go	0.0	Go_O	0.0
1252.597	1.0	go	0.576	Go_X	1.0
1255.121	1.0	go	0.402	Go_X	1.0
1257.645	1.0	go	0.0	Go_O	0.0
1260.169	0.35	stop	0.0	Go_O	1.0
1262.693	1.0	go	0.0	Go_O	0.0
