onset	duration	trial_type	response_time	stim_file	accuracy
66.191	1.0	go	0.548	Go_O	1.0
68.724	1.0	go	0.358	Go_X	1.0
71.258	1.0	go	0.436	Go_X	1.0
73.791	1.0	go	0.31	Go_O	1.0
76.324	1.0	go	0.3	Go_X	1.0
78.858	1.0	go	0.412	Go_O	1.0
81.407	0.25	stop	0.455	Go_O	0.0
83.941	1.0	go	0.557	Go_O	1.0
86.474	0.2	stop	0.0	Go_X	1.0
89.007	1.0	go	0.454	Go_X	1.0
91.541	1.0	go	0.392	Go_X	1.0
94.074	1.0	go	0.325	Go_O	1.0
96.607	0.25	stop	0.319	Go_O	0.0
99.14	1.0	go	0.388	Go_X	1.0
101.674	1.0	go	0.449	Go_O	1.0
104.207	0.2	stop	0.47	Go_X	0.0
106.74	0.15	stop	0.0	Go_O	1.0
109.273	1.0	go	0.392	Go_O	1.0
111.807	1.0	go	0.45	Go_X	1.0
114.34	0.2	stop	0.369	Go_X	0.0
116.873	1.0	go	0.457	Go_X	1.0
119.407	1.0	go	0.434	Go_O	1.0
121.94	0.15	stop	0.0	Go_O	1.0
124.473	1.0	go	0.522	Go_O	1.0
127.006	1.0	go	0.425	Go_X	1.0
129.54	0.2	stop	0.0	Go_X	1.0
132.073	1.0	go	0.397	Go_O	1.0
134.606	1.0	go	0.388	Go_X	1.0
137.139	0.25	stop	0.0	Go_O	1.0
139.689	1.0	go	0.481	Go_X	1.0
142.223	1.0	go	0.417	Go_O	1.0
144.756	1.0	go	0.512	Go_X	1.0
147.289	1.0	go	0.443	Go_O	1.0
149.823	1.0	go	0.473	Go_O	1.0
152.372	0.3	stop	0.439	Go_X	0.0
154.906	1.0	go	0.465	Go_X	1.0
157.439	1.0	go	0.592	Go_X	1.0
159.972	1.0	go	0.394	Go_O	1.0
162.506	1.0	go	0.443	Go_O	1.0
165.039	1.0	go	0.634	Go_X	1.0
167.572	0.25	stop	0.0	Go_O	1.0
170.105	1.0	go	0.438	Go_O	1.0
172.639	1.0	go	0.634	Go_X	1.0
175.172	1.0	go	0.509	Go_X	1.0
177.705	1.0	go	0.422	Go_O	1.0
180.238	1.0	go	0.613	Go_X	1.0
182.772	1.0	go	0.894	Go_O	1.0
185.305	0.3	stop	0.448	Go_X	0.0
187.838	1.0	go	0.439	Go_X	1.0
190.372	1.0	go	0.408	Go_O	1.0
192.905	0.25	stop	0.0	Go_O	1.0
195.438	1.0	go	0.403	Go_X	1.0
197.971	0.3	stop	0.438	Go_X	0.0
200.505	0.25	stop	0.386	Go_O	0.0
203.038	1.0	go	0.484	Go_O	1.0
205.571	1.0	go	0.433	Go_O	1.0
208.104	1.0	go	0.426	Go_X	1.0
210.638	1.0	go	0.58	Go_O	1.0
213.171	0.2	stop	0.0	Go_X	1.0
215.704	1.0	go	0.983	Go_X	1.0
218.238	0.25	stop	0.0	Go_O	1.0
220.771	1.0	go	0.416	Go_O	1.0
223.304	1.0	go	0.413	Go_X	1.0
225.837	1.0	go	0.513	Go_X	1.0
228.371	1.0	go	0.461	Go_O	1.0
230.904	1.0	go	0.48	Go_O	1.0
233.437	1.0	go	0.489	Go_X	1.0
235.971	1.0	go	0.464	Go_X	1.0
238.52	1.0	go	0.526	Go_O	1.0
241.054	1.0	go	0.718	Go_X	1.0
243.587	0.3	stop	0.444	Go_X	0.0
246.12	1.0	go	0.388	Go_O	1.0
248.654	1.0	go	0.545	Go_X	1.0
251.187	1.0	go	0.693	Go_O	1.0
253.72	0.25	stop	0.344	Go_O	0.0
256.253	1.0	go	0.623	Go_X	1.0
258.787	1.0	go	0.517	Go_O	1.0
261.32	1.0	go	0.429	Go_X	1.0
263.853	1.0	go	0.355	Go_O	1.0
266.386	1.0	go	0.47	Go_X	1.0
268.92	1.0	go	0.467	Go_O	1.0
271.453	0.2	stop	0.431	Go_X	0.0
273.986	1.0	go	0.567	Go_X	1.0
276.52	1.0	go	0.399	Go_O	1.0
279.053	0.15	stop	0.462	Go_O	0.0
281.586	1.0	go	0.413	Go_O	1.0
284.119	1.0	go	0.511	Go_X	1.0
286.653	0.1	stop	0.0	Go_X	1.0
289.186	1.0	go	0.497	Go_X	1.0
291.719	0.15	stop	0.0	Go_O	1.0
294.253	1.0	go	0.404	Go_O	1.0
296.802	1.0	go	0.633	Go_X	1.0
299.336	1.0	go	0.0	Go_O	0.0
301.869	1.0	go	0.462	Go_O	1.0
304.402	1.0	go	0.498	Go_X	1.0
306.936	0.2	stop	0.0	Go_X	1.0
309.485	0.25	stop	0.356	Go_O	0.0
312.035	1.0	go	0.393	Go_X	1.0
314.569	1.0	go	0.581	Go_O	1.0
317.102	0.2	stop	0.342	Go_X	0.0
319.635	1.0	go	0.367	Go_X	1.0
322.169	1.0	go	0.427	Go_O	1.0
324.718	1.0	go	0.394	Go_X	1.0
327.252	1.0	go	0.4	Go_O	1.0
329.785	1.0	go	0.604	Go_O	1.0
332.318	1.0	go	0.527	Go_X	1.0
334.852	0.15	stop	0.0	Go_O	1.0
337.385	1.0	go	0.378	Go_O	1.0
339.918	1.0	go	0.646	Go_X	1.0
342.451	1.0	go	0.479	Go_X	1.0
344.985	1.0	go	0.521	Go_O	1.0
347.518	1.0	go	0.456	Go_X	1.0
350.051	0.2	stop	0.0	Go_X	1.0
352.584	1.0	go	0.327	Go_O	1.0
355.118	1.0	go	0.439	Go_O	1.0
357.651	1.0	go	0.455	Go_X	1.0
360.184	1.0	go	0.593	Go_X	1.0
362.718	0.25	stop	0.556	Go_O	0.0
365.251	1.0	go	0.482	Go_O	1.0
367.784	1.0	go	0.31	Go_O	1.0
370.317	0.2	stop	0.368	Go_X	0.0
372.851	1.0	go	0.504	Go_X	1.0
375.384	0.15	stop	0.0	Go_O	1.0
377.917	1.0	go	0.299	Go_O	1.0
380.451	1.0	go	0.416	Go_X	1.0
383.0	1.0	go	0.576	Go_O	1.0
385.534	1.0	go	0.658	Go_X	1.0
388.067	1.0	go	0.683	Go_X	0.0
390.6	1.0	go	0.347	Go_O	1.0
393.134	1.0	go	0.0	Go_X	0.0
395.683	0.2	stop	0.344	Go_X	0.0
398.217	1.0	go	0.358	Go_O	1.0
400.75	1.0	go	0.426	Go_X	1.0
403.283	1.0	go	0.35	Go_O	1.0
405.817	0.15	stop	0.0	Go_O	1.0
408.35	1.0	go	0.469	Go_O	1.0
410.883	1.0	go	0.615	Go_X	1.0
413.416	1.0	go	0.473	Go_X	1.0
415.95	1.0	go	0.956	Go_O	1.0
418.483	0.2	stop	0.0	Go_X	1.0
421.016	1.0	go	0.347	Go_O	1.0
423.55	1.0	go	0.458	Go_X	1.0
426.099	0.25	stop	0.575	Go_O	0.0
428.633	1.0	go	0.663	Go_O	1.0
431.166	1.0	go	0.567	Go_X	1.0
433.699	0.2	stop	0.0	Go_X	1.0
436.233	1.0	go	0.504	Go_X	1.0
438.782	1.0	go	0.667	Go_O	1.0
441.316	0.25	stop	0.572	Go_O	0.0
443.849	1.0	go	0.5	Go_O	1.0
446.382	1.0	go	0.689	Go_X	1.0
448.916	1.0	go	0.563	Go_X	1.0
451.449	1.0	go	0.359	Go_O	1.0
453.982	1.0	go	0.388	Go_X	1.0
456.515	1.0	go	0.787	Go_O	1.0
459.049	0.2	stop	0.0	Go_X	1.0
461.582	1.0	go	0.485	Go_X	1.0
464.115	0.25	stop	0.492	Go_O	0.0
466.648	1.0	go	0.39	Go_O	1.0
469.182	1.0	go	0.682	Go_O	1.0
471.715	1.0	go	0.504	Go_X	1.0
474.248	1.0	go	0.342	Go_O	1.0
476.782	1.0	go	0.49	Go_X	1.0
479.315	0.2	stop	0.673	Go_X	0.0
481.848	1.0	go	0.426	Go_O	1.0
484.381	1.0	go	0.473	Go_X	0.0
486.915	1.0	go	0.5	Go_O	1.0
489.448	0.15	stop	0.0	Go_O	1.0
491.981	0.2	stop	0.421	Go_X	0.0
494.515	0.15	stop	0.701	Go_O	0.0
497.064	1.0	go	0.596	Go_X	1.0
499.598	0.1	stop	0.0	Go_X	1.0
502.131	1.0	go	0.585	Go_X	1.0
504.664	1.0	go	0.437	Go_O	1.0
507.198	1.0	go	0.768	Go_X	1.0
509.731	1.0	go	0.758	Go_O	1.0
512.264	1.0	go	0.555	Go_X	1.0
514.797	1.0	go	0.531	Go_O	1.0
517.331	1.0	go	0.618	Go_X	1.0
519.864	1.0	go	0.732	Go_O	1.0
522.397	0.15	stop	0.0	Go_O	1.0
524.93	1.0	go	0.703	Go_X	1.0
527.464	1.0	go	0.323	Go_O	1.0
529.997	0.2	stop	0.451	Go_X	0.0
532.53	1.0	go	0.707	Go_O	1.0
535.064	1.0	go	0.0	Go_X	0.0
537.597	1.0	go	0.352	Go_O	1.0
540.13	1.0	go	0.572	Go_X	0.0
542.663	1.0	go	0.37	Go_O	1.0
545.197	0.15	stop	0.0	Go_O	1.0
547.73	1.0	go	0.401	Go_X	1.0
550.263	1.0	go	0.436	Go_X	1.0
552.796	1.0	go	0.634	Go_O	0.0
555.33	0.2	stop	0.462	Go_X	0.0
557.863	1.0	go	0.405	Go_X	1.0
560.396	0.15	stop	0.335	Go_O	0.0
562.93	1.0	go	0.378	Go_O	1.0
565.463	1.0	go	0.359	Go_X	1.0
567.996	1.0	go	0.316	Go_O	1.0
570.529	1.0	go	0.306	Go_X	1.0
573.063	1.0	go	0.294	Go_O	1.0
575.596	1.0	go	0.38	Go_O	1.0
578.129	1.0	go	0.543	Go_X	0.0
580.663	0.1	stop	0.387	Go_X	0.0
583.212	1.0	go	0.582	Go_O	1.0
585.746	1.0	go	0.435	Go_X	1.0
588.279	1.0	go	0.497	Go_O	1.0
590.812	1.0	go	0.469	Go_X	1.0
593.346	0.05	stop	0.0	Go_O	1.0
595.895	1.0	go	0.433	Go_X	1.0
598.429	0.1	stop	0.0	Go_X	1.0
600.962	1.0	go	0.362	Go_O	1.0
603.495	1.0	go	0.383	Go_O	1.0
606.029	0.15	stop	0.325	Go_O	0.0
608.562	1.0	go	0.395	Go_X	1.0
611.095	1.0	go	0.399	Go_O	1.0
613.628	1.0	go	0.654	Go_X	1.0
616.162	1.0	go	0.481	Go_O	1.0
618.695	1.0	go	0.383	Go_X	1.0
621.229	1.0	go	0.61	Go_O	1.0
623.778	1.0	go	0.601	Go_X	1.0
626.311	1.0	go	0.418	Go_X	1.0
628.845	1.0	go	0.281	Go_O	1.0
631.378	1.0	go	0.422	Go_X	1.0
633.911	0.1	stop	0.0	Go_X	1.0
636.445	1.0	go	0.897	Go_O	1.0
638.978	1.0	go	0.497	Go_X	1.0
641.511	0.15	stop	0.0	Go_O	1.0
644.044	1.0	go	0.661	Go_O	1.0
646.578	0.2	stop	0.0	Go_X	1.0
649.111	1.0	go	0.484	Go_O	1.0
651.644	1.0	go	0.466	Go_X	1.0
654.177	0.25	stop	0.556	Go_O	0.0
656.711	1.0	go	0.426	Go_X	1.0
659.244	0.2	stop	0.46	Go_X	0.0
661.777	1.0	go	0.612	Go_O	1.0
664.311	1.0	go	0.561	Go_O	1.0
666.844	1.0	go	0.427	Go_X	1.0
669.377	0.15	stop	0.583	Go_O	0.0
671.91	1.0	go	0.502	Go_X	1.0
674.444	1.0	go	0.6	Go_O	0.0
676.977	1.0	go	0.628	Go_X	1.0
679.51	1.0	go	0.599	Go_O	1.0
682.043	0.1	stop	0.661	Go_X	0.0
684.577	1.0	go	0.498	Go_X	1.0
687.11	1.0	go	0.595	Go_O	1.0
689.643	0.05	stop	0.0	Go_O	1.0
692.177	1.0	go	0.49	Go_O	1.0
694.71	1.0	go	0.58	Go_X	0.0
697.243	1.0	go	0.536	Go_O	1.0
699.776	1.0	go	0.921	Go_X	1.0
702.31	0.1	stop	0.0	Go_X	1.0
704.843	1.0	go	0.382	Go_X	1.0
707.376	0.15	stop	0.0	Go_O	1.0
709.909	1.0	go	0.496	Go_O	1.0
712.443	1.0	go	0.393	Go_X	1.0
714.976	0.2	stop	0.415	Go_X	0.0
717.509	1.0	go	0.329	Go_O	1.0
720.043	1.0	go	0.386	Go_X	1.0
722.576	1.0	go	0.333	Go_O	1.0
725.109	1.0	go	0.431	Go_O	1.0
727.642	0.15	stop	0.0	Go_O	1.0
730.176	1.0	go	0.487	Go_X	1.0
732.709	0.2	stop	0.0	Go_X	1.0
735.242	1.0	go	0.48	Go_X	1.0
737.776	1.0	go	0.446	Go_O	1.0
740.325	1.0	go	0.526	Go_X	1.0
742.859	1.0	go	0.369	Go_O	1.0
745.392	1.0	go	0.477	Go_X	1.0
747.925	1.0	go	0.416	Go_O	1.0
750.459	0.25	stop	0.548	Go_O	0.0
752.992	1.0	go	0.49	Go_X	1.0
755.525	1.0	go	0.386	Go_O	1.0
758.058	0.2	stop	0.423	Go_X	0.0
760.592	1.0	go	0.762	Go_X	1.0
763.125	1.0	go	0.699	Go_O	1.0
765.658	0.15	stop	0.0	Go_O	1.0
768.191	1.0	go	0.584	Go_X	1.0
770.725	1.0	go	0.443	Go_O	1.0
773.258	1.0	go	0.645	Go_X	1.0
775.791	1.0	go	0.392	Go_O	1.0
778.325	0.2	stop	0.443	Go_X	0.0
780.858	1.0	go	0.819	Go_X	1.0
783.391	0.15	stop	0.0	Go_O	1.0
785.924	1.0	go	0.809	Go_O	1.0
788.458	1.0	go	0.493	Go_O	1.0
790.991	1.0	go	0.538	Go_X	1.0
793.524	1.0	go	0.702	Go_O	1.0
796.057	1.0	go	0.0	Go_X	0.0
798.591	0.2	stop	0.55	Go_X	0.0
801.124	1.0	go	0.0	Go_X	0.0
803.657	1.0	go	0.43	Go_O	1.0
806.191	0.15	stop	0.0	Go_O	1.0
808.724	0.2	stop	0.282	Go_X	0.0
811.257	1.0	go	0.336	Go_O	1.0
813.79	1.0	go	0.451	Go_X	1.0
816.324	1.0	go	0.562	Go_X	1.0
818.857	1.0	go	0.432	Go_O	1.0
821.39	0.15	stop	0.356	Go_O	0.0
823.924	1.0	go	0.314	Go_X	1.0
