onset	duration	trial_type	response_time	stim_file	accuracy
0.519999999999996	1.0	go	0.548	Go_O	1.0
3.0529999999999973	1.0	go	0.358	Go_X	1.0
5.586999999999989	1.0	go	0.436	Go_X	1.0
8.11999999999999	1.0	go	0.31	Go_O	1.0
10.652999999999992	1.0	go	0.3	Go_X	1.0
13.186999999999998	1.0	go	0.412	Go_O	1.0
15.73599999999999	0.25	stopfail	0.455	Go_O	0.0
18.269999999999996	1.0	go	0.557	Go_O	1.0
20.802999999999997	0.2	stopsuccess	0.0	Go_X	1.0
23.336	1.0	go	0.454	Go_X	1.0
25.86999999999999	1.0	go	0.392	Go_X	1.0
28.40299999999999	1.0	go	0.325	Go_O	1.0
30.935999999999993	0.25	stopfail	0.319	Go_O	0.0
33.468999999999994	1.0	go	0.388	Go_X	1.0
36.003	1.0	go	0.449	Go_O	1.0
38.53599999999999	0.2	stopfail	0.47	Go_X	0.0
41.06899999999999	0.15	stopsuccess	0.0	Go_O	1.0
43.60199999999999	1.0	go	0.392	Go_O	1.0
46.135999999999996	1.0	go	0.45	Go_X	1.0
48.669	0.2	stopfail	0.369	Go_X	0.0
51.202	1.0	go	0.457	Go_X	1.0
53.73599999999999	1.0	go	0.434	Go_O	1.0
56.26899999999999	0.15	stopsuccess	0.0	Go_O	1.0
58.80199999999999	1.0	go	0.522	Go_O	1.0
61.334999999999994	1.0	go	0.425	Go_X	1.0
63.868999999999986	0.2	stopsuccess	0.0	Go_X	1.0
66.402	1.0	go	0.397	Go_O	1.0
68.93499999999999	1.0	go	0.388	Go_X	1.0
71.468	0.25	stopsuccess	0.0	Go_O	1.0
74.01799999999999	1.0	go	0.481	Go_X	1.0
76.552	1.0	go	0.417	Go_O	1.0
79.085	1.0	go	0.512	Go_X	1.0
81.61799999999998	1.0	go	0.443	Go_O	1.0
84.152	1.0	go	0.473	Go_O	1.0
86.70100000000001	0.3	stopfail	0.439	Go_X	0.0
89.235	1.0	go	0.465	Go_X	1.0
91.76799999999999	1.0	go	0.592	Go_X	1.0
94.301	1.0	go	0.394	Go_O	1.0
96.835	1.0	go	0.443	Go_O	1.0
99.36799999999998	1.0	go	0.634	Go_X	1.0
101.901	0.25	stopsuccess	0.0	Go_O	1.0
104.43399999999998	1.0	go	0.438	Go_O	1.0
106.968	1.0	go	0.634	Go_X	1.0
109.50099999999999	1.0	go	0.509	Go_X	1.0
112.034	1.0	go	0.422	Go_O	1.0
114.567	1.0	go	0.613	Go_X	1.0
117.10099999999998	1.0	go	0.894	Go_O	1.0
119.634	0.3	stopfail	0.448	Go_X	0.0
122.16699999999999	1.0	go	0.439	Go_X	1.0
124.70100000000001	1.0	go	0.408	Go_O	1.0
127.234	0.25	stopsuccess	0.0	Go_O	1.0
129.767	1.0	go	0.403	Go_X	1.0
132.3	0.3	stopfail	0.438	Go_X	0.0
134.834	0.25	stopfail	0.386	Go_O	0.0
137.36700000000002	1.0	go	0.484	Go_O	1.0
139.89999999999998	1.0	go	0.433	Go_O	1.0
142.433	1.0	go	0.426	Go_X	1.0
144.96699999999998	1.0	go	0.58	Go_O	1.0
147.5	0.2	stopsuccess	0.0	Go_X	1.0
150.03300000000002	1.0	go	0.983	Go_X	1.0
152.567	0.25	stopsuccess	0.0	Go_O	1.0
155.09999999999997	1.0	go	0.416	Go_O	1.0
157.63299999999998	1.0	go	0.413	Go_X	1.0
160.166	1.0	go	0.513	Go_X	1.0
162.7	1.0	go	0.461	Go_O	1.0
165.233	1.0	go	0.48	Go_O	1.0
167.76600000000002	1.0	go	0.489	Go_X	1.0
170.3	1.0	go	0.464	Go_X	1.0
172.849	1.0	go	0.526	Go_O	1.0
175.38299999999998	1.0	go	0.718	Go_X	1.0
177.916	0.3	stopfail	0.444	Go_X	0.0
180.449	1.0	go	0.388	Go_O	1.0
182.983	1.0	go	0.545	Go_X	1.0
185.51600000000002	1.0	go	0.693	Go_O	1.0
188.04899999999998	0.25	stopfail	0.344	Go_O	0.0
190.582	1.0	go	0.623	Go_X	1.0
193.11599999999999	1.0	go	0.517	Go_O	1.0
195.649	1.0	go	0.429	Go_X	1.0
198.18200000000002	1.0	go	0.355	Go_O	1.0
200.71500000000003	1.0	go	0.47	Go_X	1.0
203.24900000000002	1.0	go	0.467	Go_O	1.0
205.78199999999998	0.2	stopfail	0.431	Go_X	0.0
208.315	1.0	go	0.567	Go_X	1.0
210.849	1.0	go	0.399	Go_O	1.0
213.382	0.15	stopfail	0.462	Go_O	0.0
215.91500000000002	1.0	go	0.413	Go_O	1.0
218.44800000000004	1.0	go	0.511	Go_X	1.0
220.98200000000003	0.1	stopsuccess	0.0	Go_X	1.0
223.515	1.0	go	0.497	Go_X	1.0
226.048	0.15	stopsuccess	0.0	Go_O	1.0
228.582	1.0	go	0.404	Go_O	1.0
231.13100000000003	1.0	go	0.633	Go_X	1.0
233.66500000000002	1.0	go	0.0	Go_O	0.0
236.19800000000004	1.0	go	0.462	Go_O	1.0
238.731	1.0	go	0.498	Go_X	1.0
241.265	0.2	stopsuccess	0.0	Go_X	1.0
243.81400000000002	0.25	stopfail	0.356	Go_O	0.0
246.36400000000003	1.0	go	0.393	Go_X	1.0
248.89800000000002	1.0	go	0.581	Go_O	1.0
251.43099999999998	0.2	stopfail	0.342	Go_X	0.0
253.964	1.0	go	0.367	Go_X	1.0
256.498	1.0	go	0.427	Go_O	1.0
259.047	1.0	go	0.394	Go_X	1.0
261.581	1.0	go	0.4	Go_O	1.0
264.11400000000003	1.0	go	0.604	Go_O	1.0
266.647	1.0	go	0.527	Go_X	1.0
269.181	0.15	stopsuccess	0.0	Go_O	1.0
271.714	1.0	go	0.378	Go_O	1.0
274.247	1.0	go	0.646	Go_X	1.0
276.78000000000003	1.0	go	0.479	Go_X	1.0
279.314	1.0	go	0.521	Go_O	1.0
281.847	1.0	go	0.456	Go_X	1.0
284.38	0.2	stopsuccess	0.0	Go_X	1.0
286.913	1.0	go	0.327	Go_O	1.0
289.447	1.0	go	0.439	Go_O	1.0
291.98	1.0	go	0.455	Go_X	1.0
294.51300000000003	1.0	go	0.593	Go_X	1.0
297.047	0.25	stopfail	0.556	Go_O	0.0
299.58	1.0	go	0.482	Go_O	1.0
302.113	1.0	go	0.31	Go_O	1.0
304.646	0.2	stopfail	0.368	Go_X	0.0
307.18	1.0	go	0.504	Go_X	1.0
309.713	0.15	stopsuccess	0.0	Go_O	1.0
312.246	1.0	go	0.299	Go_O	1.0
314.78000000000003	1.0	go	0.416	Go_X	1.0
317.329	1.0	go	0.576	Go_O	1.0
319.863	1.0	go	0.658	Go_X	1.0
322.396	1.0	go	0.683	Go_X	0.0
324.92900000000003	1.0	go	0.347	Go_O	1.0
327.463	1.0	go	0.0	Go_X	0.0
330.012	0.2	stopfail	0.344	Go_X	0.0
332.546	1.0	go	0.358	Go_O	1.0
335.079	1.0	go	0.426	Go_X	1.0
337.612	1.0	go	0.35	Go_O	1.0
340.146	0.15	stopsuccess	0.0	Go_O	1.0
342.67900000000003	1.0	go	0.469	Go_O	1.0
345.212	1.0	go	0.615	Go_X	1.0
347.745	1.0	go	0.473	Go_X	1.0
350.279	1.0	go	0.956	Go_O	1.0
352.812	0.2	stopsuccess	0.0	Go_X	1.0
355.345	1.0	go	0.347	Go_O	1.0
357.879	1.0	go	0.458	Go_X	1.0
360.428	0.25	stopfail	0.575	Go_O	0.0
362.962	1.0	go	0.663	Go_O	1.0
365.495	1.0	go	0.567	Go_X	1.0
368.028	0.2	stopsuccess	0.0	Go_X	1.0
370.562	1.0	go	0.504	Go_X	1.0
373.111	1.0	go	0.667	Go_O	1.0
375.645	0.25	stopfail	0.572	Go_O	0.0
378.178	1.0	go	0.5	Go_O	1.0
380.711	1.0	go	0.689	Go_X	1.0
383.245	1.0	go	0.563	Go_X	1.0
385.778	1.0	go	0.359	Go_O	1.0
388.31100000000004	1.0	go	0.388	Go_X	1.0
390.844	1.0	go	0.787	Go_O	1.0
393.378	0.2	stopsuccess	0.0	Go_X	1.0
395.911	1.0	go	0.485	Go_X	1.0
398.444	0.25	stopfail	0.492	Go_O	0.0
400.97700000000003	1.0	go	0.39	Go_O	1.0
403.511	1.0	go	0.682	Go_O	1.0
406.044	1.0	go	0.504	Go_X	1.0
408.577	1.0	go	0.342	Go_O	1.0
411.111	1.0	go	0.49	Go_X	1.0
413.644	0.2	stopfail	0.673	Go_X	0.0
416.177	1.0	go	0.426	Go_O	1.0
418.71	1.0	go	0.473	Go_X	0.0
421.244	1.0	go	0.5	Go_O	1.0
423.777	0.15	stopsuccess	0.0	Go_O	1.0
426.31	0.2	stopfail	0.421	Go_X	0.0
428.844	0.15	stopfail	0.701	Go_O	0.0
431.39300000000003	1.0	go	0.596	Go_X	1.0
433.927	0.1	stopsuccess	0.0	Go_X	1.0
436.46	1.0	go	0.585	Go_X	1.0
438.993	1.0	go	0.437	Go_O	1.0
441.527	1.0	go	0.768	Go_X	1.0
444.06	1.0	go	0.758	Go_O	1.0
446.593	1.0	go	0.555	Go_X	1.0
449.12600000000003	1.0	go	0.531	Go_O	1.0
451.66	1.0	go	0.618	Go_X	1.0
454.19300000000004	1.0	go	0.732	Go_O	1.0
456.72600000000006	0.15	stopsuccess	0.0	Go_O	1.0
459.25899999999996	1.0	go	0.703	Go_X	1.0
461.79300000000006	1.0	go	0.323	Go_O	1.0
464.32599999999996	0.2	stopfail	0.451	Go_X	0.0
466.859	1.0	go	0.707	Go_O	1.0
469.393	1.0	go	0.0	Go_X	0.0
471.926	1.0	go	0.352	Go_O	1.0
474.459	1.0	go	0.572	Go_X	0.0
476.992	1.0	go	0.37	Go_O	1.0
479.526	0.15	stopsuccess	0.0	Go_O	1.0
482.059	1.0	go	0.401	Go_X	1.0
484.59200000000004	1.0	go	0.436	Go_X	1.0
487.12500000000006	1.0	go	0.634	Go_O	0.0
489.65900000000005	0.2	stopfail	0.462	Go_X	0.0
492.19200000000006	1.0	go	0.405	Go_X	1.0
494.72499999999997	0.15	stopfail	0.335	Go_O	0.0
497.25899999999996	1.0	go	0.378	Go_O	1.0
499.792	1.0	go	0.359	Go_X	1.0
502.325	1.0	go	0.316	Go_O	1.0
504.858	1.0	go	0.306	Go_X	1.0
507.392	1.0	go	0.294	Go_O	1.0
509.925	1.0	go	0.38	Go_O	1.0
512.458	1.0	go	0.543	Go_X	0.0
514.992	0.1	stopfail	0.387	Go_X	0.0
517.5409999999999	1.0	go	0.582	Go_O	1.0
520.0749999999999	1.0	go	0.435	Go_X	1.0
522.608	1.0	go	0.497	Go_O	1.0
525.141	1.0	go	0.469	Go_X	1.0
527.675	0.05	stopsuccess	0.0	Go_O	1.0
530.2239999999999	1.0	go	0.433	Go_X	1.0
532.7579999999999	0.1	stopsuccess	0.0	Go_X	1.0
535.2909999999999	1.0	go	0.362	Go_O	1.0
537.824	1.0	go	0.383	Go_O	1.0
540.358	0.15	stopfail	0.325	Go_O	0.0
542.891	1.0	go	0.395	Go_X	1.0
545.424	1.0	go	0.399	Go_O	1.0
547.957	1.0	go	0.654	Go_X	1.0
550.491	1.0	go	0.481	Go_O	1.0
553.024	1.0	go	0.383	Go_X	1.0
555.558	1.0	go	0.61	Go_O	1.0
558.107	1.0	go	0.601	Go_X	1.0
560.64	1.0	go	0.418	Go_X	1.0
563.174	1.0	go	0.281	Go_O	1.0
565.707	1.0	go	0.422	Go_X	1.0
568.2399999999999	0.1	stopsuccess	0.0	Go_X	1.0
570.774	1.0	go	0.897	Go_O	1.0
573.3069999999999	1.0	go	0.497	Go_X	1.0
575.8399999999999	0.15	stopsuccess	0.0	Go_O	1.0
578.3729999999999	1.0	go	0.661	Go_O	1.0
580.9069999999999	0.2	stopsuccess	0.0	Go_X	1.0
583.4399999999999	1.0	go	0.484	Go_O	1.0
585.973	1.0	go	0.466	Go_X	1.0
588.506	0.25	stopfail	0.556	Go_O	0.0
591.04	1.0	go	0.426	Go_X	1.0
593.573	0.2	stopfail	0.46	Go_X	0.0
596.106	1.0	go	0.612	Go_O	1.0
598.64	1.0	go	0.561	Go_O	1.0
601.173	1.0	go	0.427	Go_X	1.0
603.7059999999999	0.15	stopfail	0.583	Go_O	0.0
606.2389999999999	1.0	go	0.502	Go_X	1.0
608.7729999999999	1.0	go	0.6	Go_O	0.0
611.3059999999999	1.0	go	0.628	Go_X	1.0
613.8389999999999	1.0	go	0.599	Go_O	1.0
616.372	0.1	stopfail	0.661	Go_X	0.0
618.906	1.0	go	0.498	Go_X	1.0
621.439	1.0	go	0.595	Go_O	1.0
623.972	0.05	stopsuccess	0.0	Go_O	1.0
626.506	1.0	go	0.49	Go_O	1.0
629.039	1.0	go	0.58	Go_X	0.0
631.572	1.0	go	0.536	Go_O	1.0
634.1049999999999	1.0	go	0.921	Go_X	1.0
636.6389999999999	0.1	stopsuccess	0.0	Go_X	1.0
639.1719999999999	1.0	go	0.382	Go_X	1.0
641.7049999999999	0.15	stopsuccess	0.0	Go_O	1.0
644.2379999999999	1.0	go	0.496	Go_O	1.0
646.7719999999999	1.0	go	0.393	Go_X	1.0
649.305	0.2	stopfail	0.415	Go_X	0.0
651.838	1.0	go	0.329	Go_O	1.0
654.372	1.0	go	0.386	Go_X	1.0
656.905	1.0	go	0.333	Go_O	1.0
659.438	1.0	go	0.431	Go_O	1.0
661.971	0.15	stopsuccess	0.0	Go_O	1.0
664.505	1.0	go	0.487	Go_X	1.0
667.0379999999999	0.2	stopsuccess	0.0	Go_X	1.0
669.5709999999999	1.0	go	0.48	Go_X	1.0
672.1049999999999	1.0	go	0.446	Go_O	1.0
674.654	1.0	go	0.526	Go_X	1.0
677.188	1.0	go	0.369	Go_O	1.0
679.721	1.0	go	0.477	Go_X	1.0
682.2539999999999	1.0	go	0.416	Go_O	1.0
684.7879999999999	0.25	stopfail	0.548	Go_O	0.0
687.3209999999999	1.0	go	0.49	Go_X	1.0
689.8539999999999	1.0	go	0.386	Go_O	1.0
692.387	0.2	stopfail	0.423	Go_X	0.0
694.9209999999999	1.0	go	0.762	Go_X	1.0
697.454	1.0	go	0.699	Go_O	1.0
699.987	0.15	stopsuccess	0.0	Go_O	1.0
702.52	1.0	go	0.584	Go_X	1.0
705.054	1.0	go	0.443	Go_O	1.0
707.587	1.0	go	0.645	Go_X	1.0
710.12	1.0	go	0.392	Go_O	1.0
712.654	0.2	stopfail	0.443	Go_X	0.0
715.1869999999999	1.0	go	0.819	Go_X	1.0
717.7199999999999	0.15	stopsuccess	0.0	Go_O	1.0
720.2529999999999	1.0	go	0.809	Go_O	1.0
722.7869999999999	1.0	go	0.493	Go_O	1.0
725.3199999999999	1.0	go	0.538	Go_X	1.0
727.853	1.0	go	0.702	Go_O	1.0
730.386	1.0	go	0.0	Go_X	0.0
732.92	0.2	stopfail	0.55	Go_X	0.0
735.453	1.0	go	0.0	Go_X	0.0
737.986	1.0	go	0.43	Go_O	1.0
740.52	0.15	stopsuccess	0.0	Go_O	1.0
743.053	0.2	stopfail	0.282	Go_X	0.0
745.5859999999999	1.0	go	0.336	Go_O	1.0
748.1189999999999	1.0	go	0.451	Go_X	1.0
750.6529999999999	1.0	go	0.562	Go_X	1.0
753.1859999999999	1.0	go	0.432	Go_O	1.0
755.7189999999999	0.15	stopfail	0.356	Go_O	0.0
758.2529999999999	1.0	go	0.314	Go_X	1.0
