onset	duration	trial_type	response_time	stim_file	accuracy
154.931	1.0	go	0.585	Go_X	1.0
157.522	1.0	go	0.379	Go_O	1.0
160.046	1.0	go	0.416	Go_O	1.0
162.57	1.0	go	0.409	Go_X	1.0
165.094	1.0	go	0.43	Go_X	1.0
167.619	1.0	go	0.492	Go_O	1.0
170.143	0.25	stopsuccess	0.0	Go_O	1.0
172.667	1.0	go	0.504	Go_O	1.0
175.191	0.3	stopfail	0.366	Go_X	0.0
177.715	1.0	go	0.487	Go_X	1.0
180.24	1.0	go	0.458	Go_X	1.0
182.764	1.0	go	0.37	Go_O	1.0
185.288	0.25	stopfail	0.443	Go_O	0.0
187.812	1.0	go	0.413	Go_O	1.0
190.337	1.0	go	0.39	Go_X	1.0
192.861	0.2	stopsuccess	0.0	Go_X	1.0
195.385	0.25	stopsuccess	0.0	Go_O	1.0
197.909	1.0	go	0.445	Go_X	0.0
200.433	1.0	go	0.493	Go_O	1.0
202.958	0.3	stopfail	0.444	Go_X	0.0
205.482	1.0	go	0.568	Go_X	1.0
208.006	1.0	go	0.445	Go_O	1.0
210.53	0.25	stopsuccess	0.0	Go_O	1.0
213.054	1.0	go	0.507	Go_O	1.0
215.579	1.0	go	0.588	Go_X	1.0
218.103	0.3	stopfail	0.475	Go_X	0.0
220.627	1.0	go	0.865	Go_X	1.0
223.151	1.0	go	0.417	Go_O	1.0
225.676	0.25	stopsuccess	0.0	Go_O	1.0
228.2	1.0	go	0.498	Go_X	1.0
230.724	1.0	go	0.536	Go_O	1.0
233.248	1.0	go	0.595	Go_O	1.0
235.772	1.0	go	0.446	Go_X	1.0
238.297	1.0	go	0.462	Go_X	1.0
240.821	0.3	stopfail	0.554	Go_X	0.0
243.345	1.0	go	0.551	Go_O	1.0
245.869	1.0	go	0.595	Go_X	1.0
248.393	1.0	go	0.567	Go_O	1.0
250.918	1.0	go	0.529	Go_X	1.0
253.442	1.0	go	0.498	Go_O	1.0
255.966	0.25	stopsuccess	0.0	Go_O	1.0
258.49	1.0	go	0.494	Go_O	1.0
261.015	1.0	go	0.438	Go_X	1.0
263.539	1.0	go	0.441	Go_X	1.0
266.063	1.0	go	0.409	Go_O	1.0
268.587	1.0	go	0.525	Go_O	1.0
271.111	1.0	go	0.577	Go_X	1.0
273.636	0.3	stopsuccess	0.0	Go_X	1.0
276.16	1.0	go	0.444	Go_O	1.0
278.684	1.0	go	0.567	Go_X	1.0
281.208	0.35	stopfail	0.505	Go_O	0.0
283.732	1.0	go	0.606	Go_X	1.0
286.257	0.3	stopsuccess	0.0	Go_X	1.0
288.781	0.35	stopfail	0.55	Go_O	0.0
291.305	1.0	go	0.548	Go_O	1.0
293.829	1.0	go	0.52	Go_X	1.0
296.354	1.0	go	0.602	Go_O	1.0
298.878	1.0	go	0.483	Go_O	1.0
301.402	0.3	stopsuccess	0.0	Go_X	1.0
303.926	1.0	go	0.42	Go_X	1.0
306.45	0.35	stopfail	0.399	Go_O	0.0
308.975	1.0	go	0.771	Go_O	1.0
311.499	1.0	go	0.639	Go_X	1.0
314.023	1.0	go	0.477	Go_O	1.0
316.547	1.0	go	0.62	Go_X	1.0
319.071	1.0	go	0.436	Go_O	1.0
321.596	1.0	go	0.416	Go_X	1.0
324.12	1.0	go	0.445	Go_O	1.0
326.644	1.0	go	0.677	Go_X	1.0
329.168	1.0	go	0.506	Go_O	1.0
331.693	0.3	stopfail	0.365	Go_X	0.0
334.217	1.0	go	0.576	Go_X	1.0
336.741	1.0	go	0.405	Go_X	1.0
339.265	1.0	go	0.693	Go_O	1.0
341.789	0.25	stopfail	0.438	Go_O	0.0
344.314	1.0	go	0.437	Go_O	1.0
346.838	1.0	go	0.495	Go_X	1.0
349.362	1.0	go	0.507	Go_O	1.0
351.886	1.0	go	0.634	Go_X	0.0
354.41	1.0	go	0.739	Go_O	1.0
356.935	1.0	go	0.478	Go_X	1.0
359.459	0.2	stopsuccess	0.0	Go_X	1.0
361.983	1.0	go	0.449	Go_O	1.0
364.507	1.0	go	0.399	Go_X	1.0
367.032	0.25	stopsuccess	0.0	Go_O	1.0
369.556	1.0	go	0.657	Go_O	1.0
372.08	1.0	go	0.347	Go_X	1.0
374.604	0.3	stopsuccess	0.0	Go_X	1.0
377.128	1.0	go	0.434	Go_X	1.0
379.653	0.35	stopfail	0.377	Go_O	0.0
382.177	1.0	go	0.453	Go_O	1.0
384.701	1.0	go	0.626	Go_X	1.0
387.225	1.0	go	0.72	Go_O	1.0
389.749	1.0	go	0.505	Go_O	1.0
392.274	1.0	go	0.364	Go_X	1.0
394.798	0.3	stopfail	0.471	Go_X	0.0
397.322	0.25	stopsuccess	0.0	Go_O	1.0
399.846	1.0	go	0.657	Go_O	1.0
402.371	1.0	go	0.463	Go_X	1.0
404.895	0.3	stopsuccess	0.0	Go_X	1.0
407.419	1.0	go	0.462	Go_X	1.0
409.943	1.0	go	0.582	Go_O	1.0
412.467	1.0	go	0.665	Go_O	1.0
414.992	1.0	go	0.561	Go_X	1.0
417.516	1.0	go	0.406	Go_X	0.0
420.04	1.0	go	0.52	Go_O	1.0
422.564	0.35	stopfail	0.497	Go_O	0.0
425.088	1.0	go	0.0	Go_X	0.0
427.613	1.0	go	0.464	Go_O	1.0
430.137	1.0	go	0.457	Go_X	1.0
432.661	1.0	go	0.0	Go_O	0.0
435.185	1.0	go	0.524	Go_X	1.0
437.71	0.3	stopsuccess	0.0	Go_X	1.0
440.234	1.0	go	0.384	Go_O	1.0
442.758	1.0	go	0.568	Go_X	1.0
445.282	1.0	go	0.479	Go_O	1.0
447.806	1.0	go	0.505	Go_O	1.0
450.331	0.35	stopfail	0.553	Go_O	0.0
452.855	1.0	go	0.537	Go_X	1.0
455.379	1.0	go	0.475	Go_O	1.0
457.903	0.3	stopfail	0.536	Go_X	0.0
460.427	1.0	go	0.527	Go_X	1.0
462.952	0.25	stopsuccess	0.0	Go_O	1.0
465.476	1.0	go	0.832	Go_O	1.0
468.0	1.0	go	0.486	Go_X	1.0
470.524	1.0	go	0.479	Go_O	1.0
473.049	1.0	go	0.444	Go_X	1.0
475.573	1.0	go	0.484	Go_X	1.0
478.097	1.0	go	0.0	Go_O	0.0
480.621	1.0	go	0.499	Go_O	1.0
483.145	0.3	stopfail	0.51	Go_X	0.0
485.67	1.0	go	0.513	Go_X	1.0
488.194	1.0	go	0.822	Go_X	1.0
490.718	1.0	go	0.554	Go_O	1.0
493.242	0.25	stopsuccess	0.0	Go_O	1.0
495.766	1.0	go	0.549	Go_O	1.0
498.291	1.0	go	0.503	Go_X	1.0
500.815	1.0	go	0.495	Go_O	1.0
503.339	1.0	go	0.466	Go_X	1.0
505.863	0.3	stopsuccess	0.0	Go_X	1.0
508.388	1.0	go	0.502	Go_O	1.0
510.912	1.0	go	0.477	Go_X	1.0
513.436	0.35	stopfail	0.514	Go_O	0.0
515.96	1.0	go	0.481	Go_O	1.0
518.484	1.0	go	0.476	Go_X	1.0
521.009	0.3	stopfail	0.637	Go_X	0.0
523.533	1.0	go	0.496	Go_O	1.0
526.057	1.0	go	0.627	Go_X	1.0
528.581	0.25	stopsuccess	0.0	Go_O	1.0
531.105	1.0	go	0.544	Go_X	0.0
533.63	1.0	go	0.366	Go_O	1.0
536.154	1.0	go	0.48	Go_O	1.0
538.678	1.0	go	0.467	Go_X	1.0
541.202	1.0	go	0.507	Go_X	0.0
543.727	1.0	go	0.484	Go_O	1.0
546.251	0.3	stopfail	0.668	Go_X	0.0
548.775	1.0	go	0.558	Go_O	1.0
551.299	0.25	stopsuccess	0.0	Go_O	1.0
553.823	1.0	go	0.737	Go_X	1.0
556.348	1.0	go	0.486	Go_O	1.0
558.872	1.0	go	0.484	Go_X	1.0
561.396	1.0	go	0.527	Go_O	1.0
563.92	1.0	go	0.669	Go_X	1.0
566.444	0.3	stopfail	0.469	Go_X	0.0
568.969	1.0	go	0.548	Go_X	1.0
571.493	1.0	go	0.462	Go_O	1.0
574.017	1.0	go	0.398	Go_X	1.0
576.541	0.25	stopsuccess	0.0	Go_O	1.0
579.066	0.3	stopfail	0.43	Go_X	0.0
581.59	0.25	stopsuccess	0.0	Go_O	1.0
584.114	1.0	go	0.524	Go_O	1.0
586.638	0.3	stopfail	0.49	Go_X	0.0
589.162	1.0	go	0.557	Go_X	1.0
591.687	1.0	go	0.468	Go_O	1.0
594.211	1.0	go	0.496	Go_O	1.0
596.735	1.0	go	0.492	Go_X	1.0
599.259	1.0	go	0.651	Go_O	1.0
601.783	1.0	go	0.4	Go_X	1.0
604.308	1.0	go	0.664	Go_O	1.0
606.849	1.0	go	0.371	Go_X	1.0
609.373	0.25	stopsuccess	0.0	Go_O	1.0
611.897	1.0	go	0.589	Go_O	1.0
614.421	1.0	go	0.702	Go_X	1.0
616.945	0.3	stopsuccess	0.0	Go_X	1.0
619.47	1.0	go	0.528	Go_O	1.0
621.994	1.0	go	0.724	Go_X	1.0
624.518	1.0	go	0.565	Go_X	1.0
627.042	1.0	go	0.604	Go_O	1.0
629.567	1.0	go	0.586	Go_O	1.0
632.091	0.35	stopfail	0.453	Go_O	0.0
634.615	1.0	go	0.379	Go_X	1.0
637.139	1.0	go	0.545	Go_X	1.0
639.663	1.0	go	0.504	Go_O	1.0
642.188	0.3	stopfail	0.547	Go_X	0.0
644.712	1.0	go	0.563	Go_X	0.0
647.236	0.25	stopfail	0.544	Go_O	0.0
649.76	1.0	go	0.531	Go_O	1.0
652.284	1.0	go	0.481	Go_X	1.0
654.809	1.0	go	0.608	Go_O	1.0
657.333	1.0	go	0.37	Go_X	1.0
659.857	1.0	go	0.423	Go_O	1.0
662.381	1.0	go	0.509	Go_X	1.0
664.905	1.0	go	0.395	Go_O	1.0
667.43	0.2	stopsuccess	0.0	Go_X	1.0
669.954	1.0	go	0.478	Go_X	1.0
672.478	1.0	go	0.493	Go_O	1.0
675.002	1.0	go	0.681	Go_O	1.0
677.527	1.0	go	0.368	Go_X	1.0
680.051	0.25	stopsuccess	0.0	Go_O	1.0
682.575	1.0	go	0.549	Go_O	1.0
685.099	0.3	stopfail	0.362	Go_X	0.0
687.623	1.0	go	0.519	Go_X	1.0
690.148	1.0	go	0.669	Go_O	1.0
692.672	0.25	stopfail	0.49	Go_O	0.0
695.196	1.0	go	0.554	Go_X	1.0
697.72	1.0	go	0.531	Go_X	1.0
700.244	1.0	go	0.483	Go_O	1.0
702.769	1.0	go	0.589	Go_O	1.0
705.293	1.0	go	0.548	Go_X	1.0
707.817	1.0	go	0.634	Go_O	1.0
710.341	1.0	go	0.569	Go_X	1.0
712.866	1.0	go	0.731	Go_O	1.0
715.39	1.0	go	0.531	Go_X	1.0
717.914	1.0	go	0.61	Go_O	1.0
720.438	0.2	stopsuccess	0.0	Go_X	1.0
722.962	1.0	go	0.62	Go_X	1.0
725.487	1.0	go	0.636	Go_X	1.0
728.011	0.25	stopsuccess	0.0	Go_O	1.0
730.535	1.0	go	0.707	Go_O	1.0
733.059	0.3	stopfail	0.57	Go_X	0.0
735.583	1.0	go	0.0	Go_X	0.0
738.108	1.0	go	0.366	Go_O	1.0
740.632	0.25	stopsuccess	0.0	Go_O	1.0
743.156	1.0	go	0.474	Go_X	1.0
745.68	0.3	stopfail	0.415	Go_X	0.0
748.205	1.0	go	0.511	Go_O	1.0
750.729	1.0	go	0.584	Go_X	1.0
753.253	1.0	go	0.593	Go_O	1.0
755.794	0.25	stopsuccess	0.0	Go_O	1.0
758.318	1.0	go	0.801	Go_X	1.0
760.842	1.0	go	0.494	Go_O	1.0
763.367	1.0	go	0.63	Go_O	1.0
765.891	1.0	go	0.646	Go_X	1.0
768.415	0.3	stopsuccess	0.0	Go_X	1.0
770.939	1.0	go	0.46	Go_X	1.0
773.463	1.0	go	0.587	Go_O	1.0
775.988	0.35	stopfail	0.505	Go_O	0.0
778.512	1.0	go	0.557	Go_O	1.0
781.036	1.0	go	0.504	Go_X	1.0
783.56	1.0	go	0.665	Go_O	1.0
786.084	1.0	go	0.557	Go_X	1.0
788.609	0.3	stopsuccess	0.0	Go_X	1.0
791.133	1.0	go	0.673	Go_O	1.0
793.657	0.35	stopsuccess	0.0	Go_O	1.0
796.181	1.0	go	0.426	Go_X	1.0
798.706	1.0	go	0.491	Go_O	1.0
801.23	0.4	stopsuccess	0.0	Go_X	1.0
803.754	1.0	go	0.46	Go_X	1.0
806.278	1.0	go	0.584	Go_X	1.0
808.802	1.0	go	0.516	Go_O	1.0
811.327	1.0	go	0.452	Go_X	1.0
813.851	0.45	stopfail	0.486	Go_O	0.0
816.375	1.0	go	0.507	Go_O	1.0
818.899	0.4	stopfail	0.478	Go_X	0.0
821.423	1.0	go	0.0	Go_X	0.0
823.948	1.0	go	0.391	Go_O	1.0
826.472	1.0	go	0.502	Go_O	1.0
828.996	1.0	go	0.439	Go_X	1.0
831.52	1.0	go	0.485	Go_X	1.0
834.045	1.0	go	0.511	Go_O	1.0
836.569	0.35	stopsuccess	0.0	Go_O	1.0
839.093	1.0	go	0.496	Go_X	1.0
841.617	1.0	go	0.695	Go_O	1.0
844.141	0.4	stopfail	0.455	Go_X	0.0
846.666	1.0	go	0.636	Go_X	1.0
849.19	1.0	go	0.491	Go_O	1.0
851.714	0.35	stopfail	0.525	Go_O	0.0
854.238	1.0	go	0.683	Go_X	1.0
856.762	1.0	go	0.815	Go_O	1.0
859.287	1.0	go	0.496	Go_X	1.0
861.811	1.0	go	0.579	Go_O	1.0
864.335	0.3	stopfail	0.346	Go_X	0.0
866.859	1.0	go	0.745	Go_X	1.0
869.384	0.25	stopsuccess	0.0	Go_O	1.0
871.908	1.0	go	0.657	Go_O	1.0
874.432	1.0	go	0.578	Go_O	1.0
876.956	1.0	go	0.791	Go_X	1.0
879.48	1.0	go	0.573	Go_X	1.0
882.005	1.0	go	0.659	Go_O	1.0
884.529	0.3	stopsuccess	0.0	Go_X	1.0
887.053	1.0	go	0.522	Go_O	1.0
889.577	1.0	go	0.612	Go_X	1.0
892.101	0.35	stopsuccess	0.0	Go_O	1.0
894.626	0.4	stopfail	0.392	Go_X	0.0
897.15	1.0	go	0.437	Go_O	1.0
899.674	1.0	go	0.453	Go_X	1.0
902.198	1.0	go	0.778	Go_X	1.0
904.723	1.0	go	0.667	Go_O	1.0
907.247	0.35	stopsuccess	0.0	Go_O	1.0
909.771	1.0	go	0.768	Go_O	1.0
