frame	onset	duration	trial_type	event_type	response_type	response_time	stim_file	accuracy
0	86.049		control-noreward	ImageDisplay1		0.0		
0	88.039		control-noreward	StartDisplay		0.0		
0	88.774		control-noreward	ImageDisplay2		0.0		
0	92.034		control-noreward	ChoiceDisplay		0.0		
0	93.639		control-noreward	ChosenDisplay		0.0		
0	93.689		control-noreward	TurnDisplay				
0	93.889		control-noreward	OutcomeDisplay				
1	94.625		control-reward	ImageDisplay1		0.0		
1	96.882		control-reward	StartDisplay		0.0		
1	97.634		control-reward	ImageDisplay2		0.0		
1	100.626		control-reward	ChoiceDisplay		0.0		
1	102.231		control-reward	ChosenDisplay		0.0		
1	102.248		control-reward	TurnDisplay				
1	102.482		control-reward	OutcomeDisplay				
2	103.234		loss-reward	ImageDisplay1		0.0		
2	105.474		loss-reward	StartDisplay		0.0		
2	106.226		loss-reward	ImageDisplay2		0.0		
2	109.235		loss-reward	ChoiceDisplay		0.0		
2	110.84		loss-reward	ChosenDisplay		0.0		
2	110.89		loss-reward	TurnDisplay				
2	111.074		loss-reward	OutcomeDisplay				
3	111.826		control-reward	ImageDisplay1		0.0		
3	114.083		control-reward	StartDisplay		0.0		
3	114.835		control-reward	ImageDisplay2		0.0		
3	117.828		control-reward	ChoiceDisplay	3	0.399	3	3
3	118.246		control-reward	ChosenDisplay		0.0		
3	119.432		control-reward	TurnDisplay				
3	119.683		control-reward	OutcomeDisplay				
4	120.435		loss-reward	ImageDisplay1		0.0		
4	122.675		loss-reward	StartDisplay		0.0		
4	123.428		loss-reward	ImageDisplay2		0.0		
4	126.437		loss-reward	ChoiceDisplay	3	0.923	3	3
4	127.373		loss-reward	ChosenDisplay		0.0		
4	128.041		loss-reward	TurnDisplay				
4	128.292		loss-reward	OutcomeDisplay				
5	129.044		loss-reward	ImageDisplay1		0.0		
5	131.284		loss-reward	StartDisplay		0.0		
5	132.037		loss-reward	ImageDisplay2		0.0		
5	135.046		loss-reward	ChoiceDisplay	3	0.849	3	3
5	135.915		loss-reward	ChosenDisplay		0.0		
5	136.651		loss-reward	TurnDisplay				
5	136.901		loss-reward	OutcomeDisplay				
6	137.654		control-reward	ImageDisplay1		0.0		
6	139.894		control-reward	StartDisplay		0.0		
6	140.646		control-reward	ImageDisplay2		0.0		
6	143.655		control-reward	ChoiceDisplay	3	0.669	3	3
6	144.34		control-reward	ChosenDisplay		0.0		
6	145.26		control-reward	TurnDisplay				
6	145.51		control-reward	OutcomeDisplay				
7	146.263		win-reward	ImageDisplay1		0.0		
7	148.503		win-reward	StartDisplay		0.0		
7	149.255		win-reward	ImageDisplay2		0.0		
7	152.264		win-reward	ChoiceDisplay	3	0.688	3	3
7	152.966		win-reward	ChosenDisplay		0.0		
7	153.869		win-reward	TurnDisplay				
7	154.119		win-reward	OutcomeDisplay				
8	154.872		control-noreward	ImageDisplay1		0.0		
8	156.861		control-noreward	StartDisplay		0.0		
8	157.613		control-noreward	ImageDisplay2		0.0		
8	160.873		control-noreward	ChoiceDisplay	3	1.182	3	3
8	162.077		control-noreward	ChosenDisplay		0.0		
8	162.478		control-noreward	TurnDisplay				
8	162.729		control-noreward	OutcomeDisplay				
9	163.481		win-noreward	ImageDisplay1		0.0		
9	165.47		win-noreward	StartDisplay		0.0		
9	166.222		win-noreward	ImageDisplay2		0.0		
9	169.482		win-noreward	ChoiceDisplay	3	1.092	3	3
9	170.585		win-noreward	ChosenDisplay		0.0		
9	171.087		win-noreward	TurnDisplay				
9	171.338		win-noreward	OutcomeDisplay				
10	172.09		win-noreward	ImageDisplay1		0.0		
10	174.079		win-noreward	StartDisplay		0.0		
10	174.831		win-noreward	ImageDisplay2		0.0		
10	178.091		win-noreward	ChoiceDisplay	3	1.148	3	3
10	179.261		win-noreward	ChosenDisplay		0.0		
10	179.696		win-noreward	TurnDisplay				
10	179.947		win-noreward	OutcomeDisplay				
11	180.699		loss-noreward	ImageDisplay1		0.0		
11	182.688		loss-noreward	StartDisplay		0.0		
11	183.44		loss-noreward	ImageDisplay2		0.0		
11	186.7		loss-noreward	ChoiceDisplay	3	0.974	3	3
11	187.686		loss-noreward	ChosenDisplay		0.0		
11	188.305		loss-noreward	TurnDisplay				
11	188.556		loss-noreward	OutcomeDisplay				
12	189.308		control-reward	ImageDisplay1		0.0		
12	191.548		control-reward	StartDisplay		0.0		
12	192.3		control-reward	ImageDisplay2		0.0		
12	195.309		control-reward	ChoiceDisplay	3	0.61	3	3
12	195.944		control-reward	ChosenDisplay		0.0		
12	196.914		control-reward	TurnDisplay				
12	197.165		control-reward	OutcomeDisplay				
13	197.917		loss-reward	ImageDisplay1		0.0		
13	200.157		loss-reward	StartDisplay		0.0		
13	200.909		loss-reward	ImageDisplay2		0.0		
13	203.918		loss-reward	ChoiceDisplay	3	0.798	3	3
13	204.737		loss-reward	ChosenDisplay		0.0		
13	205.523		loss-reward	TurnDisplay				
13	205.774		loss-reward	OutcomeDisplay				
14	206.526		control-noreward	ImageDisplay1		0.0		
14	208.515		control-noreward	StartDisplay		0.0		
14	209.268		control-noreward	ImageDisplay2		0.0		
14	212.527		control-noreward	ChoiceDisplay	3	0.725	3	3
14	213.263		control-noreward	ChosenDisplay		0.0		
14	214.132		control-noreward	TurnDisplay				
14	214.383		control-noreward	OutcomeDisplay				
15	215.135		loss-reward	ImageDisplay1		0.0		
15	217.375		loss-reward	StartDisplay		0.0		
15	218.127		loss-reward	ImageDisplay2		0.0		
15	221.136		loss-reward	ChoiceDisplay	3	0.896	3	3
15	222.056		loss-reward	ChosenDisplay		0.0		
15	222.741		loss-reward	TurnDisplay				
15	222.992		loss-reward	OutcomeDisplay				
16	223.744		loss-noreward	ImageDisplay1		0.0		
16	225.734		loss-noreward	StartDisplay		0.0		
16	226.486		loss-noreward	ImageDisplay2		0.0		
16	229.746		loss-noreward	ChoiceDisplay	3	1.147	3	3
16	230.916		loss-noreward	ChosenDisplay		0.0		
16	231.35		loss-noreward	TurnDisplay				
16	231.601		loss-noreward	OutcomeDisplay				
17	232.353		loss-reward	ImageDisplay1		0.0		
17	234.593		loss-reward	StartDisplay		0.0		
17	235.346		loss-reward	ImageDisplay2		0.0		
17	238.355		loss-reward	ChoiceDisplay	3	0.766	3	3
17	239.14		loss-reward	ChosenDisplay		0.0		
17	239.959		loss-reward	TurnDisplay				
17	240.21		loss-reward	OutcomeDisplay				
18	240.962		win-reward	ImageDisplay1		0.0		
18	243.202		win-reward	StartDisplay		0.0		
18	243.955		win-reward	ImageDisplay2		0.0		
18	246.964		win-reward	ChoiceDisplay	3	0.737	3	3
18	247.716		win-reward	ChosenDisplay		0.0		
18	248.568		win-reward	TurnDisplay				
18	248.819		win-reward	OutcomeDisplay				
19	249.572		loss-reward	ImageDisplay1		0.0		
19	251.812		loss-reward	StartDisplay		0.0		
19	252.564		loss-reward	ImageDisplay2		0.0		
19	255.573		loss-reward	ChoiceDisplay	3	1.064	3	3
19	256.659		loss-reward	ChosenDisplay		0.0		
19	257.178		loss-reward	TurnDisplay				
19	257.428		loss-reward	OutcomeDisplay				
20	258.181		loss-reward	ImageDisplay1		0.0		
20	260.421		loss-reward	StartDisplay		0.0		
20	261.173		loss-reward	ImageDisplay2		0.0		
20	264.182		loss-reward	ChoiceDisplay	3	1.069	3	3
20	265.268		loss-reward	ChosenDisplay		0.0		
20	265.787		loss-reward	TurnDisplay				
20	266.037		loss-reward	OutcomeDisplay				
21	266.79		control-noreward	ImageDisplay1		0.0		
21	268.779		control-noreward	StartDisplay		0.0		
21	269.531		control-noreward	ImageDisplay2		0.0		
21	272.791		control-noreward	ChoiceDisplay	3	0.641	3	3
21	273.443		control-noreward	ChosenDisplay		0.0		
21	274.396		control-noreward	TurnDisplay				
21	274.646		control-noreward	OutcomeDisplay				
22	275.399		loss-reward	ImageDisplay1		0.0		
22	277.639		loss-reward	StartDisplay		0.0		
22	278.391		loss-reward	ImageDisplay2		0.0		
22	281.4		loss-reward	ChoiceDisplay	3	0.56	3	3
22	281.985		loss-reward	ChosenDisplay		0.0		
22	283.005		loss-reward	TurnDisplay				
22	283.256		loss-reward	OutcomeDisplay				
23	284.008		loss-reward	ImageDisplay1		0.0		
23	286.248		loss-reward	StartDisplay		0.0		
23	287.0		loss-reward	ImageDisplay2		0.0		
23	290.009		loss-reward	ChoiceDisplay	3	1.058	3	3
23	291.079		loss-reward	ChosenDisplay		0.0		
23	291.614		loss-reward	TurnDisplay				
23	291.865		loss-reward	OutcomeDisplay				
24	292.617		loss-noreward	ImageDisplay1		0.0		
24	294.606		loss-noreward	StartDisplay		0.0		
24	295.358		loss-noreward	ImageDisplay2		0.0		
24	298.618		loss-noreward	ChoiceDisplay	3	0.927	3	3
24	299.571		loss-noreward	ChosenDisplay		0.0		
24	300.223		loss-noreward	TurnDisplay				
24	300.474		loss-noreward	OutcomeDisplay				
25	301.226		control-reward	ImageDisplay1		0.0		
25	303.466		control-reward	StartDisplay		0.0		
25	304.218		control-reward	ImageDisplay2		0.0		
25	307.227		control-reward	ChoiceDisplay	3	0.405	3	3
25	307.645		control-reward	ChosenDisplay		0.0		
25	308.832		control-reward	TurnDisplay				
25	309.083		control-reward	OutcomeDisplay				
26	309.835		control-noreward	ImageDisplay1		0.0		
26	311.824		control-noreward	StartDisplay		0.0		
26	312.577		control-noreward	ImageDisplay2		0.0		
26	315.836		control-noreward	ChoiceDisplay	3	0.85	3	3
26	316.706		control-noreward	ChosenDisplay		0.0		
26	317.441		control-noreward	TurnDisplay				
26	317.692		control-noreward	OutcomeDisplay				
27	318.444		win-noreward	ImageDisplay1		0.0		
27	320.433		win-noreward	StartDisplay		0.0		
27	321.186		win-noreward	ImageDisplay2		0.0		
27	324.445		win-noreward	ChoiceDisplay	3	0.755	3	3
27	325.214		win-noreward	ChosenDisplay		0.0		
27	326.05		win-noreward	TurnDisplay				
27	326.301		win-noreward	OutcomeDisplay				
28	327.053		loss-reward	ImageDisplay1		0.0		
28	329.293		loss-reward	StartDisplay		0.0		
28	330.045		loss-reward	ImageDisplay2		0.0		
28	333.054		loss-reward	ChoiceDisplay	3	0.863	3	3
28	333.94		loss-reward	ChosenDisplay		0.0		
28	334.659		loss-reward	TurnDisplay				
28	334.91		loss-reward	OutcomeDisplay				
29	335.662		loss-noreward	ImageDisplay1		0.0		
29	337.652		loss-noreward	StartDisplay		0.0		
29	338.404		loss-noreward	ImageDisplay2		0.0		
29	341.664		loss-noreward	ChoiceDisplay	3	0.821	3	3
29	342.499		loss-noreward	ChosenDisplay		0.0		
29	343.268		loss-noreward	TurnDisplay				
29	343.519		loss-noreward	OutcomeDisplay				
30	344.271		loss-noreward	ImageDisplay1		0.0		
30	346.261		loss-noreward	StartDisplay		0.0		
30	347.013		loss-noreward	ImageDisplay2		0.0		
30	350.273		loss-noreward	ChoiceDisplay	3	0.633	3	3
30	350.925		loss-noreward	ChosenDisplay		0.0		
30	351.877		loss-noreward	TurnDisplay				
30	352.128		loss-noreward	OutcomeDisplay				
31	352.88		control-noreward	ImageDisplay1		0.0		
31	354.87		control-noreward	StartDisplay		0.0		
31	355.622		control-noreward	ImageDisplay2		0.0		
31	358.882		control-noreward	ChoiceDisplay	3	0.93	3	3
31	359.835		control-noreward	ChosenDisplay		0.0		
31	360.486		control-noreward	TurnDisplay				
31	360.737		control-noreward	OutcomeDisplay				
32	361.489		loss-noreward	ImageDisplay1		0.0		
32	363.479		loss-noreward	StartDisplay		0.0		
32	364.231		loss-noreward	ImageDisplay2		0.0		
32	367.491		loss-noreward	ChoiceDisplay	3	0.936	3	3
32	368.444		loss-noreward	ChosenDisplay		0.0		
32	369.096		loss-noreward	TurnDisplay				
32	369.346		loss-noreward	OutcomeDisplay				
33	370.099		control-noreward	ImageDisplay1		0.0		
33	372.088		control-noreward	StartDisplay		0.0		
33	372.84		control-noreward	ImageDisplay2		0.0		
33	376.1		control-noreward	ChoiceDisplay	3	0.42	3	3
33	376.534		control-noreward	ChosenDisplay		0.0		
33	377.705		control-noreward	TurnDisplay				
33	377.955		control-noreward	OutcomeDisplay				
34	378.708		loss-noreward	ImageDisplay1		0.0		
34	380.697		loss-noreward	StartDisplay		0.0		
34	381.449		loss-noreward	ImageDisplay2		0.0		
34	384.709		loss-noreward	ChoiceDisplay	3	0.764	3	3
34	385.495		loss-noreward	ChosenDisplay		0.0		
34	386.314		loss-noreward	TurnDisplay				
34	386.564		loss-noreward	OutcomeDisplay				
35	387.317		loss-noreward	ImageDisplay1		0.0		
35	389.306		loss-noreward	StartDisplay		0.0		
35	390.058		loss-noreward	ImageDisplay2		0.0		
35	393.318		loss-noreward	ChoiceDisplay	3	1.063	3	3
35	394.405		loss-noreward	ChosenDisplay		0.0		
35	394.923		loss-noreward	TurnDisplay				
35	395.174		loss-noreward	OutcomeDisplay				
36	395.926		control-noreward	ImageDisplay1		0.0		
36	397.915		control-noreward	StartDisplay		0.0		
36	398.667		control-noreward	ImageDisplay2		0.0		
36	401.927		control-noreward	ChoiceDisplay	3	0.57	3	3
36	402.512		control-noreward	ChosenDisplay		0.0		
36	403.532		control-noreward	TurnDisplay				
36	403.783		control-noreward	OutcomeDisplay				
37	404.535		win-noreward	ImageDisplay1		0.0		
37	406.524		win-noreward	StartDisplay		0.0		
37	407.276		win-noreward	ImageDisplay2		0.0		
37	410.536		win-noreward	ChoiceDisplay	3	0.866	3	3
37	411.422		win-noreward	ChosenDisplay		0.0		
37	412.141		win-noreward	TurnDisplay				
37	412.392		win-noreward	OutcomeDisplay				
38	413.144		loss-reward	ImageDisplay1		0.0		
38	415.384		loss-reward	StartDisplay		0.0		
38	416.136		loss-reward	ImageDisplay2		0.0		
38	419.145		loss-reward	ChoiceDisplay	3	0.491	3	3
38	419.663		loss-reward	ChosenDisplay		0.0		
38	420.75		loss-reward	TurnDisplay				
38	421.001		loss-reward	OutcomeDisplay				
39	421.753		win-noreward	ImageDisplay1		0.0		
39	423.742		win-noreward	StartDisplay		0.0		
39	424.495		win-noreward	ImageDisplay2		0.0		
39	427.754		win-noreward	ChoiceDisplay	3	0.553	3	3
39	428.323		win-noreward	ChosenDisplay		0.0		
39	429.359		win-noreward	TurnDisplay				
39	429.61		win-noreward	OutcomeDisplay				
40	430.362		control-reward	ImageDisplay1		0.0		
40	432.602		control-reward	StartDisplay		0.0		
40	433.354		control-reward	ImageDisplay2		0.0		
40	436.363		control-reward	ChoiceDisplay	3	0.483	3	3
40	436.865		control-reward	ChosenDisplay		0.0		
40	437.968		control-reward	TurnDisplay				
40	438.219		control-reward	OutcomeDisplay				
41	438.971		win-reward	ImageDisplay1		0.0		
41	441.211		win-reward	StartDisplay		0.0		
41	441.963		win-reward	ImageDisplay2		0.0		
41	444.972		win-reward	ChoiceDisplay	3	1.091	3	3
41	446.076		win-reward	ChosenDisplay		0.0		
41	446.577		win-reward	TurnDisplay				
41	446.828		win-reward	OutcomeDisplay				
42	447.58		win-reward	ImageDisplay1		0.0		
42	449.82		win-reward	StartDisplay		0.0		
42	450.572		win-reward	ImageDisplay2		0.0		
42	453.581		win-reward	ChoiceDisplay	3	1.036	3	3
42	454.635		win-reward	ChosenDisplay		0.0		
42	455.186		win-reward	TurnDisplay				
42	455.437		win-reward	OutcomeDisplay				
43	456.189		win-noreward	ImageDisplay1		0.0		
43	458.179		win-noreward	StartDisplay		0.0		
43	458.931		win-noreward	ImageDisplay2		0.0		
43	462.191		win-noreward	ChoiceDisplay	3	1.401	3	3
43	463.611		win-noreward	ChosenDisplay		0.0		
43	463.795		win-noreward	TurnDisplay				
43	464.046		win-noreward	OutcomeDisplay				
44	464.798		win-noreward	ImageDisplay1		0.0		
44	466.788		win-noreward	StartDisplay		0.0		
44	467.54		win-noreward	ImageDisplay2		0.0		
44	470.8		win-noreward	ChoiceDisplay	3	0.918	3	3
44	471.736		win-noreward	ChosenDisplay		0.0		
44	472.404		win-noreward	TurnDisplay				
44	472.655		win-noreward	OutcomeDisplay				
45	473.407		control-reward	ImageDisplay1		0.0		
45	475.647		control-reward	StartDisplay		0.0		
45	476.4		control-reward	ImageDisplay2		0.0		
45	479.409		control-reward	ChoiceDisplay	3	0.603	3	3
45	480.027		control-reward	ChosenDisplay		0.0		
45	481.014		control-reward	TurnDisplay				
45	481.264		control-reward	OutcomeDisplay				
46	482.016		win-reward	ImageDisplay1		0.0		
46	484.257		win-reward	StartDisplay		0.0		
46	485.009		win-reward	ImageDisplay2		0.0		
46	488.018		win-reward	ChoiceDisplay	3	1.031	3	3
46	489.071		win-reward	ChosenDisplay		0.0		
46	489.623		win-reward	TurnDisplay				
46	489.873		win-reward	OutcomeDisplay				
47	490.626		control-reward	ImageDisplay1		0.0		
47	492.866		control-reward	StartDisplay		0.0		
47	493.618		control-reward	ImageDisplay2		0.0		
47	496.627		control-reward	ChoiceDisplay	3	0.922	3	3
47	497.563		control-reward	ChosenDisplay		0.0		
47	498.232		control-reward	TurnDisplay				
47	498.482		control-reward	OutcomeDisplay				
48	499.235		win-reward	ImageDisplay1		0.0		
48	501.475		win-reward	StartDisplay		0.0		
48	502.227		win-reward	ImageDisplay2		0.0		
48	505.236		win-reward	ChoiceDisplay	3	0.897	3	3
48	506.155		win-reward	ChosenDisplay		0.0		
48	506.841		win-reward	TurnDisplay				
48	507.091		win-reward	OutcomeDisplay				
49	507.844		loss-noreward	ImageDisplay1		0.0		
49	509.833		loss-noreward	StartDisplay		0.0		
49	510.585		loss-noreward	ImageDisplay2		0.0		
49	513.845		loss-noreward	ChoiceDisplay	3	0.891	3	3
49	514.748		loss-noreward	ChosenDisplay		0.0		
49	515.45		loss-noreward	TurnDisplay				
49	515.701		loss-noreward	OutcomeDisplay				
50	516.453		control-noreward	ImageDisplay1		0.0		
50	518.442		control-noreward	StartDisplay		0.0		
50	519.194		control-noreward	ImageDisplay2		0.0		
50	522.454		control-noreward	ChoiceDisplay	3	0.283	3	3
50	522.755		control-noreward	ChosenDisplay		0.0		
50	524.059		control-noreward	TurnDisplay				
50	524.31		control-noreward	OutcomeDisplay				
51	525.062		win-noreward	ImageDisplay1		0.0		
51	527.051		win-noreward	StartDisplay		0.0		
51	527.803		win-noreward	ImageDisplay2		0.0		
51	531.063		win-noreward	ChoiceDisplay	3	1.01	3	3
51	532.1		win-noreward	ChosenDisplay		0.0		
51	532.668		win-noreward	TurnDisplay				
51	532.919		win-noreward	OutcomeDisplay				
52	533.671		win-reward	ImageDisplay1		0.0		
52	535.911		win-reward	StartDisplay		0.0		
52	536.663		win-reward	ImageDisplay2		0.0		
52	539.672		win-reward	ChoiceDisplay	3	1.024	3	3
52	540.709		win-reward	ChosenDisplay		0.0		
52	541.277		win-reward	TurnDisplay				
52	541.528		win-reward	OutcomeDisplay				
53	542.28		win-reward	ImageDisplay1		0.0		
53	544.52		win-reward	StartDisplay		0.0		
53	545.272		win-reward	ImageDisplay2		0.0		
53	548.281		win-reward	ChoiceDisplay	3	1.19	3	3
53	549.485		win-reward	ChosenDisplay		0.0		
53	549.886		win-reward	TurnDisplay				
53	550.137		win-reward	OutcomeDisplay				
54	550.889		win-reward	ImageDisplay1		0.0		
54	553.129		win-reward	StartDisplay		0.0		
54	553.881		win-reward	ImageDisplay2		0.0		
54	556.89		win-reward	ChoiceDisplay	3	1.095	3	3
54	558.01		win-reward	ChosenDisplay		0.0		
54	558.495		win-reward	TurnDisplay				
54	558.746		win-reward	OutcomeDisplay				
55	559.498		loss-reward	ImageDisplay1		0.0		
55	561.738		loss-reward	StartDisplay		0.0		
55	562.49		loss-reward	ImageDisplay2		0.0		
55	565.499		loss-reward	ChoiceDisplay	3	0.842	3	3
55	566.352		loss-reward	ChosenDisplay		0.0		
55	567.104		loss-reward	TurnDisplay				
55	567.355		loss-reward	OutcomeDisplay				
56	568.107		control-noreward	ImageDisplay1		0.0		
56	570.097		control-noreward	StartDisplay		0.0		
56	570.849		control-noreward	ImageDisplay2		0.0		
56	574.109		control-noreward	ChoiceDisplay	3	0.536	3	3
56	574.66		control-noreward	ChosenDisplay		0.0		
56	575.713		control-noreward	TurnDisplay				
56	575.964		control-noreward	OutcomeDisplay				
57	576.716		control-noreward	ImageDisplay1		0.0		
57	578.706		control-noreward	StartDisplay		0.0		
57	579.458		control-noreward	ImageDisplay2		0.0		
57	582.718		control-noreward	ChoiceDisplay	3	0.664	3	3
57	583.403		control-noreward	ChosenDisplay		0.0		
57	584.322		control-noreward	TurnDisplay				
57	584.573		control-noreward	OutcomeDisplay				
58	585.325		control-reward	ImageDisplay1		0.0		
58	587.565		control-reward	StartDisplay		0.0		
58	588.318		control-reward	ImageDisplay2		0.0		
58	591.327		control-reward	ChoiceDisplay	3	0.33	3	3
58	591.678		control-reward	ChosenDisplay		0.0		
58	592.931		control-reward	TurnDisplay				
58	593.182		control-reward	OutcomeDisplay				
59	593.934		win-noreward	ImageDisplay1		0.0		
59	595.924		win-noreward	StartDisplay		0.0		
59	596.676		win-noreward	ImageDisplay2		0.0		
59	599.936		win-noreward	ChoiceDisplay		0.0		
59	601.524		win-noreward	ChosenDisplay		0.0		
59	601.541		win-noreward	TurnDisplay				
59	601.791		win-noreward	OutcomeDisplay				
60	602.527		win-reward	ImageDisplay1		0.0		
60	604.784		win-reward	StartDisplay		0.0		
60	605.536		win-reward	ImageDisplay2		0.0		
60	608.528		win-reward	ChoiceDisplay	3	0.74	3	3
60	609.28		win-reward	ChosenDisplay		0.0		
60	610.133		win-reward	TurnDisplay				
60	610.384		win-reward	OutcomeDisplay				
61	611.136		control-noreward	ImageDisplay1		0.0		
61	613.125		control-noreward	StartDisplay		0.0		
61	613.877		control-noreward	ImageDisplay2		0.0		
61	617.137		control-noreward	ChoiceDisplay	3	0.579	3	3
61	617.739		control-noreward	ChosenDisplay		0.0		
61	618.742		control-noreward	TurnDisplay				
61	618.993		control-noreward	OutcomeDisplay				
62	619.745		win-reward	ImageDisplay1		0.0		
62	621.985		win-reward	StartDisplay		0.0		
62	622.737		win-reward	ImageDisplay2		0.0		
62	625.746		win-reward	ChoiceDisplay	3	1.077	3	3
62	626.85		win-reward	ChosenDisplay		0.0		
62	627.351		win-reward	TurnDisplay				
62	627.602		win-reward	OutcomeDisplay				
63	628.354		win-noreward	ImageDisplay1		0.0		
63	630.343		win-noreward	StartDisplay		0.0		
63	631.096		win-noreward	ImageDisplay2		0.0		
63	634.355		win-noreward	ChoiceDisplay	3	1.182	3	3
63	635.559		win-noreward	ChosenDisplay		0.0		
63	635.96		win-noreward	TurnDisplay				
63	636.211		win-noreward	OutcomeDisplay				
64	636.963		control-noreward	ImageDisplay1		0.0		
64	638.952		control-noreward	StartDisplay		0.0		
64	639.705		control-noreward	ImageDisplay2		0.0		
64	642.964		control-noreward	ChoiceDisplay	3	0.43	3	3
64	643.416		control-noreward	ChosenDisplay		0.0		
64	644.569		control-noreward	TurnDisplay				
64	644.82		control-noreward	OutcomeDisplay				
65	645.572		loss-noreward	ImageDisplay1		0.0		
65	647.561		loss-noreward	StartDisplay		0.0		
65	648.314		loss-noreward	ImageDisplay2		0.0		
65	651.573		loss-noreward	ChoiceDisplay	3	0.83	3	3
65	652.426		loss-noreward	ChosenDisplay		0.0		
65	653.178		loss-noreward	TurnDisplay				
65	653.429		loss-noreward	OutcomeDisplay				
66	654.181		win-reward	ImageDisplay1		0.0		
66	656.421		win-reward	StartDisplay		0.0		
66	657.174		win-reward	ImageDisplay2		0.0		
66	660.183		win-reward	ChoiceDisplay	3	1.055	3	3
66	661.252		win-reward	ChosenDisplay		0.0		
66	661.787		win-reward	TurnDisplay				
66	662.038		win-reward	OutcomeDisplay				
67	662.79		loss-noreward	ImageDisplay1		0.0		
67	664.78		loss-noreward	StartDisplay		0.0		
67	665.532		loss-noreward	ImageDisplay2		0.0		
67	668.792		loss-noreward	ChoiceDisplay	3	0.888	3	3
67	669.694		loss-noreward	ChosenDisplay		0.0		
67	670.396		loss-noreward	TurnDisplay				
67	670.647		loss-noreward	OutcomeDisplay				
68	671.399		loss-noreward	ImageDisplay1		0.0		
68	673.389		loss-noreward	StartDisplay		0.0		
68	674.141		loss-noreward	ImageDisplay2		0.0		
68	677.401		loss-noreward	ChoiceDisplay	3	0.896	3	3
68	678.32		loss-noreward	ChosenDisplay		0.0		
68	679.005		loss-noreward	TurnDisplay				
68	679.256		loss-noreward	OutcomeDisplay				
69	680.008		win-noreward	ImageDisplay1		0.0		
69	681.998		win-noreward	StartDisplay		0.0		
69	682.75		win-noreward	ImageDisplay2		0.0		
69	686.01		win-noreward	ChoiceDisplay	3	0.783	3	3
69	686.812		win-noreward	ChosenDisplay		0.0		
69	687.615		win-noreward	TurnDisplay				
69	687.865		win-noreward	OutcomeDisplay				
70	688.618		loss-reward	ImageDisplay1		0.0		
70	690.858		loss-reward	StartDisplay		0.0		
70	691.61		loss-reward	ImageDisplay2		0.0		
70	694.619		loss-reward	ChoiceDisplay	3	1.183	3	3
70	695.822		loss-reward	ChosenDisplay		0.0		
70	696.224		loss-reward	TurnDisplay				
70	696.474		loss-reward	OutcomeDisplay				
71	697.227		win-reward	ImageDisplay1		0.0		
71	699.467		win-reward	StartDisplay		0.0		
71	700.219		win-reward	ImageDisplay2		0.0		
71	703.228		win-reward	ChoiceDisplay	3	1.148	3	3
71	704.398		win-reward	ChosenDisplay		0.0		
71	704.833		win-reward	TurnDisplay				
71	705.083		win-reward	OutcomeDisplay				
72	705.836		win-reward	ImageDisplay1		0.0		
72	708.076		win-reward	StartDisplay		0.0		
72	708.828		win-reward	ImageDisplay2		0.0		
72	711.837		win-reward	ChoiceDisplay	3	1.122	3	3
72	712.974		win-reward	ChosenDisplay		0.0		
72	713.442		win-reward	TurnDisplay				
72	713.692		win-reward	OutcomeDisplay				
73	714.445		win-noreward	ImageDisplay1		0.0		
73	716.434		win-noreward	StartDisplay		0.0		
73	717.186		win-noreward	ImageDisplay2		0.0		
73	720.446		win-noreward	ChoiceDisplay	3	1.271	3	3
73	721.733		win-noreward	ChosenDisplay		0.0		
73	722.051		win-noreward	TurnDisplay				
73	722.302		win-noreward	OutcomeDisplay				
74	723.054		control-noreward	ImageDisplay1		0.0		
74	725.043		control-noreward	StartDisplay		0.0		
74	725.795		control-noreward	ImageDisplay2		0.0		
74	729.055		control-noreward	ChoiceDisplay	3	0.334	3	3
74	729.406		control-noreward	ChosenDisplay		0.0		
74	730.66		control-noreward	TurnDisplay				
74	730.911		control-noreward	OutcomeDisplay				
75	731.663		loss-noreward	ImageDisplay1		0.0		
75	733.652		loss-noreward	StartDisplay		0.0		
75	734.404		loss-noreward	ImageDisplay2		0.0		
75	737.664		loss-noreward	ChoiceDisplay	3	0.703	3	3
75	738.383		loss-noreward	ChosenDisplay		0.0		
75	739.269		loss-noreward	TurnDisplay				
75	739.52		loss-noreward	OutcomeDisplay				
76	740.272		loss-reward	ImageDisplay1		0.0		
76	742.512		loss-reward	StartDisplay		0.0		
76	743.264		loss-reward	ImageDisplay2		0.0		
76	746.273		loss-reward	ChoiceDisplay	3	0.581	3	3
76	746.875		loss-reward	ChosenDisplay		0.0		
76	747.878		loss-reward	TurnDisplay				
76	748.129		loss-reward	OutcomeDisplay				
77	748.881		win-noreward	ImageDisplay1		0.0		
77	750.87		win-noreward	StartDisplay		0.0		
77	751.623		win-noreward	ImageDisplay2		0.0		
77	754.882		win-noreward	ChoiceDisplay	3	0.548	3	3
77	755.451		win-noreward	ChosenDisplay		0.0		
77	756.487		win-noreward	TurnDisplay				
77	756.738		win-noreward	OutcomeDisplay				
78	757.49		control-noreward	ImageDisplay1		0.0		
78	759.479		control-noreward	StartDisplay		0.0		
78	760.232		control-noreward	ImageDisplay2		0.0		
78	763.491		control-noreward	ChoiceDisplay	3	0.85	3	3
78	764.361		control-noreward	ChosenDisplay		0.0		
78	765.096		control-noreward	TurnDisplay				
78	765.347		control-noreward	OutcomeDisplay				
79	766.099		win-noreward	ImageDisplay1		0.0		
79	768.088		win-noreward	StartDisplay		0.0		
79	768.841		win-noreward	ImageDisplay2		0.0		
79	772.101		win-noreward	ChoiceDisplay	3	0.977	3	3
79	773.103		win-noreward	ChosenDisplay		0.0		
79	773.705		win-noreward	TurnDisplay				
79	773.956		win-noreward	OutcomeDisplay				
80	774.708		loss-reward	ImageDisplay1		0.0		
80	776.948		loss-reward	StartDisplay		0.0		
80	777.701		loss-reward	ImageDisplay2		0.0		
80	780.71		loss-reward	ChoiceDisplay	3	0.757	3	3
80	781.479		loss-reward	ChosenDisplay		0.0		
80	782.314		loss-reward	TurnDisplay				
80	782.565		loss-reward	OutcomeDisplay				
81	783.317		control-reward	ImageDisplay1		0.0		
81	785.557		control-reward	StartDisplay		0.0		
81	786.31		control-reward	ImageDisplay2		0.0		
81	789.319		control-reward	ChoiceDisplay	3	0.629	3	3
81	789.971		control-reward	ChosenDisplay		0.0		
81	790.923		control-reward	TurnDisplay				
81	791.174		control-reward	OutcomeDisplay				
82	791.926		loss-reward	ImageDisplay1		0.0		
82	794.166		loss-reward	StartDisplay		0.0		
82	794.919		loss-reward	ImageDisplay2		0.0		
82	797.928		loss-reward	ChoiceDisplay	3	1.409	3	3
82	799.349		loss-reward	ChosenDisplay		0.0		
82	799.533		loss-reward	TurnDisplay				
82	799.783		loss-reward	OutcomeDisplay				
83	800.536		control-reward	ImageDisplay1		0.0		
83	802.776		control-reward	StartDisplay		0.0		
83	803.528		control-reward	ImageDisplay2		0.0		
83	806.537		control-reward	ChoiceDisplay	3	0.349	3	3
83	806.905		control-reward	ChosenDisplay		0.0		
83	808.142		control-reward	TurnDisplay				
83	808.392		control-reward	OutcomeDisplay				
84	809.145		control-reward	ImageDisplay1		0.0		
84	811.385		control-reward	StartDisplay		0.0		
84	812.137		control-reward	ImageDisplay2		0.0		
84	815.146		control-reward	ChoiceDisplay	3	0.912	3	3
84	816.082		control-reward	ChosenDisplay		0.0		
84	816.751		control-reward	TurnDisplay				
84	817.001		control-reward	OutcomeDisplay				
85	817.754		win-reward	ImageDisplay1		0.0		
85	819.994		win-reward	StartDisplay		0.0		
85	820.746		win-reward	ImageDisplay2		0.0		
85	823.755		win-reward	ChoiceDisplay		0.0		
85	825.343		win-reward	ChosenDisplay		0.0		
85	825.36		win-reward	TurnDisplay				
85	825.594		win-reward	OutcomeDisplay				
86	826.346		loss-noreward	ImageDisplay1		0.0		
86	828.352		loss-noreward	StartDisplay		0.0		
86	829.104		loss-noreward	ImageDisplay2		0.0		
86	832.347		loss-noreward	ChoiceDisplay	3	0.819	3	3
86	833.183		loss-noreward	ChosenDisplay		0.0		
86	833.952		loss-noreward	TurnDisplay				
86	834.203		loss-noreward	OutcomeDisplay				
87	834.955		win-reward	ImageDisplay1		0.0		
87	837.195		win-reward	StartDisplay		0.0		
87	837.947		win-reward	ImageDisplay2		0.0		
87	840.956		win-reward	ChoiceDisplay	3	1.017	3	3
87	841.993		win-reward	ChosenDisplay		0.0		
87	842.561		win-reward	TurnDisplay				
87	842.812		win-reward	OutcomeDisplay				
88	843.564		win-reward	ImageDisplay1		0.0		
88	845.804		win-reward	StartDisplay		0.0		
88	846.556		win-reward	ImageDisplay2		0.0		
88	849.565		win-reward	ChoiceDisplay	3	0.818	3	3
88	850.401		win-reward	ChosenDisplay		0.0		
88	851.17		win-reward	TurnDisplay				
88	851.421		win-reward	OutcomeDisplay				
89	852.173		control-reward	ImageDisplay1		0.0		
89	854.413		control-reward	StartDisplay		0.0		
89	855.165		control-reward	ImageDisplay2		0.0		
89	858.175		control-reward	ChoiceDisplay	3	0.757	3	3
89	858.943		control-reward	ChosenDisplay		0.0		
89	859.779		control-reward	TurnDisplay				
89	860.03		control-reward	OutcomeDisplay				
90	860.782		loss-reward	ImageDisplay1		0.0		
90	863.022		loss-reward	StartDisplay		0.0		
90	863.775		loss-reward	ImageDisplay2		0.0		
90	866.784		loss-reward	ChoiceDisplay	3	0.814	3	3
90	867.619		loss-reward	ChosenDisplay		0.0		
90	868.388		loss-reward	TurnDisplay				
90	868.639		loss-reward	OutcomeDisplay				
91	869.391		control-noreward	ImageDisplay1		0.0		
91	871.381		control-noreward	StartDisplay		0.0		
91	872.133		control-noreward	ImageDisplay2		0.0		
91	875.393		control-noreward	ChoiceDisplay	3	0.414	3	3
91	875.827		control-noreward	ChosenDisplay		0.0		
91	876.997		control-noreward	TurnDisplay				
91	877.248		control-noreward	OutcomeDisplay				
92	878.0		control-reward	ImageDisplay1		0.0		
92	880.24		control-reward	StartDisplay		0.0		
92	880.993		control-reward	ImageDisplay2		0.0		
92	884.002		control-reward	ChoiceDisplay	3	0.377	3	3
92	884.403		control-reward	ChosenDisplay		0.0		
92	885.607		control-reward	TurnDisplay				
92	885.857		control-reward	OutcomeDisplay				
93	886.61		control-reward	ImageDisplay1		0.0		
93	888.85		control-reward	StartDisplay		0.0		
93	889.602		control-reward	ImageDisplay2		0.0		
93	892.611		control-reward	ChoiceDisplay	3	0.602	3	3
93	893.229		control-reward	ChosenDisplay		0.0		
93	894.216		control-reward	TurnDisplay				
93	894.466		control-reward	OutcomeDisplay				
94	895.219		control-reward	ImageDisplay1		0.0		
94	897.459		control-reward	StartDisplay		0.0		
94	898.211		control-reward	ImageDisplay2		0.0		
94	901.22		control-reward	ChoiceDisplay	3	0.836	3	3
94	902.072		control-reward	ChosenDisplay		0.0		
94	902.825		control-reward	TurnDisplay				
94	903.075		control-reward	OutcomeDisplay				
95	903.828		win-reward	ImageDisplay1		0.0		
95	906.068		win-reward	StartDisplay		0.0		
95	906.82		win-reward	ImageDisplay2		0.0		
95	909.829		win-reward	ChoiceDisplay	3	1.238	3	3
95	911.083		win-reward	ChosenDisplay		0.0		
95	911.434		win-reward	TurnDisplay				
95	911.684		win-reward	OutcomeDisplay				
