onset	duration	trial_type	response_time	stim_file	accuracy
90.116	1.0	go	0.491	Go_X	1.0
92.649	1.0	go	0.475	Go_O	1.0
95.182	1.0	go	0.476	Go_O	1.0
97.715	1.0	go	0.468	Go_X	1.0
100.249	1.0	go	0.309	Go_O	1.0
102.782	1.0	go	0.351	Go_X	1.0
105.315	0.25	stop	0.309	Go_O	0.0
107.848	1.0	go	0.517	Go_O	1.0
110.382	0.2	stop	0.417	Go_X	0.0
112.915	1.0	go	0.534	Go_X	1.0
115.448	1.0	go	0.428	Go_X	1.0
117.981	1.0	go	0.453	Go_O	1.0
120.515	0.15	stop	0.0	Go_O	1.0
123.048	1.0	go	0.378	Go_O	1.0
125.581	1.0	go	0.559	Go_X	1.0
128.114	0.2	stop	0.0	Go_X	1.0
130.648	0.25	stop	0.39	Go_O	0.0
133.181	1.0	go	0.381	Go_X	0.0
135.714	1.0	go	0.501	Go_O	0.0
138.247	0.2	stop	0.405	Go_X	0.0
140.781	1.0	go	0.441	Go_O	1.0
143.314	1.0	go	0.527	Go_X	1.0
145.847	0.15	stop	0.0	Go_O	1.0
148.38	1.0	go	0.437	Go_X	1.0
150.914	1.0	go	0.56	Go_O	1.0
153.447	0.2	stop	0.0	Go_X	1.0
155.98	1.0	go	0.489	Go_O	1.0
158.513	1.0	go	0.48	Go_X	1.0
161.047	0.25	stop	0.0	Go_O	1.0
163.58	1.0	go	0.626	Go_O	1.0
166.113	1.0	go	0.361	Go_X	1.0
168.646	1.0	go	0.397	Go_O	1.0
171.18	1.0	go	0.485	Go_X	1.0
173.713	1.0	go	0.682	Go_O	1.0
176.246	0.3	stop	0.541	Go_X	0.0
178.779	1.0	go	0.495	Go_X	1.0
181.313	1.0	go	0.587	Go_O	1.0
183.846	1.0	go	0.852	Go_X	1.0
186.379	1.0	go	0.609	Go_O	1.0
188.912	1.0	go	0.686	Go_X	1.0
191.446	0.25	stop	0.374	Go_O	0.0
193.979	1.0	go	0.529	Go_X	1.0
196.512	1.0	go	0.32	Go_O	1.0
199.046	1.0	go	0.478	Go_O	1.0
201.595	1.0	go	0.688	Go_X	1.0
204.129	1.0	go	0.491	Go_X	1.0
206.662	1.0	go	0.0	Go_O	0.0
209.195	0.2	stop	0.0	Go_X	1.0
211.728	1.0	go	0.467	Go_X	1.0
214.262	1.0	go	0.334	Go_O	1.0
216.795	0.25	stop	0.44	Go_O	0.0
219.328	1.0	go	0.387	Go_O	1.0
221.861	0.2	stop	0.0	Go_X	1.0
224.395	0.25	stop	0.0	Go_O	1.0
226.928	1.0	go	0.633	Go_X	1.0
229.461	1.0	go	0.377	Go_O	1.0
231.994	1.0	go	0.0	Go_X	0.0
234.528	1.0	go	0.489	Go_O	1.0
237.061	0.3	stop	0.0	Go_X	1.0
239.594	1.0	go	0.42	Go_X	1.0
242.127	0.35	stop	0.411	Go_O	0.0
244.661	1.0	go	0.808	Go_X	1.0
247.194	1.0	go	0.344	Go_O	1.0
249.727	1.0	go	0.477	Go_O	1.0
252.26	1.0	go	0.659	Go_X	1.0
254.794	1.0	go	0.538	Go_X	1.0
257.327	1.0	go	0.398	Go_O	1.0
259.86	1.0	go	0.408	Go_O	1.0
262.393	1.0	go	0.542	Go_X	1.0
264.927	1.0	go	0.44	Go_X	1.0
267.46	0.3	stop	0.419	Go_X	0.0
269.993	1.0	go	0.441	Go_O	1.0
272.526	1.0	go	0.435	Go_O	1.0
275.06	1.0	go	0.427	Go_X	1.0
277.593	0.25	stop	0.376	Go_O	0.0
280.126	1.0	go	0.597	Go_X	1.0
282.66	1.0	go	0.359	Go_O	1.0
285.209	1.0	go	0.448	Go_O	1.0
287.743	1.0	go	0.467	Go_X	1.0
290.276	1.0	go	0.317	Go_O	1.0
292.809	1.0	go	0.639	Go_X	1.0
295.342	0.2	stop	0.0	Go_X	1.0
297.876	1.0	go	0.373	Go_X	1.0
300.409	1.0	go	0.587	Go_O	1.0
302.942	0.25	stop	0.0	Go_O	1.0
305.475	1.0	go	0.815	Go_O	1.0
308.009	1.0	go	0.369	Go_X	1.0
310.542	0.3	stop	0.555	Go_X	0.0
313.075	1.0	go	0.344	Go_X	1.0
315.608	0.25	stop	0.0	Go_O	1.0
318.142	1.0	go	0.556	Go_O	1.0
320.675	1.0	go	0.801	Go_X	1.0
323.208	1.0	go	0.744	Go_O	0.0
325.741	1.0	go	0.0	Go_X	0.0
328.275	1.0	go	0.533	Go_O	1.0
330.808	0.3	stop	0.0	Go_X	1.0
333.341	0.35	stop	0.0	Go_O	1.0
335.874	1.0	go	0.693	Go_O	1.0
338.408	1.0	go	0.585	Go_X	1.0
340.941	0.4	stop	0.633	Go_X	0.0
343.474	1.0	go	0.503	Go_O	1.0
346.007	1.0	go	0.816	Go_X	1.0
348.541	1.0	go	0.79	Go_X	1.0
351.074	1.0	go	0.488	Go_O	1.0
353.607	1.0	go	0.0	Go_O	0.0
356.141	1.0	go	0.447	Go_X	1.0
358.69	0.35	stop	0.0	Go_O	1.0
361.224	1.0	go	0.0	Go_O	0.0
363.757	1.0	go	0.325	Go_X	1.0
366.29	1.0	go	0.5	Go_X	1.0
368.823	1.0	go	0.494	Go_O	1.0
371.357	1.0	go	0.396	Go_O	1.0
373.89	0.4	stop	0.585	Go_X	0.0
376.423	1.0	go	0.43	Go_X	0.0
378.956	1.0	go	0.653	Go_X	1.0
381.49	1.0	go	0.376	Go_O	1.0
384.023	1.0	go	0.809	Go_X	1.0
386.556	0.35	stop	0.418	Go_O	0.0
389.089	1.0	go	0.615	Go_O	1.0
391.623	1.0	go	0.724	Go_X	1.0
394.156	0.3	stop	0.0	Go_X	1.0
396.689	1.0	go	0.666	Go_O	1.0
399.222	0.35	stop	0.549	Go_O	0.0
401.756	1.0	go	0.664	Go_O	1.0
404.289	1.0	go	0.726	Go_X	1.0
406.822	1.0	go	0.724	Go_X	1.0
409.355	1.0	go	0.547	Go_O	1.0
411.889	1.0	go	0.659	Go_O	1.0
414.422	1.0	go	0.476	Go_X	1.0
416.955	1.0	go	0.549	Go_X	1.0
419.488	0.3	stop	0.489	Go_X	0.0
422.022	1.0	go	0.474	Go_O	1.0
424.555	1.0	go	0.492	Go_O	1.0
427.088	1.0	go	0.552	Go_X	1.0
429.621	0.25	stop	0.0	Go_O	1.0
432.155	1.0	go	0.961	Go_X	1.0
434.688	1.0	go	0.382	Go_O	1.0
437.221	1.0	go	0.675	Go_O	1.0
439.755	1.0	go	0.765	Go_X	1.0
442.304	0.3	stop	0.0	Go_X	1.0
444.838	1.0	go	0.845	Go_X	1.0
447.371	1.0	go	0.765	Go_O	1.0
449.904	0.35	stop	0.589	Go_O	0.0
452.437	1.0	go	0.0	Go_X	0.0
454.971	1.0	go	0.328	Go_O	1.0
457.504	0.3	stop	0.0	Go_X	1.0
460.037	1.0	go	0.428	Go_O	1.0
462.57	1.0	go	0.496	Go_X	1.0
465.104	0.35	stop	0.445	Go_O	0.0
467.637	1.0	go	0.573	Go_X	1.0
470.17	1.0	go	0.367	Go_O	1.0
472.703	1.0	go	0.476	Go_X	1.0
475.237	1.0	go	0.424	Go_O	1.0
477.77	1.0	go	0.681	Go_O	1.0
480.303	1.0	go	0.832	Go_X	1.0
482.836	0.3	stop	0.0	Go_X	1.0
485.37	1.0	go	0.489	Go_X	1.0
487.903	0.35	stop	0.382	Go_O	0.0
490.436	1.0	go	0.411	Go_O	1.0
492.969	1.0	go	0.467	Go_O	1.0
495.503	1.0	go	0.564	Go_X	1.0
498.036	1.0	go	0.663	Go_O	1.0
500.569	1.0	go	0.538	Go_X	1.0
503.102	0.3	stop	0.0	Go_X	1.0
505.636	1.0	go	0.371	Go_O	1.0
508.169	1.0	go	0.454	Go_X	1.0
510.702	1.0	go	0.488	Go_X	1.0
513.235	0.35	stop	0.369	Go_O	0.0
515.769	0.3	stop	0.463	Go_X	0.0
518.302	0.25	stop	0.0	Go_O	1.0
520.835	1.0	go	0.592	Go_O	1.0
523.369	0.3	stop	0.467	Go_X	0.0
525.918	1.0	go	0.66	Go_O	1.0
528.452	1.0	go	0.48	Go_X	1.0
530.985	1.0	go	0.64	Go_O	1.0
533.518	1.0	go	0.561	Go_X	1.0
536.051	1.0	go	0.523	Go_X	1.0
538.585	1.0	go	0.46	Go_O	1.0
541.118	1.0	go	0.0	Go_X	0.0
543.651	1.0	go	0.356	Go_O	1.0
546.184	0.25	stop	0.0	Go_O	1.0
548.718	1.0	go	0.682	Go_X	1.0
551.251	1.0	go	0.575	Go_O	1.0
553.784	0.3	stop	0.0	Go_X	1.0
556.317	1.0	go	0.878	Go_O	1.0
558.851	1.0	go	0.381	Go_X	1.0
561.384	1.0	go	0.603	Go_X	1.0
563.917	1.0	go	0.701	Go_O	1.0
566.45	1.0	go	0.806	Go_X	1.0
568.984	0.35	stop	0.344	Go_O	0.0
571.517	1.0	go	0.541	Go_O	1.0
574.05	1.0	go	0.552	Go_X	1.0
576.583	1.0	go	0.378	Go_O	1.0
579.117	0.3	stop	0.548	Go_X	0.0
581.65	1.0	go	0.572	Go_X	1.0
584.183	0.25	stop	0.448	Go_O	0.0
586.716	1.0	go	0.487	Go_O	1.0
589.25	1.0	go	0.455	Go_O	1.0
591.783	1.0	go	0.507	Go_X	1.0
594.316	1.0	go	0.512	Go_X	1.0
596.849	1.0	go	0.426	Go_O	0.0
599.383	1.0	go	0.636	Go_X	1.0
601.916	1.0	go	0.42	Go_O	1.0
604.449	0.2	stop	0.0	Go_X	1.0
606.983	1.0	go	0.483	Go_X	1.0
609.532	1.0	go	0.439	Go_O	1.0
612.066	1.0	go	0.705	Go_X	1.0
614.599	1.0	go	0.417	Go_O	1.0
617.132	0.25	stop	0.528	Go_O	0.0
619.665	1.0	go	0.417	Go_X	1.0
622.199	0.2	stop	0.0	Go_X	1.0
624.732	1.0	go	0.374	Go_O	1.0
627.265	1.0	go	0.0	Go_X	0.0
629.798	0.25	stop	0.0	Go_O	1.0
632.332	1.0	go	0.524	Go_O	1.0
634.865	1.0	go	0.973	Go_O	0.0
637.398	1.0	go	0.58	Go_X	1.0
639.931	1.0	go	0.518	Go_X	1.0
642.465	1.0	go	0.635	Go_O	1.0
644.998	1.0	go	0.498	Go_X	1.0
647.531	1.0	go	0.577	Go_O	1.0
650.064	1.0	go	0.688	Go_X	1.0
652.598	1.0	go	0.591	Go_O	1.0
655.131	1.0	go	0.649	Go_X	1.0
657.664	0.3	stop	0.573	Go_X	0.0
660.197	1.0	go	0.719	Go_O	1.0
662.731	1.0	go	0.628	Go_O	1.0
665.264	0.25	stop	0.0	Go_O	1.0
667.797	1.0	go	0.56	Go_X	1.0
670.33	0.3	stop	0.0	Go_X	1.0
672.864	1.0	go	0.495	Go_O	1.0
675.397	1.0	go	0.706	Go_X	1.0
677.93	0.35	stop	0.482	Go_O	0.0
680.463	1.0	go	0.539	Go_X	1.0
682.997	0.3	stop	0.652	Go_X	0.0
685.53	1.0	go	0.673	Go_O	1.0
688.063	1.0	go	0.372	Go_X	1.0
690.597	1.0	go	0.414	Go_O	1.0
693.146	0.25	stop	0.0	Go_O	1.0
695.68	1.0	go	0.558	Go_X	1.0
698.213	1.0	go	0.385	Go_O	1.0
700.746	1.0	go	0.554	Go_X	1.0
703.279	1.0	go	0.49	Go_O	1.0
705.813	0.3	stop	0.0	Go_X	1.0
708.346	1.0	go	0.47	Go_O	0.0
710.879	1.0	go	0.517	Go_X	1.0
713.412	0.35	stop	0.56	Go_O	0.0
715.946	1.0	go	0.642	Go_O	1.0
718.479	1.0	go	0.494	Go_X	1.0
721.012	1.0	go	0.521	Go_O	1.0
723.545	1.0	go	0.52	Go_X	1.0
726.079	0.3	stop	0.56	Go_X	0.0
728.612	1.0	go	0.375	Go_O	1.0
731.145	0.25	stop	0.0	Go_O	1.0
733.678	1.0	go	0.532	Go_X	1.0
736.212	1.0	go	0.502	Go_X	1.0
738.745	0.3	stop	0.0	Go_X	1.0
741.278	1.0	go	0.431	Go_O	1.0
743.811	1.0	go	0.835	Go_X	1.0
746.345	1.0	go	0.543	Go_O	1.0
748.878	1.0	go	0.606	Go_X	1.0
751.411	0.35	stop	0.403	Go_O	0.0
753.944	1.0	go	0.629	Go_O	1.0
756.478	0.3	stop	0.0	Go_X	1.0
759.011	1.0	go	0.962	Go_X	1.0
761.544	1.0	go	0.526	Go_O	1.0
764.078	1.0	go	0.865	Go_O	1.0
766.627	1.0	go	0.63	Go_X	1.0
769.161	1.0	go	0.779	Go_X	1.0
771.694	1.0	go	0.496	Go_O	1.0
774.227	0.35	stop	0.493	Go_O	0.0
776.76	1.0	go	0.319	Go_X	1.0
779.294	1.0	go	0.419	Go_O	1.0
781.827	0.3	stop	0.0	Go_X	1.0
784.36	1.0	go	0.536	Go_O	1.0
786.893	1.0	go	0.662	Go_X	1.0
789.427	0.35	stop	0.421	Go_O	0.0
791.96	1.0	go	0.58	Go_O	1.0
794.493	1.0	go	0.872	Go_X	1.0
797.026	1.0	go	0.388	Go_O	1.0
799.56	1.0	go	0.677	Go_X	1.0
802.093	0.3	stop	0.0	Go_X	1.0
804.626	1.0	go	0.545	Go_X	1.0
807.159	0.35	stop	0.523	Go_O	0.0
809.693	1.0	go	0.517	Go_O	1.0
812.226	1.0	go	0.504	Go_X	1.0
814.759	1.0	go	0.596	Go_O	1.0
817.292	1.0	go	0.63	Go_O	1.0
819.826	1.0	go	0.631	Go_X	1.0
822.359	0.3	stop	0.0	Go_X	1.0
824.892	1.0	go	0.532	Go_O	1.0
827.425	1.0	go	0.623	Go_X	1.0
829.959	0.35	stop	0.578	Go_O	0.0
832.492	0.3	stop	0.0	Go_X	1.0
835.025	1.0	go	0.611	Go_O	1.0
837.559	1.0	go	0.602	Go_X	1.0
840.108	1.0	go	0.617	Go_X	1.0
842.642	1.0	go	0.473	Go_O	1.0
845.175	0.35	stop	0.483	Go_O	0.0
847.708	1.0	go	0.477	Go_O	1.0
