onset	duration	trial_type	response_time	stim_file	accuracy
0.5330000000000013	1.0	go	0.491	Go_X	1.0
3.0660000000000025	1.0	go	0.475	Go_O	1.0
5.599000000000004	1.0	go	0.476	Go_O	1.0
8.132000000000005	1.0	go	0.468	Go_X	1.0
10.665999999999997	1.0	go	0.309	Go_O	1.0
13.198999999999998	1.0	go	0.351	Go_X	1.0
15.732	0.25	stopfail	0.309	Go_O	0.0
18.265	1.0	go	0.517	Go_O	1.0
20.799000000000007	0.2	stopfail	0.417	Go_X	0.0
23.332000000000008	1.0	go	0.534	Go_X	1.0
25.864999999999995	1.0	go	0.428	Go_X	1.0
28.397999999999996	1.0	go	0.453	Go_O	1.0
30.932000000000002	0.15	stopsuccess	0.0	Go_O	1.0
33.465	1.0	go	0.378	Go_O	1.0
35.998000000000005	1.0	go	0.559	Go_X	1.0
38.531000000000006	0.2	stopsuccess	0.0	Go_X	1.0
41.065	0.25	stopfail	0.39	Go_O	0.0
43.59800000000001	1.0	go	0.381	Go_X	0.0
46.131	1.0	go	0.501	Go_O	0.0
48.664000000000016	0.2	stopfail	0.405	Go_X	0.0
51.19800000000001	1.0	go	0.441	Go_O	1.0
53.730999999999995	1.0	go	0.527	Go_X	1.0
56.26400000000001	0.15	stopsuccess	0.0	Go_O	1.0
58.797	1.0	go	0.437	Go_X	1.0
61.33099999999999	1.0	go	0.56	Go_O	1.0
63.864000000000004	0.2	stopsuccess	0.0	Go_X	1.0
66.39699999999999	1.0	go	0.489	Go_O	1.0
68.93	1.0	go	0.48	Go_X	1.0
71.464	0.25	stopsuccess	0.0	Go_O	1.0
73.99700000000001	1.0	go	0.626	Go_O	1.0
76.53	1.0	go	0.361	Go_X	1.0
79.06299999999999	1.0	go	0.397	Go_O	1.0
81.59700000000001	1.0	go	0.485	Go_X	1.0
84.13	1.0	go	0.682	Go_O	1.0
86.66300000000001	0.3	stopfail	0.541	Go_X	0.0
89.196	1.0	go	0.495	Go_X	1.0
91.72999999999999	1.0	go	0.587	Go_O	1.0
94.263	1.0	go	0.852	Go_X	1.0
96.79599999999999	1.0	go	0.609	Go_O	1.0
99.32900000000001	1.0	go	0.686	Go_X	1.0
101.863	0.25	stopfail	0.374	Go_O	0.0
104.39600000000002	1.0	go	0.529	Go_X	1.0
106.929	1.0	go	0.32	Go_O	1.0
109.463	1.0	go	0.478	Go_O	1.0
112.012	1.0	go	0.688	Go_X	1.0
114.54599999999999	1.0	go	0.491	Go_X	1.0
117.07900000000001	1.0	go	0.0	Go_O	0.0
119.612	0.2	stopsuccess	0.0	Go_X	1.0
122.14500000000001	1.0	go	0.467	Go_X	1.0
124.679	1.0	go	0.334	Go_O	1.0
127.21199999999999	0.25	stopfail	0.44	Go_O	0.0
129.745	1.0	go	0.387	Go_O	1.0
132.278	0.2	stopsuccess	0.0	Go_X	1.0
134.812	0.25	stopsuccess	0.0	Go_O	1.0
137.345	1.0	go	0.633	Go_X	1.0
139.87800000000001	1.0	go	0.377	Go_O	1.0
142.411	1.0	go	0.0	Go_X	0.0
144.945	1.0	go	0.489	Go_O	1.0
147.478	0.3	stopsuccess	0.0	Go_X	1.0
150.011	1.0	go	0.42	Go_X	1.0
152.544	0.35	stopfail	0.411	Go_O	0.0
155.078	1.0	go	0.808	Go_X	1.0
157.611	1.0	go	0.344	Go_O	1.0
160.144	1.0	go	0.477	Go_O	1.0
162.677	1.0	go	0.659	Go_X	1.0
165.211	1.0	go	0.538	Go_X	1.0
167.744	1.0	go	0.398	Go_O	1.0
170.27700000000002	1.0	go	0.408	Go_O	1.0
172.80999999999997	1.0	go	0.542	Go_X	1.0
175.34400000000002	1.0	go	0.44	Go_X	1.0
177.87699999999998	0.3	stopfail	0.419	Go_X	0.0
180.41	1.0	go	0.441	Go_O	1.0
182.943	1.0	go	0.435	Go_O	1.0
185.477	1.0	go	0.427	Go_X	1.0
188.01000000000002	0.25	stopfail	0.376	Go_O	0.0
190.54299999999998	1.0	go	0.597	Go_X	1.0
193.07700000000003	1.0	go	0.359	Go_O	1.0
195.626	1.0	go	0.448	Go_O	1.0
198.16	1.0	go	0.467	Go_X	1.0
200.693	1.0	go	0.317	Go_O	1.0
203.22600000000003	1.0	go	0.639	Go_X	1.0
205.759	0.2	stopsuccess	0.0	Go_X	1.0
208.29299999999998	1.0	go	0.373	Go_X	1.0
210.826	1.0	go	0.587	Go_O	1.0
213.359	0.25	stopsuccess	0.0	Go_O	1.0
215.89200000000002	1.0	go	0.815	Go_O	1.0
218.42600000000002	1.0	go	0.369	Go_X	1.0
220.95899999999997	0.3	stopfail	0.555	Go_X	0.0
223.492	1.0	go	0.344	Go_X	1.0
226.025	0.25	stopsuccess	0.0	Go_O	1.0
228.559	1.0	go	0.556	Go_O	1.0
231.092	1.0	go	0.801	Go_X	1.0
233.62500000000003	1.0	go	0.744	Go_O	0.0
236.158	1.0	go	0.0	Go_X	0.0
238.69199999999998	1.0	go	0.533	Go_O	1.0
241.225	0.3	stopsuccess	0.0	Go_X	1.0
243.758	0.35	stopsuccess	0.0	Go_O	1.0
246.29100000000003	1.0	go	0.693	Go_O	1.0
248.82500000000002	1.0	go	0.585	Go_X	1.0
251.35799999999998	0.4	stopfail	0.633	Go_X	0.0
253.891	1.0	go	0.503	Go_O	1.0
256.424	1.0	go	0.816	Go_X	1.0
258.95799999999997	1.0	go	0.79	Go_X	1.0
261.491	1.0	go	0.488	Go_O	1.0
264.024	1.0	go	0.0	Go_O	0.0
266.558	1.0	go	0.447	Go_X	1.0
269.10699999999997	0.35	stopsuccess	0.0	Go_O	1.0
271.64099999999996	1.0	go	0.0	Go_O	0.0
274.174	1.0	go	0.325	Go_X	1.0
276.707	1.0	go	0.5	Go_X	1.0
279.24	1.0	go	0.494	Go_O	1.0
281.774	1.0	go	0.396	Go_O	1.0
284.307	0.4	stopfail	0.585	Go_X	0.0
286.84000000000003	1.0	go	0.43	Go_X	0.0
289.37300000000005	1.0	go	0.653	Go_X	1.0
291.90700000000004	1.0	go	0.376	Go_O	1.0
294.44000000000005	1.0	go	0.809	Go_X	1.0
296.97299999999996	0.35	stopfail	0.418	Go_O	0.0
299.506	1.0	go	0.615	Go_O	1.0
302.03999999999996	1.0	go	0.724	Go_X	1.0
304.573	0.3	stopsuccess	0.0	Go_X	1.0
307.106	1.0	go	0.666	Go_O	1.0
309.639	0.35	stopfail	0.549	Go_O	0.0
312.173	1.0	go	0.664	Go_O	1.0
314.706	1.0	go	0.726	Go_X	1.0
317.23900000000003	1.0	go	0.724	Go_X	1.0
319.77200000000005	1.0	go	0.547	Go_O	1.0
322.30600000000004	1.0	go	0.659	Go_O	1.0
324.83900000000006	1.0	go	0.476	Go_X	1.0
327.37199999999996	1.0	go	0.549	Go_X	1.0
329.905	0.3	stopfail	0.489	Go_X	0.0
332.43899999999996	1.0	go	0.474	Go_O	1.0
334.972	1.0	go	0.492	Go_O	1.0
337.505	1.0	go	0.552	Go_X	1.0
340.038	0.25	stopsuccess	0.0	Go_O	1.0
342.572	1.0	go	0.961	Go_X	1.0
345.105	1.0	go	0.382	Go_O	1.0
347.63800000000003	1.0	go	0.675	Go_O	1.0
350.172	1.0	go	0.765	Go_X	1.0
352.721	0.3	stopsuccess	0.0	Go_X	1.0
355.255	1.0	go	0.845	Go_X	1.0
357.788	1.0	go	0.765	Go_O	1.0
360.321	0.35	stopfail	0.589	Go_O	0.0
362.85400000000004	1.0	go	0.0	Go_X	0.0
365.38800000000003	1.0	go	0.328	Go_O	1.0
367.92100000000005	0.3	stopsuccess	0.0	Go_X	1.0
370.45399999999995	1.0	go	0.428	Go_O	1.0
372.98699999999997	1.0	go	0.496	Go_X	1.0
375.52099999999996	0.35	stopfail	0.445	Go_O	0.0
378.054	1.0	go	0.573	Go_X	1.0
380.587	1.0	go	0.367	Go_O	1.0
383.12	1.0	go	0.476	Go_X	1.0
385.654	1.0	go	0.424	Go_O	1.0
388.187	1.0	go	0.681	Go_O	1.0
390.72	1.0	go	0.832	Go_X	1.0
393.25300000000004	0.3	stopsuccess	0.0	Go_X	1.0
395.78700000000003	1.0	go	0.489	Go_X	1.0
398.32000000000005	0.35	stopfail	0.382	Go_O	0.0
400.85299999999995	1.0	go	0.411	Go_O	1.0
403.38599999999997	1.0	go	0.467	Go_O	1.0
405.91999999999996	1.0	go	0.564	Go_X	1.0
408.453	1.0	go	0.663	Go_O	1.0
410.986	1.0	go	0.538	Go_X	1.0
413.519	0.3	stopsuccess	0.0	Go_X	1.0
416.053	1.0	go	0.371	Go_O	1.0
418.586	1.0	go	0.454	Go_X	1.0
421.119	1.0	go	0.488	Go_X	1.0
423.65200000000004	0.35	stopfail	0.369	Go_O	0.0
426.18600000000004	0.3	stopfail	0.463	Go_X	0.0
428.71900000000005	0.25	stopsuccess	0.0	Go_O	1.0
431.25200000000007	1.0	go	0.592	Go_O	1.0
433.78600000000006	0.3	stopfail	0.467	Go_X	0.0
436.33500000000004	1.0	go	0.66	Go_O	1.0
438.869	1.0	go	0.48	Go_X	1.0
441.40200000000004	1.0	go	0.64	Go_O	1.0
443.93500000000006	1.0	go	0.561	Go_X	1.0
446.4680000000001	1.0	go	0.523	Go_X	1.0
449.00200000000007	1.0	go	0.46	Go_O	1.0
451.5350000000001	1.0	go	0.0	Go_X	0.0
454.068	1.0	go	0.356	Go_O	1.0
456.601	0.25	stopsuccess	0.0	Go_O	1.0
459.135	1.0	go	0.682	Go_X	1.0
461.668	1.0	go	0.575	Go_O	1.0
464.201	0.3	stopsuccess	0.0	Go_X	1.0
466.73400000000004	1.0	go	0.878	Go_O	1.0
469.26800000000003	1.0	go	0.381	Go_X	1.0
471.80100000000004	1.0	go	0.603	Go_X	1.0
474.33400000000006	1.0	go	0.701	Go_O	1.0
476.8670000000001	1.0	go	0.806	Go_X	1.0
479.40100000000007	0.35	stopfail	0.344	Go_O	0.0
481.9340000000001	1.0	go	0.541	Go_O	1.0
484.467	1.0	go	0.552	Go_X	1.0
487.0	1.0	go	0.378	Go_O	1.0
489.534	0.3	stopfail	0.548	Go_X	0.0
492.067	1.0	go	0.572	Go_X	1.0
494.6	0.25	stopfail	0.448	Go_O	0.0
497.13300000000004	1.0	go	0.487	Go_O	1.0
499.66700000000003	1.0	go	0.455	Go_O	1.0
502.20000000000005	1.0	go	0.507	Go_X	1.0
504.73300000000006	1.0	go	0.512	Go_X	1.0
507.2660000000001	1.0	go	0.426	Go_O	0.0
509.80000000000007	1.0	go	0.636	Go_X	1.0
512.3330000000001	1.0	go	0.42	Go_O	1.0
514.866	0.2	stopsuccess	0.0	Go_X	1.0
517.4	1.0	go	0.483	Go_X	1.0
519.9490000000001	1.0	go	0.439	Go_O	1.0
522.4830000000001	1.0	go	0.705	Go_X	1.0
525.0160000000001	1.0	go	0.417	Go_O	1.0
527.549	0.25	stopfail	0.528	Go_O	0.0
530.082	1.0	go	0.417	Go_X	1.0
532.616	0.2	stopsuccess	0.0	Go_X	1.0
535.149	1.0	go	0.374	Go_O	1.0
537.682	1.0	go	0.0	Go_X	0.0
540.215	0.25	stopsuccess	0.0	Go_O	1.0
542.749	1.0	go	0.524	Go_O	1.0
545.282	1.0	go	0.973	Go_O	0.0
547.815	1.0	go	0.58	Go_X	1.0
550.3480000000001	1.0	go	0.518	Go_X	1.0
552.8820000000001	1.0	go	0.635	Go_O	1.0
555.4150000000001	1.0	go	0.498	Go_X	1.0
557.948	1.0	go	0.577	Go_O	1.0
560.481	1.0	go	0.688	Go_X	1.0
563.015	1.0	go	0.591	Go_O	1.0
565.548	1.0	go	0.649	Go_X	1.0
568.081	0.3	stopfail	0.573	Go_X	0.0
570.614	1.0	go	0.719	Go_O	1.0
573.148	1.0	go	0.628	Go_O	1.0
575.681	0.25	stopsuccess	0.0	Go_O	1.0
578.214	1.0	go	0.56	Go_X	1.0
580.7470000000001	0.3	stopsuccess	0.0	Go_X	1.0
583.2810000000001	1.0	go	0.495	Go_O	1.0
585.8140000000001	1.0	go	0.706	Go_X	1.0
588.347	0.35	stopfail	0.482	Go_O	0.0
590.88	1.0	go	0.539	Go_X	1.0
593.414	0.3	stopfail	0.652	Go_X	0.0
595.947	1.0	go	0.673	Go_O	1.0
598.48	1.0	go	0.372	Go_X	1.0
601.014	1.0	go	0.414	Go_O	1.0
603.563	0.25	stopsuccess	0.0	Go_O	1.0
606.097	1.0	go	0.558	Go_X	1.0
608.63	1.0	go	0.385	Go_O	1.0
611.163	1.0	go	0.554	Go_X	1.0
613.696	1.0	go	0.49	Go_O	1.0
616.23	0.3	stopsuccess	0.0	Go_X	1.0
618.763	1.0	go	0.47	Go_O	0.0
621.296	1.0	go	0.517	Go_X	1.0
623.8290000000001	0.35	stopfail	0.56	Go_O	0.0
626.363	1.0	go	0.642	Go_O	1.0
628.8960000000001	1.0	go	0.494	Go_X	1.0
631.429	1.0	go	0.521	Go_O	1.0
633.962	1.0	go	0.52	Go_X	1.0
636.496	0.3	stopfail	0.56	Go_X	0.0
639.029	1.0	go	0.375	Go_O	1.0
641.562	0.25	stopsuccess	0.0	Go_O	1.0
644.095	1.0	go	0.532	Go_X	1.0
646.629	1.0	go	0.502	Go_X	1.0
649.162	0.3	stopsuccess	0.0	Go_X	1.0
651.695	1.0	go	0.431	Go_O	1.0
654.2280000000001	1.0	go	0.835	Go_X	1.0
656.7620000000001	1.0	go	0.543	Go_O	1.0
659.2950000000001	1.0	go	0.606	Go_X	1.0
661.828	0.35	stopfail	0.403	Go_O	0.0
664.361	1.0	go	0.629	Go_O	1.0
666.895	0.3	stopsuccess	0.0	Go_X	1.0
669.428	1.0	go	0.962	Go_X	1.0
671.961	1.0	go	0.526	Go_O	1.0
674.495	1.0	go	0.865	Go_O	1.0
677.044	1.0	go	0.63	Go_X	1.0
679.578	1.0	go	0.779	Go_X	1.0
682.111	1.0	go	0.496	Go_O	1.0
684.644	0.35	stopfail	0.493	Go_O	0.0
687.177	1.0	go	0.319	Go_X	1.0
689.711	1.0	go	0.419	Go_O	1.0
692.244	0.3	stopsuccess	0.0	Go_X	1.0
694.777	1.0	go	0.536	Go_O	1.0
697.3100000000001	1.0	go	0.662	Go_X	1.0
699.844	0.35	stopfail	0.421	Go_O	0.0
702.3770000000001	1.0	go	0.58	Go_O	1.0
704.9100000000001	1.0	go	0.872	Go_X	1.0
707.443	1.0	go	0.388	Go_O	1.0
709.977	1.0	go	0.677	Go_X	1.0
712.51	0.3	stopsuccess	0.0	Go_X	1.0
715.043	1.0	go	0.545	Go_X	1.0
717.576	0.35	stopfail	0.523	Go_O	0.0
720.11	1.0	go	0.517	Go_O	1.0
722.643	1.0	go	0.504	Go_X	1.0
725.176	1.0	go	0.596	Go_O	1.0
727.7090000000001	1.0	go	0.63	Go_O	1.0
730.243	1.0	go	0.631	Go_X	1.0
732.7760000000001	0.3	stopsuccess	0.0	Go_X	1.0
735.3090000000001	1.0	go	0.532	Go_O	1.0
737.842	1.0	go	0.623	Go_X	1.0
740.376	0.35	stopfail	0.578	Go_O	0.0
742.909	0.3	stopsuccess	0.0	Go_X	1.0
745.442	1.0	go	0.611	Go_O	1.0
747.976	1.0	go	0.602	Go_X	1.0
750.525	1.0	go	0.617	Go_X	1.0
753.0590000000001	1.0	go	0.473	Go_O	1.0
755.592	0.35	stopfail	0.483	Go_O	0.0
758.125	1.0	go	0.477	Go_O	1.0
