onset	duration	trial_type	response_time	stim_file	accuracy
42.303	1.0	go	0.0	Go_X	0.0
44.827	1.0	go	0.365	Go_O	1.0
47.352	1.0	go	0.373	Go_O	1.0
49.876	1.0	go	0.388	Go_X	1.0
52.4	1.0	go	0.389	Go_O	1.0
54.924	1.0	go	0.302	Go_X	1.0
57.448	0.25	stop	0.0	Go_O	1.0
59.973	1.0	go	0.323	Go_X	1.0
62.497	0.3	stop	0.374	Go_X	0.0
65.021	1.0	go	0.414	Go_O	1.0
67.545	1.0	go	0.321	Go_X	1.0
70.07	1.0	go	0.259	Go_O	1.0
72.594	0.25	stop	0.0	Go_O	1.0
75.118	1.0	go	0.39	Go_O	1.0
77.642	1.0	go	0.275	Go_X	1.0
80.166	0.3	stop	0.0	Go_X	1.0
82.691	0.35	stop	0.265	Go_O	0.0
85.215	1.0	go	0.341	Go_X	1.0
87.739	1.0	go	0.253	Go_O	1.0
90.263	0.3	stop	0.356	Go_X	0.0
92.788	1.0	go	0.317	Go_X	0.0
95.312	1.0	go	0.297	Go_O	1.0
97.836	0.25	stop	0.346	Go_O	0.0
100.36	1.0	go	0.326	Go_X	1.0
102.884	1.0	go	0.5	Go_O	1.0
105.409	0.2	stop	0.369	Go_X	0.0
107.933	1.0	go	0.344	Go_O	1.0
110.457	1.0	go	0.481	Go_X	1.0
112.981	0.15	stop	0.298	Go_O	0.0
115.506	1.0	go	0.41	Go_O	1.0
118.03	1.0	go	0.32	Go_X	1.0
120.554	1.0	go	0.546	Go_X	1.0
123.078	1.0	go	0.368	Go_O	1.0
125.602	1.0	go	0.379	Go_X	1.0
128.127	0.1	stop	0.0	Go_X	1.0
130.651	1.0	go	0.387	Go_O	1.0
133.175	1.0	go	0.43	Go_X	1.0
135.699	1.0	go	0.532	Go_O	1.0
138.224	1.0	go	0.377	Go_X	1.0
140.748	1.0	go	0.524	Go_O	1.0
143.272	0.15	stop	0.347	Go_O	0.0
145.796	1.0	go	0.339	Go_O	1.0
148.321	1.0	go	0.405	Go_X	0.0
150.845	1.0	go	0.512	Go_O	1.0
153.369	1.0	go	0.404	Go_X	1.0
155.893	1.0	go	0.312	Go_O	1.0
158.417	1.0	go	0.368	Go_X	1.0
160.942	0.1	stop	0.234	Go_X	0.0
163.466	1.0	go	0.47	Go_X	1.0
165.99	1.0	go	0.568	Go_O	1.0
168.514	0.05	stop	0.702	Go_O	0.0
171.039	1.0	go	0.536	Go_O	1.0
173.563	0.0	stop	0.0	Go_X	1.0
176.104	0.05	stop	0.0	Go_O	1.0
178.628	1.0	go	0.348	Go_X	1.0
181.152	1.0	go	0.411	Go_X	1.0
183.676	1.0	go	0.302	Go_O	1.0
186.201	1.0	go	0.47	Go_O	1.0
188.725	0.1	stop	0.409	Go_X	0.0
191.249	1.0	go	0.383	Go_X	0.0
193.773	0.05	stop	0.242	Go_O	0.0
196.297	1.0	go	0.381	Go_O	1.0
198.822	1.0	go	0.478	Go_X	1.0
201.346	1.0	go	0.56	Go_X	1.0
203.87	1.0	go	0.309	Go_O	1.0
206.394	1.0	go	0.447	Go_X	0.0
208.919	1.0	go	0.421	Go_O	1.0
211.443	1.0	go	0.297	Go_X	1.0
213.967	1.0	go	0.391	Go_O	1.0
216.491	1.0	go	0.348	Go_O	1.0
219.016	0.0	stop	0.0	Go_X	1.0
221.556	1.0	go	0.428	Go_X	1.0
224.081	1.0	go	0.437	Go_O	1.0
226.605	1.0	go	0.501	Go_X	1.0
229.129	0.05	stop	0.0	Go_O	1.0
231.653	1.0	go	0.48	Go_X	1.0
234.178	1.0	go	0.401	Go_O	1.0
236.702	1.0	go	0.404	Go_O	1.0
239.226	1.0	go	0.401	Go_X	1.0
241.75	1.0	go	0.265	Go_X	0.0
244.274	1.0	go	0.341	Go_O	1.0
246.799	0.1	stop	0.4	Go_X	0.0
249.323	1.0	go	0.484	Go_X	1.0
251.847	1.0	go	0.414	Go_O	1.0
254.371	0.05	stop	0.0	Go_O	1.0
256.896	1.0	go	0.379	Go_X	1.0
259.42	1.0	go	0.372	Go_O	1.0
261.944	0.1	stop	0.0	Go_X	1.0
264.468	1.0	go	0.389	Go_X	1.0
266.993	0.15	stop	0.348	Go_O	0.0
269.517	1.0	go	0.321	Go_O	1.0
272.041	1.0	go	0.382	Go_O	1.0
274.565	1.0	go	0.479	Go_X	1.0
277.089	1.0	go	0.373	Go_X	1.0
279.614	1.0	go	0.501	Go_O	1.0
282.138	0.1	stop	0.0	Go_X	1.0
284.662	0.15	stop	0.36	Go_O	0.0
287.186	1.0	go	0.518	Go_O	1.0
289.711	1.0	go	0.371	Go_X	1.0
292.235	0.1	stop	0.389	Go_X	0.0
294.759	1.0	go	0.467	Go_O	1.0
297.283	1.0	go	0.623	Go_X	0.0
299.807	1.0	go	0.514	Go_O	1.0
302.332	1.0	go	0.406	Go_X	1.0
304.856	1.0	go	0.561	Go_X	1.0
307.38	1.0	go	0.523	Go_O	1.0
309.904	0.05	stop	0.0	Go_O	1.0
312.429	1.0	go	0.464	Go_O	1.0
314.953	1.0	go	0.592	Go_X	1.0
317.477	1.0	go	0.328	Go_O	1.0
320.001	1.0	go	0.385	Go_X	1.0
322.525	1.0	go	0.57	Go_X	1.0
325.05	0.1	stop	0.0	Go_X	1.0
327.574	1.0	go	0.427	Go_O	1.0
330.098	1.0	go	0.493	Go_X	1.0
332.622	1.0	go	0.344	Go_O	1.0
335.147	1.0	go	0.424	Go_O	1.0
337.671	0.15	stop	0.323	Go_O	0.0
340.195	1.0	go	0.523	Go_X	1.0
342.719	1.0	go	0.51	Go_O	1.0
345.243	0.1	stop	0.0	Go_X	1.0
347.768	1.0	go	0.458	Go_X	1.0
350.292	0.15	stop	0.373	Go_O	0.0
352.816	1.0	go	0.298	Go_O	1.0
355.34	1.0	go	0.401	Go_X	1.0
357.865	1.0	go	0.565	Go_X	1.0
360.389	1.0	go	0.343	Go_O	1.0
362.913	1.0	go	0.485	Go_O	1.0
365.437	1.0	go	0.379	Go_X	1.0
367.961	1.0	go	0.38	Go_O	0.0
370.486	0.1	stop	0.561	Go_X	0.0
373.01	1.0	go	0.525	Go_X	1.0
375.534	1.0	go	0.477	Go_X	1.0
378.058	1.0	go	0.263	Go_O	1.0
380.583	0.05	stop	0.0	Go_O	1.0
383.107	1.0	go	0.449	Go_X	1.0
385.631	1.0	go	0.391	Go_O	1.0
388.155	1.0	go	0.439	Go_O	1.0
390.679	1.0	go	0.682	Go_X	1.0
393.204	0.1	stop	0.0	Go_X	1.0
395.728	1.0	go	0.349	Go_X	0.0
398.252	1.0	go	0.301	Go_O	1.0
400.776	0.15	stop	0.0	Go_O	1.0
403.301	1.0	go	0.362	Go_O	1.0
405.825	1.0	go	0.399	Go_X	1.0
408.349	0.2	stop	0.0	Go_X	1.0
410.873	1.0	go	0.486	Go_O	1.0
413.398	1.0	go	0.56	Go_X	1.0
415.922	0.25	stop	0.416	Go_O	0.0
418.446	1.0	go	0.776	Go_O	1.0
420.97	1.0	go	0.479	Go_X	1.0
423.494	1.0	go	0.45	Go_X	1.0
426.019	1.0	go	0.393	Go_O	1.0
428.543	1.0	go	0.435	Go_O	1.0
431.067	1.0	go	0.415	Go_X	1.0
433.591	0.2	stop	0.465	Go_X	0.0
436.116	1.0	go	0.309	Go_O	1.0
438.64	0.15	stop	0.358	Go_O	0.0
441.164	1.0	go	0.47	Go_X	1.0
443.688	1.0	go	0.538	Go_X	1.0
446.212	1.0	go	0.238	Go_O	1.0
448.737	1.0	go	0.5	Go_X	1.0
451.261	1.0	go	0.272	Go_O	1.0
453.785	0.1	stop	0.364	Go_X	0.0
456.309	1.0	go	0.548	Go_O	1.0
458.834	1.0	go	0.69	Go_X	1.0
461.358	1.0	go	0.252	Go_O	1.0
463.882	0.05	stop	0.0	Go_O	1.0
466.406	0.1	stop	0.0	Go_X	1.0
468.93	0.15	stop	0.0	Go_O	1.0
471.455	1.0	go	0.38	Go_X	1.0
473.979	0.2	stop	0.325	Go_X	0.0
476.503	1.0	go	0.361	Go_O	1.0
479.027	1.0	go	0.474	Go_X	0.0
481.552	1.0	go	0.529	Go_O	1.0
484.076	1.0	go	0.308	Go_X	1.0
486.6	1.0	go	0.301	Go_O	1.0
489.124	1.0	go	0.205	Go_X	1.0
491.648	1.0	go	0.624	Go_X	1.0
494.173	1.0	go	0.854	Go_O	1.0
496.697	0.15	stop	0.46	Go_O	0.0
499.221	1.0	go	0.215	Go_X	1.0
501.745	1.0	go	0.253	Go_O	1.0
504.27	0.1	stop	0.202	Go_X	0.0
506.794	1.0	go	0.614	Go_X	1.0
509.318	1.0	go	0.236	Go_O	1.0
511.842	1.0	go	0.464	Go_X	1.0
514.367	1.0	go	0.34	Go_O	1.0
516.891	1.0	go	0.252	Go_X	1.0
519.415	0.05	stop	0.264	Go_O	0.0
521.939	1.0	go	0.302	Go_O	1.0
524.463	1.0	go	0.395	Go_X	1.0
526.988	1.0	go	0.196	Go_O	1.0
529.512	0.0	stop	0.0	Go_X	1.0
532.053	1.0	go	0.374	Go_X	0.0
534.577	0.05	stop	0.0	Go_O	1.0
537.101	1.0	go	0.277	Go_O	1.0
539.625	1.0	go	0.209	Go_X	1.0
542.15	1.0	go	0.397	Go_O	0.0
544.674	1.0	go	0.377	Go_X	1.0
547.198	1.0	go	0.31	Go_O	1.0
549.722	1.0	go	0.577	Go_O	1.0
552.247	1.0	go	0.371	Go_X	1.0
554.771	0.1	stop	0.43	Go_X	0.0
557.295	1.0	go	0.514	Go_X	1.0
559.819	1.0	go	0.17	Go_O	1.0
562.343	1.0	go	0.304	Go_O	0.0
564.868	1.0	go	0.445	Go_X	1.0
567.392	0.05	stop	0.0	Go_O	1.0
569.916	1.0	go	0.388	Go_O	1.0
572.44	0.1	stop	0.0	Go_X	1.0
574.965	1.0	go	0.513	Go_X	1.0
577.489	1.0	go	0.349	Go_X	0.0
580.013	0.15	stop	0.456	Go_O	0.0
582.537	1.0	go	0.62	Go_O	1.0
585.062	1.0	go	0.441	Go_X	1.0
587.586	1.0	go	0.43	Go_O	1.0
590.11	1.0	go	0.62	Go_X	1.0
592.634	1.0	go	0.465	Go_O	1.0
595.158	1.0	go	0.355	Go_X	0.0
597.683	1.0	go	0.283	Go_O	1.0
600.207	1.0	go	0.361	Go_X	1.0
602.731	1.0	go	0.489	Go_O	1.0
605.255	1.0	go	0.519	Go_O	1.0
607.78	0.1	stop	0.0	Go_X	1.0
610.304	1.0	go	0.48	Go_X	1.0
612.828	1.0	go	0.271	Go_X	1.0
615.352	0.15	stop	0.291	Go_O	0.0
617.876	1.0	go	0.397	Go_O	1.0
620.401	0.1	stop	0.22	Go_X	0.0
622.925	1.0	go	0.546	Go_X	1.0
625.449	1.0	go	0.581	Go_O	1.0
627.973	0.05	stop	0.213	Go_O	0.0
630.498	1.0	go	0.476	Go_X	0.0
633.022	0.0	stop	0.689	Go_X	0.0
635.563	1.0	go	0.548	Go_O	1.0
638.087	1.0	go	0.562	Go_O	1.0
640.611	1.0	go	0.534	Go_X	1.0
643.135	0.0	stop	0.0	Go_O	1.0
645.676	1.0	go	0.455	Go_O	1.0
648.201	1.0	go	0.255	Go_X	1.0
650.725	1.0	go	0.426	Go_O	1.0
653.249	1.0	go	0.45	Go_X	1.0
655.773	0.05	stop	0.0	Go_X	1.0
658.297	1.0	go	0.253	Go_O	1.0
660.822	1.0	go	0.516	Go_X	1.0
663.346	0.1	stop	0.718	Go_O	0.0
665.87	1.0	go	0.471	Go_O	1.0
668.394	1.0	go	0.466	Go_X	1.0
670.919	1.0	go	0.365	Go_O	1.0
673.443	1.0	go	0.622	Go_X	1.0
675.967	0.05	stop	0.0	Go_X	1.0
678.491	1.0	go	0.282	Go_O	1.0
681.015	0.1	stop	0.292	Go_O	0.0
683.54	1.0	go	0.431	Go_X	1.0
686.064	1.0	go	0.411	Go_X	1.0
688.588	0.05	stop	0.0	Go_X	1.0
691.112	1.0	go	0.389	Go_O	1.0
693.637	1.0	go	0.3	Go_O	1.0
696.161	1.0	go	0.44	Go_X	1.0
698.685	1.0	go	0.695	Go_X	0.0
701.209	0.1	stop	0.0	Go_O	1.0
703.734	1.0	go	0.277	Go_O	1.0
706.258	0.15	stop	0.522	Go_X	0.0
708.782	1.0	go	0.56	Go_X	1.0
711.306	1.0	go	0.566	Go_O	1.0
713.83	1.0	go	0.384	Go_O	1.0
716.355	1.0	go	0.439	Go_X	1.0
718.879	1.0	go	0.322	Go_O	1.0
721.403	1.0	go	0.534	Go_X	1.0
723.927	0.1	stop	0.329	Go_O	0.0
726.452	1.0	go	0.446	Go_O	1.0
728.976	1.0	go	0.493	Go_X	1.0
731.5	0.05	stop	0.284	Go_X	0.0
734.024	1.0	go	0.229	Go_X	0.0
736.548	1.0	go	0.246	Go_O	1.0
739.073	0.0	stop	0.401	Go_O	0.0
741.614	1.0	go	0.561	Go_X	1.0
744.138	1.0	go	0.463	Go_O	1.0
746.662	1.0	go	0.358	Go_X	0.0
749.186	1.0	go	0.416	Go_O	1.0
751.711	0.0	stop	0.0	Go_X	1.0
754.251	1.0	go	0.304	Go_X	1.0
756.776	0.05	stop	0.0	Go_O	1.0
759.3	1.0	go	0.451	Go_O	1.0
761.824	1.0	go	0.497	Go_O	1.0
764.348	1.0	go	0.576	Go_X	1.0
766.873	1.0	go	0.518	Go_O	1.0
769.397	1.0	go	0.738	Go_X	1.0
771.921	0.1	stop	0.0	Go_X	1.0
774.445	1.0	go	0.476	Go_O	1.0
776.969	1.0	go	0.573	Go_X	1.0
779.494	0.15	stop	0.396	Go_O	0.0
782.018	0.1	stop	0.0	Go_X	1.0
784.542	1.0	go	0.511	Go_O	1.0
787.066	1.0	go	0.0	Go_X	0.0
789.591	1.0	go	0.719	Go_O	1.0
792.115	1.0	go	0.396	Go_X	1.0
794.639	0.15	stop	0.42	Go_O	0.0
797.163	1.0	go	0.394	Go_X	1.0
