onset	duration	trial_type	response_time	stim_file	accuracy
52.658	1.0	go	0.0	Go_O	0.0
55.265	1.0	go	0.553	Go_X	1.0
57.789	1.0	go	0.501	Go_X	1.0
60.314	1.0	go	0.509	Go_O	1.0
62.838	1.0	go	0.513	Go_O	1.0
65.362	1.0	go	0.514	Go_X	1.0
67.886	0.25	stopfail	0.376	Go_O	0.0
70.41	1.0	go	0.661	Go_O	1.0
72.934	0.2	stopsuccess	0.0	Go_X	1.0
75.459	1.0	go	0.538	Go_X	1.0
77.983	1.0	go	0.712	Go_O	1.0
80.507	1.0	go	0.74	Go_X	1.0
83.031	0.25	stopsuccess	0.0	Go_O	1.0
85.555	1.0	go	0.752	Go_O	1.0
88.079	1.0	go	0.749	Go_X	1.0
90.604	0.3	stopsuccess	0.0	Go_X	1.0
93.128	0.35	stopfail	0.515	Go_O	0.0
95.652	1.0	go	0.68	Go_O	1.0
98.176	1.0	go	0.846	Go_X	1.0
100.7	0.3	stopsuccess	0.0	Go_X	1.0
103.224	1.0	go	0.606	Go_O	1.0
105.748	1.0	go	0.592	Go_X	1.0
108.273	0.35	stopsuccess	0.0	Go_O	1.0
110.797	1.0	go	0.594	Go_X	1.0
113.321	1.0	go	0.815	Go_O	1.0
115.845	0.4	stopfail	0.722	Go_X	0.0
118.369	1.0	go	0.645	Go_X	1.0
120.893	1.0	go	0.848	Go_O	1.0
123.418	0.35	stopsuccess	0.0	Go_O	1.0
125.942	1.0	go	0.459	Go_X	1.0
128.466	1.0	go	0.896	Go_O	1.0
130.99	1.0	go	0.724	Go_O	1.0
133.514	1.0	go	0.855	Go_X	1.0
136.038	1.0	go	0.761	Go_X	1.0
138.563	0.4	stopsuccess	0.0	Go_X	1.0
141.087	1.0	go	0.722	Go_O	1.0
143.611	1.0	go	0.691	Go_X	1.0
146.135	1.0	go	0.704	Go_O	1.0
148.659	1.0	go	0.948	Go_X	1.0
151.183	1.0	go	0.678	Go_O	1.0
153.708	0.45	stopsuccess	0.0	Go_O	1.0
156.232	1.0	go	0.664	Go_O	1.0
158.756	1.0	go	0.796	Go_X	1.0
161.28	1.0	go	0.901	Go_X	1.0
163.804	1.0	go	0.761	Go_O	1.0
166.328	1.0	go	0.833	Go_O	1.0
168.852	1.0	go	0.753	Go_X	1.0
171.377	0.5	stopsuccess	0.0	Go_X	1.0
173.901	1.0	go	0.736	Go_X	1.0
176.425	1.0	go	0.597	Go_O	1.0
178.949	0.55	stopsuccess	0.0	Go_O	1.0
181.473	1.0	go	0.654	Go_O	1.0
183.997	0.6	stopsuccess	0.0	Go_X	1.0
186.522	0.65	stopsuccess	0.0	Go_O	1.0
189.046	1.0	go	0.599	Go_X	1.0
191.57	1.0	go	0.738	Go_X	1.0
194.094	1.0	go	0.724	Go_O	1.0
196.618	1.0	go	0.728	Go_O	1.0
199.142	0.7	stopfail	0.789	Go_X	0.0
201.667	1.0	go	0.765	Go_X	1.0
204.191	0.65	stopfail	0.612	Go_O	0.0
206.715	1.0	go	0.918	Go_O	1.0
209.239	1.0	go	0.878	Go_X	1.0
211.763	1.0	go	0.614	Go_O	1.0
214.287	1.0	go	0.936	Go_X	1.0
216.812	1.0	go	0.865	Go_O	1.0
219.336	1.0	go	0.859	Go_X	1.0
221.86	1.0	go	0.729	Go_X	1.0
224.384	1.0	go	0.458	Go_O	1.0
226.908	1.0	go	0.718	Go_O	1.0
229.432	0.6	stopsuccess	0.0	Go_X	1.0
231.957	1.0	go	0.528	Go_X	1.0
234.481	1.0	go	0.781	Go_X	1.0
237.005	1.0	go	0.911	Go_O	1.0
239.529	0.65	stopsuccess	0.0	Go_O	1.0
242.053	1.0	go	0.585	Go_X	1.0
244.577	1.0	go	0.778	Go_O	1.0
247.101	1.0	go	0.827	Go_O	1.0
249.626	1.0	go	0.793	Go_X	1.0
252.15	1.0	go	0.825	Go_X	1.0
254.674	1.0	go	0.83	Go_O	1.0
257.198	0.7	stopfail	0.802	Go_X	0.0
259.722	1.0	go	0.941	Go_X	1.0
262.246	1.0	go	0.981	Go_O	1.0
264.771	0.65	stopsuccess	0.0	Go_O	1.0
267.295	1.0	go	0.775	Go_X	1.0
269.819	1.0	go	0.0	Go_O	0.0
272.343	0.7	stopfail	0.535	Go_X	0.0
274.867	1.0	go	0.78	Go_X	1.0
277.391	0.65	stopfail	0.75	Go_O	0.0
279.916	1.0	go	0.0	Go_O	0.0
282.44	1.0	go	0.519	Go_X	1.0
284.964	1.0	go	0.892	Go_O	1.0
287.488	1.0	go	0.831	Go_O	1.0
290.012	1.0	go	0.0	Go_X	0.0
292.536	0.6	stopsuccess	0.0	Go_X	1.0
295.061	0.65	stopsuccess	0.0	Go_O	1.0
297.585	1.0	go	0.8	Go_X	1.0
300.109	1.0	go	0.934	Go_O	1.0
302.633	0.7	stopfail	0.749	Go_X	0.0
305.157	1.0	go	0.687	Go_O	1.0
307.681	1.0	go	0.624	Go_X	1.0
310.205	1.0	go	0.575	Go_X	1.0
312.73	1.0	go	0.0	Go_O	0.0
315.254	1.0	go	0.859	Go_X	1.0
317.778	1.0	go	0.554	Go_O	1.0
320.302	0.65	stopfail	0.726	Go_O	0.0
322.826	1.0	go	0.533	Go_X	1.0
325.35	1.0	go	0.774	Go_O	1.0
327.875	1.0	go	0.971	Go_O	0.0
330.399	1.0	go	0.812	Go_X	1.0
332.923	1.0	go	0.771	Go_O	1.0
335.447	0.6	stopsuccess	0.0	Go_X	1.0
337.971	1.0	go	0.649	Go_X	1.0
340.495	1.0	go	0.656	Go_O	1.0
343.02	1.0	go	0.557	Go_X	1.0
345.544	1.0	go	0.653	Go_X	1.0
348.068	0.65	stopfail	0.689	Go_O	0.0
350.592	1.0	go	0.825	Go_O	1.0
353.116	1.0	go	0.853	Go_O	1.0
355.64	0.6	stopsuccess	0.0	Go_X	1.0
358.165	1.0	go	0.359	Go_X	1.0
360.689	0.65	stopfail	0.778	Go_O	0.0
363.213	1.0	go	0.84	Go_O	1.0
365.737	1.0	go	0.883	Go_X	1.0
368.261	1.0	go	0.887	Go_O	1.0
370.785	1.0	go	0.617	Go_X	1.0
373.31	1.0	go	0.824	Go_O	1.0
375.834	1.0	go	0.0	Go_X	0.0
378.358	1.0	go	0.736	Go_O	1.0
380.882	0.6	stopfail	0.797	Go_X	0.0
383.406	1.0	go	0.662	Go_X	1.0
385.93	1.0	go	0.615	Go_X	1.0
388.454	1.0	go	0.724	Go_O	1.0
390.979	0.55	stopsuccess	0.0	Go_O	1.0
393.503	1.0	go	0.0	Go_O	0.0
396.027	1.0	go	0.649	Go_X	1.0
398.551	1.0	go	0.698	Go_O	1.0
401.075	1.0	go	0.671	Go_X	1.0
403.599	0.6	stopsuccess	0.0	Go_X	1.0
406.124	1.0	go	0.481	Go_X	1.0
408.648	1.0	go	0.742	Go_O	1.0
411.172	0.65	stopsuccess	0.0	Go_O	1.0
413.696	1.0	go	0.607	Go_X	1.0
416.22	1.0	go	0.921	Go_O	0.0
418.744	0.7	stopsuccess	0.0	Go_X	1.0
421.269	1.0	go	0.711	Go_O	1.0
423.793	1.0	go	0.764	Go_X	1.0
426.317	0.75	stopfail	0.452	Go_O	0.0
428.841	1.0	go	0.344	Go_X	1.0
431.365	1.0	go	0.22	Go_O	1.0
433.889	1.0	go	0.85	Go_O	1.0
436.414	1.0	go	0.727	Go_X	1.0
438.938	1.0	go	0.73	Go_X	1.0
441.462	1.0	go	0.591	Go_O	1.0
443.986	0.7	stopsuccess	0.0	Go_X	1.0
446.51	1.0	go	0.575	Go_X	1.0
449.034	0.75	stopfail	0.795	Go_O	0.0
451.559	1.0	go	0.552	Go_O	1.0
454.083	1.0	go	0.0	Go_X	0.0
456.607	1.0	go	0.552	Go_O	1.0
459.131	1.0	go	0.713	Go_O	1.0
461.655	1.0	go	0.734	Go_X	1.0
464.179	0.7	stopfail	0.845	Go_X	0.0
466.703	1.0	go	0.589	Go_O	1.0
469.228	1.0	go	0.469	Go_X	1.0
471.752	1.0	go	0.513	Go_O	1.0
474.276	0.65	stopfail	0.617	Go_O	0.0
476.8	0.6	stopfail	0.801	Go_X	0.0
479.324	0.55	stopfail	0.792	Go_O	0.0
481.848	1.0	go	0.75	Go_X	0.0
484.373	0.5	stopsuccess	0.0	Go_X	1.0
486.897	1.0	go	0.637	Go_O	1.0
489.421	1.0	go	0.554	Go_X	1.0
491.945	1.0	go	0.558	Go_X	1.0
494.469	1.0	go	0.786	Go_O	1.0
496.993	1.0	go	0.511	Go_O	1.0
499.518	1.0	go	0.897	Go_X	1.0
502.042	1.0	go	0.0	Go_X	0.0
504.566	1.0	go	0.0	Go_O	0.0
507.09	0.55	stopsuccess	0.0	Go_O	1.0
509.614	1.0	go	0.509	Go_X	1.0
512.138	1.0	go	0.554	Go_O	1.0
514.663	0.6	stopfail	0.73	Go_X	0.0
517.187	1.0	go	0.7	Go_O	1.0
519.711	1.0	go	0.858	Go_X	1.0
522.235	1.0	go	0.0	Go_O	0.0
524.759	1.0	go	0.526	Go_X	0.0
527.283	1.0	go	0.429	Go_X	1.0
529.808	0.55	stopsuccess	0.0	Go_O	1.0
532.332	1.0	go	0.458	Go_O	1.0
534.856	1.0	go	0.0	Go_X	0.0
537.38	1.0	go	0.575	Go_O	0.0
539.904	0.6	stopsuccess	0.0	Go_X	1.0
542.428	1.0	go	0.664	Go_O	1.0
544.952	0.65	stopsuccess	0.0	Go_O	1.0
547.477	1.0	go	0.548	Go_X	1.0
550.001	1.0	go	0.541	Go_O	1.0
552.525	1.0	go	0.61	Go_X	1.0
555.049	1.0	go	0.364	Go_X	1.0
557.573	1.0	go	0.765	Go_O	1.0
560.097	1.0	go	0.875	Go_O	1.0
562.622	1.0	go	0.98	Go_X	0.0
565.146	0.7	stopfail	0.888	Go_X	0.0
567.67	1.0	go	0.718	Go_O	1.0
570.194	1.0	go	0.51	Go_X	1.0
572.718	1.0	go	0.787	Go_O	0.0
575.242	1.0	go	0.457	Go_X	0.0
577.767	0.65	stopfail	0.646	Go_O	0.0
580.291	1.0	go	0.958	Go_X	1.0
582.815	0.6	stopfail	0.854	Go_X	0.0
585.339	1.0	go	0.517	Go_O	1.0
587.863	1.0	go	0.502	Go_X	0.0
590.387	0.55	stopfail	0.641	Go_O	0.0
592.912	1.0	go	0.842	Go_O	0.0
595.436	1.0	go	0.911	Go_X	0.0
597.96	1.0	go	0.0	Go_O	0.0
600.484	1.0	go	0.353	Go_O	1.0
603.008	1.0	go	0.762	Go_X	1.0
605.532	1.0	go	0.589	Go_X	1.0
608.056	1.0	go	0.889	Go_O	1.0
610.581	1.0	go	0.608	Go_X	1.0
613.105	1.0	go	0.555	Go_O	1.0
615.629	1.0	go	0.6	Go_X	1.0
618.153	0.5	stopsuccess	0.0	Go_X	1.0
620.677	1.0	go	0.494	Go_O	1.0
623.201	1.0	go	0.956	Go_O	1.0
625.726	0.55	stopfail	0.567	Go_O	0.0
628.25	1.0	go	0.669	Go_X	1.0
630.774	0.5	stopsuccess	0.0	Go_X	1.0
633.298	1.0	go	0.0	Go_X	0.0
635.822	1.0	go	0.469	Go_O	1.0
638.346	0.55	stopfail	0.636	Go_O	0.0
640.871	1.0	go	0.437	Go_X	1.0
643.395	0.5	stopsuccess	0.0	Go_X	1.0
645.919	1.0	go	0.867	Go_O	1.0
648.443	1.0	go	0.0	Go_O	0.0
650.967	1.0	go	0.66	Go_X	0.0
653.491	0.55	stopsuccess	0.0	Go_O	1.0
656.016	1.0	go	0.644	Go_X	1.0
658.54	1.0	go	0.0	Go_O	0.0
661.064	1.0	go	0.608	Go_X	1.0
663.588	1.0	go	0.846	Go_O	1.0
666.112	0.6	stopsuccess	0.0	Go_X	1.0
668.636	1.0	go	0.73	Go_O	0.0
671.161	1.0	go	0.597	Go_X	1.0
673.685	0.65	stopfail	0.595	Go_O	0.0
676.209	1.0	go	0.628	Go_X	1.0
678.733	1.0	go	0.0	Go_O	0.0
681.257	1.0	go	0.527	Go_O	1.0
683.781	1.0	go	0.504	Go_X	1.0
686.305	0.6	stopsuccess	0.0	Go_X	1.0
688.83	1.0	go	0.582	Go_O	1.0
691.354	0.65	stopfail	0.584	Go_O	0.0
693.878	1.0	go	0.768	Go_X	1.0
696.402	1.0	go	0.643	Go_O	1.0
698.926	0.6	stopfail	0.683	Go_X	0.0
701.45	1.0	go	0.534	Go_X	1.0
703.975	1.0	go	0.461	Go_O	1.0
706.499	1.0	go	0.814	Go_X	1.0
709.023	1.0	go	0.554	Go_X	1.0
711.547	0.55	stopfail	0.529	Go_O	0.0
714.071	1.0	go	0.445	Go_O	1.0
716.595	0.5	stopfail	0.645	Go_X	0.0
719.12	1.0	go	0.527	Go_X	1.0
721.644	1.0	go	0.552	Go_O	1.0
724.168	1.0	go	0.631	Go_X	1.0
726.692	1.0	go	0.562	Go_O	1.0
729.216	1.0	go	0.385	Go_X	1.0
731.74	1.0	go	0.613	Go_O	1.0
734.265	0.45	stopsuccess	0.0	Go_O	1.0
736.789	1.0	go	0.742	Go_X	1.0
739.313	1.0	go	0.483	Go_O	1.0
741.837	0.5	stopfail	0.578	Go_X	0.0
744.361	1.0	go	0.572	Go_X	0.0
746.885	1.0	go	0.901	Go_O	1.0
749.41	0.45	stopsuccess	0.0	Go_O	1.0
751.934	1.0	go	0.639	Go_X	0.0
754.458	1.0	go	0.668	Go_O	1.0
756.982	1.0	go	0.983	Go_O	1.0
759.506	1.0	go	0.82	Go_X	1.0
762.03	0.5	stopfail	0.581	Go_X	0.0
764.554	1.0	go	0.0	Go_X	0.0
767.079	0.45	stopfail	0.512	Go_O	0.0
769.603	1.0	go	0.87	Go_O	1.0
772.127	1.0	go	0.685	Go_O	0.0
774.651	1.0	go	0.95	Go_X	1.0
777.175	1.0	go	0.944	Go_O	1.0
779.699	1.0	go	0.359	Go_X	1.0
782.224	0.4	stopfail	0.441	Go_X	0.0
784.748	1.0	go	0.501	Go_O	1.0
787.272	1.0	go	0.0	Go_X	0.0
789.796	0.35	stopfail	0.434	Go_O	0.0
792.32	0.3	stopsuccess	0.0	Go_X	1.0
794.844	1.0	go	0.729	Go_O	1.0
797.369	1.0	go	0.654	Go_X	1.0
799.893	1.0	go	0.703	Go_X	1.0
802.417	1.0	go	0.749	Go_O	1.0
804.941	0.35	stopsuccess	0.0	Go_O	1.0
807.465	1.0	go	0.0	Go_X	0.0
