onset	duration	trial_type	response_time	stim_file	accuracy
404.237	1.0	go	0.913	Go_O	1.0
406.761	1.0	go	0.482	Go_X	1.0
409.302	1.0	go	0.452	Go_O	1.0
411.826	1.0	go	0.344	Go_X	1.0
414.351	1.0	go	0.546	Go_X	1.0
416.875	1.0	go	0.563	Go_O	1.0
419.399	0.25	stop	0.0	Go_O	1.0
421.923	1.0	go	0.41	Go_O	1.0
424.447	0.3	stop	0.0	Go_X	1.0
426.988	1.0	go	0.588	Go_X	1.0
429.513	1.0	go	0.404	Go_X	1.0
432.037	1.0	go	0.559	Go_O	1.0
434.561	0.35	stop	0.574	Go_O	0.0
437.085	1.0	go	0.531	Go_O	1.0
439.609	1.0	go	0.489	Go_X	1.0
442.134	0.3	stop	0.466	Go_X	0.0
444.675	0.25	stop	0.385	Go_O	0.0
447.216	1.0	go	0.507	Go_X	1.0
449.757	1.0	go	0.593	Go_O	1.0
452.281	0.2	stop	0.0	Go_X	1.0
454.805	1.0	go	0.368	Go_O	1.0
457.329	1.0	go	0.351	Go_X	1.0
459.853	0.25	stop	0.0	Go_O	1.0
462.394	1.0	go	0.299	Go_X	1.0
464.919	1.0	go	0.306	Go_O	1.0
467.443	0.3	stop	0.329	Go_X	0.0
469.967	1.0	go	0.577	Go_X	1.0
472.491	1.0	go	0.632	Go_O	1.0
475.032	0.25	stop	0.0	Go_O	1.0
477.556	1.0	go	0.511	Go_O	1.0
480.081	1.0	go	0.504	Go_X	1.0
482.622	1.0	go	0.622	Go_X	1.0
485.146	1.0	go	0.525	Go_O	1.0
487.67	1.0	go	0.42	Go_O	1.0
490.211	0.3	stop	0.0	Go_X	1.0
492.735	1.0	go	0.405	Go_X	1.0
495.259	1.0	go	0.463	Go_O	1.0
497.784	1.0	go	0.481	Go_X	1.0
500.308	1.0	go	0.398	Go_X	1.0
502.832	1.0	go	0.487	Go_O	1.0
505.356	0.35	stop	0.514	Go_O	0.0
507.881	1.0	go	0.517	Go_X	1.0
510.405	1.0	go	0.609	Go_O	1.0
512.929	1.0	go	0.676	Go_O	1.0
515.453	1.0	go	0.639	Go_X	1.0
517.977	1.0	go	0.493	Go_O	1.0
520.502	1.0	go	0.617	Go_X	1.0
523.026	0.3	stop	0.0	Go_X	1.0
525.567	1.0	go	0.546	Go_X	1.0
528.091	1.0	go	0.598	Go_O	1.0
530.615	0.35	stop	0.453	Go_O	0.0
533.14	1.0	go	0.446	Go_X	1.0
535.664	0.3	stop	0.0	Go_X	1.0
538.205	0.35	stop	0.0	Go_O	1.0
540.729	1.0	go	0.687	Go_O	1.0
543.253	1.0	go	0.417	Go_O	1.0
545.777	1.0	go	0.388	Go_X	1.0
548.318	1.0	go	0.364	Go_X	1.0
550.843	0.4	stop	0.566	Go_X	0.0
553.383	1.0	go	0.317	Go_O	1.0
555.908	0.35	stop	0.444	Go_O	0.0
558.432	1.0	go	0.442	Go_O	1.0
560.956	1.0	go	0.391	Go_X	1.0
563.48	1.0	go	0.581	Go_O	1.0
566.021	1.0	go	0.415	Go_X	1.0
568.546	1.0	go	0.573	Go_O	1.0
571.07	1.0	go	0.55	Go_X	1.0
573.594	1.0	go	0.678	Go_X	1.0
576.118	1.0	go	0.602	Go_O	1.0
578.642	1.0	go	0.38	Go_X	1.0
581.167	0.3	stop	0.4	Go_X	0.0
583.691	1.0	go	0.498	Go_O	1.0
586.215	1.0	go	0.464	Go_O	1.0
588.756	1.0	go	0.457	Go_X	1.0
591.28	0.25	stop	0.439	Go_O	0.0
593.805	1.0	go	0.315	Go_X	1.0
596.346	1.0	go	0.672	Go_O	1.0
598.87	1.0	go	0.409	Go_O	1.0
601.394	1.0	go	0.423	Go_X	1.0
603.918	1.0	go	0.376	Go_X	1.0
606.442	1.0	go	0.354	Go_O	1.0
608.983	0.2	stop	0.0	Go_X	1.0
611.507	1.0	go	0.342	Go_X	1.0
614.032	1.0	go	0.415	Go_O	1.0
616.556	0.25	stop	0.4	Go_O	0.0
619.08	1.0	go	0.405	Go_O	1.0
621.604	1.0	go	0.48	Go_X	1.0
624.129	0.2	stop	0.0	Go_X	1.0
626.653	1.0	go	0.741	Go_O	1.0
629.177	0.25	stop	0.288	Go_O	0.0
631.701	1.0	go	0.292	Go_X	1.0
634.226	1.0	go	0.404	Go_O	1.0
636.75	1.0	go	0.0	Go_X	0.0
639.274	1.0	go	0.697	Go_X	1.0
641.798	1.0	go	0.524	Go_O	1.0
644.322	0.2	stop	0.36	Go_X	0.0
646.847	0.15	stop	0.313	Go_O	0.0
649.388	1.0	go	0.557	Go_X	1.0
651.912	1.0	go	0.597	Go_O	1.0
654.436	0.1	stop	0.0	Go_X	1.0
656.96	1.0	go	0.435	Go_O	1.0
659.485	1.0	go	0.433	Go_X	1.0
662.009	1.0	go	0.355	Go_X	1.0
664.533	1.0	go	0.53	Go_O	1.0
667.057	1.0	go	0.622	Go_X	1.0
669.581	1.0	go	0.532	Go_O	1.0
672.106	0.15	stop	0.0	Go_O	1.0
674.647	1.0	go	0.294	Go_X	1.0
677.171	1.0	go	0.624	Go_O	1.0
679.695	1.0	go	0.515	Go_X	1.0
682.219	1.0	go	0.462	Go_O	1.0
684.743	1.0	go	0.539	Go_X	1.0
687.268	0.2	stop	0.394	Go_X	0.0
689.809	1.0	go	0.397	Go_O	1.0
692.333	1.0	go	0.498	Go_X	1.0
694.857	1.0	go	0.292	Go_O	1.0
697.381	1.0	go	0.3	Go_X	1.0
699.906	0.15	stop	0.329	Go_O	0.0
702.446	1.0	go	0.215	Go_O	0.0
704.971	1.0	go	0.378	Go_X	1.0
707.495	0.1	stop	0.0	Go_X	1.0
710.036	1.0	go	0.312	Go_O	1.0
712.56	0.15	stop	0.0	Go_O	1.0
715.084	1.0	go	0.366	Go_X	1.0
717.609	1.0	go	0.393	Go_O	1.0
720.149	1.0	go	0.419	Go_X	1.0
722.69	1.0	go	0.337	Go_O	1.0
725.215	1.0	go	0.574	Go_X	1.0
727.739	1.0	go	0.479	Go_O	1.0
730.263	1.0	go	0.576	Go_X	1.0
732.787	0.2	stop	0.361	Go_X	0.0
735.312	1.0	go	0.483	Go_O	1.0
737.852	1.0	go	0.549	Go_X	1.0
740.377	1.0	go	0.917	Go_O	1.0
742.901	0.15	stop	0.0	Go_O	1.0
745.442	1.0	go	0.37	Go_X	1.0
747.966	1.0	go	0.518	Go_O	1.0
750.49	1.0	go	0.546	Go_O	1.0
753.015	1.0	go	0.481	Go_X	1.0
755.539	0.2	stop	0.0	Go_X	1.0
758.063	1.0	go	0.246	Go_X	0.0
760.587	1.0	go	0.522	Go_O	1.0
763.111	0.25	stop	0.458	Go_O	0.0
765.652	1.0	go	0.453	Go_O	1.0
768.177	1.0	go	0.38	Go_X	1.0
770.701	0.2	stop	0.0	Go_X	1.0
773.242	1.0	go	0.424	Go_O	1.0
775.766	1.0	go	0.567	Go_X	1.0
778.307	0.25	stop	0.0	Go_O	1.0
780.848	1.0	go	0.369	Go_X	1.0
783.372	1.0	go	0.582	Go_O	1.0
785.913	1.0	go	0.577	Go_O	1.0
788.437	1.0	go	0.605	Go_X	1.0
790.962	1.0	go	0.525	Go_O	1.0
793.486	1.0	go	0.433	Go_X	1.0
796.01	0.3	stop	0.423	Go_X	0.0
798.551	1.0	go	0.43	Go_X	1.0
801.075	0.25	stop	0.296	Go_O	0.0
803.599	1.0	go	0.405	Go_O	1.0
806.124	1.0	go	0.469	Go_X	1.0
808.648	1.0	go	0.457	Go_O	1.0
811.172	1.0	go	0.54	Go_O	1.0
813.713	1.0	go	0.269	Go_X	1.0
816.254	0.2	stop	0.0	Go_X	1.0
818.795	1.0	go	0.543	Go_O	1.0
821.319	1.0	go	0.487	Go_X	1.0
823.86	1.0	go	0.46	Go_X	1.0
826.384	0.25	stop	0.441	Go_O	0.0
828.909	0.2	stop	0.0	Go_X	1.0
831.433	0.25	stop	0.0	Go_O	1.0
833.974	1.0	go	0.477	Go_O	1.0
836.498	0.3	stop	0.459	Go_X	0.0
839.022	1.0	go	0.417	Go_O	1.0
841.546	1.0	go	0.359	Go_X	1.0
844.07	1.0	go	0.42	Go_O	1.0
846.595	1.0	go	0.428	Go_X	1.0
849.136	1.0	go	0.426	Go_O	1.0
851.66	1.0	go	0.457	Go_X	1.0
854.184	1.0	go	0.705	Go_O	1.0
856.708	1.0	go	0.572	Go_X	1.0
859.233	0.25	stop	0.0	Go_O	1.0
861.774	1.0	go	0.404	Go_O	1.0
864.298	1.0	go	0.398	Go_X	1.0
866.839	0.3	stop	0.466	Go_X	0.0
869.38	1.0	go	0.478	Go_X	1.0
871.904	1.0	go	0.484	Go_O	1.0
874.445	1.0	go	0.464	Go_X	1.0
876.969	1.0	go	0.415	Go_O	1.0
879.493	1.0	go	0.465	Go_O	1.0
882.017	0.25	stop	0.0	Go_O	1.0
884.542	1.0	go	0.533	Go_X	1.0
887.066	1.0	go	0.314	Go_X	1.0
889.59	1.0	go	0.425	Go_O	1.0
892.114	0.3	stop	0.393	Go_X	0.0
894.639	1.0	go	0.658	Go_X	1.0
897.163	0.25	stop	0.352	Go_O	0.0
899.704	1.0	go	0.0	Go_O	0.0
902.228	1.0	go	0.295	Go_X	1.0
904.752	1.0	go	0.439	Go_O	1.0
907.276	1.0	go	0.451	Go_O	1.0
909.801	1.0	go	0.503	Go_X	1.0
912.342	1.0	go	0.352	Go_X	1.0
914.866	1.0	go	0.45	Go_O	1.0
917.39	0.2	stop	0.351	Go_X	0.0
919.914	1.0	go	0.555	Go_X	1.0
922.455	1.0	go	0.603	Go_O	1.0
924.98	1.0	go	0.455	Go_O	0.0
927.504	1.0	go	0.3	Go_X	1.0
930.028	0.15	stop	0.0	Go_O	1.0
932.552	1.0	go	0.383	Go_X	1.0
935.076	0.2	stop	0.0	Go_X	1.0
937.601	1.0	go	0.526	Go_O	1.0
940.125	1.0	go	0.572	Go_X	1.0
942.649	0.25	stop	0.398	Go_O	0.0
945.173	1.0	go	0.395	Go_O	1.0
947.714	1.0	go	0.497	Go_X	1.0
950.239	1.0	go	0.426	Go_O	1.0
952.763	1.0	go	0.456	Go_X	1.0
955.304	1.0	go	0.471	Go_O	1.0
957.828	1.0	go	0.499	Go_O	1.0
960.352	1.0	go	0.403	Go_X	1.0
962.876	1.0	go	0.277	Go_O	1.0
965.4	1.0	go	0.347	Go_X	1.0
967.925	1.0	go	0.339	Go_O	1.0
970.449	0.2	stop	0.0	Go_X	1.0
972.974	1.0	go	0.298	Go_X	0.0
975.497	1.0	go	0.32	Go_X	1.0
978.022	0.25	stop	0.0	Go_O	1.0
980.546	1.0	go	0.337	Go_O	1.0
983.07	0.3	stop	0.0	Go_X	1.0
985.594	1.0	go	0.64	Go_O	1.0
988.119	1.0	go	0.335	Go_X	1.0
990.643	0.35	stop	0.332	Go_O	0.0
993.167	1.0	go	0.715	Go_O	1.0
995.691	0.3	stop	0.471	Go_X	0.0
998.215	1.0	go	0.4	Go_X	1.0
1000.74	1.0	go	0.299	Go_X	0.0
1003.264	1.0	go	0.287	Go_O	1.0
1005.788	0.25	stop	0.0	Go_O	1.0
1008.312	1.0	go	0.343	Go_X	1.0
1010.837	1.0	go	0.53	Go_O	1.0
1013.361	1.0	go	0.623	Go_O	1.0
1015.885	1.0	go	0.379	Go_X	1.0
1018.409	0.3	stop	0.0	Go_X	1.0
1020.933	1.0	go	0.492	Go_X	1.0
1023.458	1.0	go	0.409	Go_O	1.0
1025.982	0.35	stop	0.425	Go_O	0.0
1028.506	1.0	go	0.298	Go_X	1.0
1031.03	1.0	go	0.499	Go_O	1.0
1033.555	1.0	go	0.4	Go_X	1.0
1036.079	1.0	go	0.483	Go_O	1.0
1038.603	0.3	stop	0.377	Go_X	0.0
1041.144	1.0	go	0.36	Go_X	1.0
1043.668	0.25	stop	0.0	Go_O	1.0
1046.192	1.0	go	0.525	Go_O	1.0
1048.717	1.0	go	0.634	Go_O	1.0
1051.258	0.3	stop	0.506	Go_X	0.0
1053.782	1.0	go	0.547	Go_X	1.0
1056.306	1.0	go	0.412	Go_O	1.0
1058.83	1.0	go	0.493	Go_X	1.0
1061.354	1.0	go	0.409	Go_X	1.0
1063.879	0.25	stop	0.534	Go_O	0.0
1066.42	1.0	go	0.372	Go_O	1.0
1068.944	0.2	stop	0.0	Go_X	1.0
1071.468	1.0	go	0.395	Go_X	1.0
1073.992	1.0	go	0.297	Go_O	1.0
1076.516	1.0	go	0.348	Go_O	1.0
1079.057	1.0	go	0.428	Go_X	1.0
1081.582	1.0	go	0.409	Go_X	0.0
1084.123	1.0	go	0.546	Go_O	1.0
1086.647	0.25	stop	0.373	Go_O	0.0
1089.188	1.0	go	0.299	Go_X	1.0
1091.712	1.0	go	0.386	Go_O	1.0
1094.236	0.2	stop	0.314	Go_X	0.0
1096.76	1.0	go	0.431	Go_O	1.0
1099.285	1.0	go	0.342	Go_X	1.0
1101.826	0.15	stop	0.0	Go_O	1.0
1104.35	1.0	go	0.458	Go_X	1.0
1106.874	1.0	go	0.736	Go_O	1.0
1109.398	1.0	go	0.3	Go_O	0.0
1111.922	1.0	go	0.205	Go_X	1.0
1114.463	0.2	stop	0.0	Go_X	1.0
1116.988	1.0	go	0.657	Go_X	1.0
1119.529	0.25	stop	0.439	Go_O	0.0
1122.053	1.0	go	0.422	Go_O	1.0
1124.577	1.0	go	0.377	Go_X	1.0
1127.101	1.0	go	0.352	Go_O	1.0
1129.625	1.0	go	0.399	Go_O	1.0
1132.15	1.0	go	0.325	Go_X	1.0
1134.674	0.2	stop	0.0	Go_X	1.0
1137.215	1.0	go	0.491	Go_X	1.0
1139.739	1.0	go	0.384	Go_O	1.0
1142.28	0.25	stop	0.0	Go_O	1.0
1144.821	0.3	stop	0.287	Go_X	0.0
1147.362	1.0	go	0.415	Go_O	1.0
1149.903	1.0	go	0.436	Go_X	1.0
1152.427	1.0	go	0.467	Go_X	1.0
1154.951	1.0	go	0.485	Go_O	1.0
1157.476	0.25	stop	0.47	Go_O	0.0
1160.016	1.0	go	0.415	Go_O	1.0
