onset	duration	trial_type	response_time	stim_file	accuracy
52.682	1.0	go	0.646	Go_X	1.0
55.206	1.0	go	0.436	Go_O	1.0
57.73	1.0	go	0.377	Go_X	1.0
60.254	1.0	go	0.396	Go_O	1.0
62.779	1.0	go	0.357	Go_X	1.0
65.303	1.0	go	0.222	Go_O	1.0
67.827	0.25	stop	0.262	Go_O	0.0
70.351	1.0	go	0.394	Go_O	1.0
72.875	0.2	stop	0.322	Go_X	0.0
75.4	1.0	go	0.335	Go_X	1.0
77.924	1.0	go	0.474	Go_X	1.0
80.448	1.0	go	0.315	Go_O	1.0
82.972	0.15	stop	0.326	Go_O	0.0
85.496	1.0	go	0.32	Go_O	1.0
88.02	1.0	go	0.328	Go_X	1.0
90.545	0.1	stop	0.0	Go_X	1.0
93.086	0.15	stop	0.0	Go_O	1.0
95.627	1.0	go	0.449	Go_X	1.0
98.151	1.0	go	0.309	Go_O	1.0
100.675	0.2	stop	0.0	Go_X	1.0
103.199	1.0	go	0.416	Go_O	1.0
105.723	1.0	go	0.373	Go_X	1.0
108.247	0.25	stop	0.343	Go_O	0.0
110.772	1.0	go	0.424	Go_O	1.0
113.296	1.0	go	0.333	Go_X	1.0
115.82	0.2	stop	0.0	Go_X	1.0
118.344	1.0	go	0.802	Go_X	1.0
120.868	1.0	go	0.46	Go_O	1.0
123.393	0.25	stop	0.0	Go_O	1.0
125.917	1.0	go	0.324	Go_X	1.0
128.441	1.0	go	0.308	Go_O	1.0
130.965	1.0	go	0.538	Go_O	1.0
133.489	1.0	go	0.354	Go_X	1.0
136.014	1.0	go	0.574	Go_O	1.0
138.538	0.3	stop	0.348	Go_X	0.0
141.062	1.0	go	0.397	Go_X	1.0
143.586	1.0	go	0.445	Go_O	1.0
146.11	1.0	go	0.545	Go_X	1.0
148.635	1.0	go	0.517	Go_X	1.0
151.159	1.0	go	0.535	Go_O	1.0
153.683	0.25	stop	0.0	Go_O	1.0
156.207	1.0	go	0.476	Go_O	1.0
158.731	1.0	go	0.618	Go_X	1.0
161.256	1.0	go	0.601	Go_X	0.0
163.78	1.0	go	0.461	Go_O	1.0
166.304	1.0	go	0.54	Go_O	1.0
168.828	1.0	go	0.384	Go_X	1.0
171.352	0.3	stop	0.412	Go_X	0.0
173.876	1.0	go	0.404	Go_O	1.0
176.401	1.0	go	0.574	Go_X	1.0
178.925	0.25	stop	0.0	Go_O	1.0
181.449	1.0	go	0.454	Go_X	1.0
183.973	0.3	stop	0.0	Go_X	1.0
186.497	0.35	stop	0.381	Go_O	0.0
189.022	1.0	go	0.341	Go_O	1.0
191.546	1.0	go	0.484	Go_X	1.0
194.07	1.0	go	0.481	Go_O	1.0
196.594	1.0	go	0.573	Go_X	1.0
199.118	0.3	stop	0.0	Go_X	1.0
201.643	1.0	go	0.515	Go_O	1.0
204.167	0.35	stop	0.474	Go_O	0.0
206.691	1.0	go	0.423	Go_O	1.0
209.215	1.0	go	0.556	Go_X	1.0
211.739	1.0	go	0.463	Go_O	1.0
214.264	1.0	go	0.762	Go_X	1.0
216.788	1.0	go	0.436	Go_X	1.0
219.312	1.0	go	0.385	Go_O	1.0
221.836	1.0	go	0.591	Go_X	1.0
224.36	1.0	go	0.349	Go_O	1.0
226.885	1.0	go	0.393	Go_X	1.0
229.409	0.3	stop	0.0	Go_X	1.0
231.933	1.0	go	0.395	Go_O	1.0
234.457	1.0	go	0.498	Go_O	1.0
236.981	1.0	go	0.456	Go_X	1.0
239.505	0.35	stop	0.431	Go_O	0.0
242.03	1.0	go	0.434	Go_O	1.0
244.554	1.0	go	0.653	Go_X	1.0
247.078	1.0	go	0.556	Go_O	1.0
249.602	1.0	go	0.434	Go_X	1.0
252.126	1.0	go	0.541	Go_O	1.0
254.651	1.0	go	0.658	Go_X	1.0
257.175	0.3	stop	0.0	Go_X	1.0
259.699	1.0	go	0.416	Go_O	1.0
262.223	1.0	go	0.438	Go_X	1.0
264.747	0.35	stop	0.433	Go_O	0.0
267.272	1.0	go	0.712	Go_O	1.0
269.796	1.0	go	0.612	Go_X	1.0
272.32	0.3	stop	0.0	Go_X	1.0
274.844	1.0	go	0.602	Go_O	1.0
277.368	0.35	stop	0.0	Go_O	1.0
279.893	1.0	go	0.802	Go_X	1.0
282.417	1.0	go	0.444	Go_O	1.0
284.941	1.0	go	0.459	Go_X	1.0
287.465	1.0	go	0.66	Go_X	1.0
289.989	1.0	go	0.548	Go_O	1.0
292.514	0.4	stop	0.507	Go_X	0.0
295.038	0.35	stop	0.0	Go_O	1.0
297.562	1.0	go	0.548	Go_X	1.0
300.086	1.0	go	0.483	Go_O	1.0
302.61	0.4	stop	0.0	Go_X	1.0
305.134	1.0	go	0.554	Go_O	1.0
307.659	1.0	go	0.652	Go_X	1.0
310.183	1.0	go	0.517	Go_O	1.0
312.707	1.0	go	0.557	Go_X	1.0
315.231	1.0	go	0.653	Go_X	1.0
317.755	1.0	go	0.554	Go_O	1.0
320.28	0.45	stop	0.567	Go_O	0.0
322.804	1.0	go	0.585	Go_O	1.0
325.328	1.0	go	0.798	Go_X	1.0
327.852	1.0	go	0.739	Go_X	1.0
330.376	1.0	go	0.568	Go_O	1.0
332.901	1.0	go	0.507	Go_O	1.0
335.425	0.4	stop	0.52	Go_X	0.0
337.949	1.0	go	0.558	Go_X	1.0
340.473	1.0	go	0.452	Go_O	1.0
342.997	1.0	go	0.589	Go_X	1.0
345.522	1.0	go	0.626	Go_X	1.0
348.046	0.35	stop	0.435	Go_O	0.0
350.57	1.0	go	0.49	Go_O	1.0
353.094	1.0	go	0.565	Go_X	1.0
355.618	0.3	stop	0.0	Go_X	1.0
358.142	1.0	go	0.434	Go_O	1.0
360.667	0.35	stop	0.463	Go_O	0.0
363.191	1.0	go	0.869	Go_O	1.0
365.715	1.0	go	0.518	Go_X	1.0
368.239	1.0	go	0.514	Go_O	1.0
370.763	1.0	go	0.565	Go_X	1.0
373.288	1.0	go	0.566	Go_X	1.0
375.812	1.0	go	0.659	Go_O	1.0
378.336	1.0	go	0.538	Go_O	1.0
380.86	0.3	stop	0.0	Go_X	1.0
383.384	1.0	go	0.571	Go_X	1.0
385.909	1.0	go	0.603	Go_X	1.0
388.433	1.0	go	0.526	Go_O	1.0
390.957	0.35	stop	0.0	Go_O	1.0
393.481	1.0	go	0.514	Go_O	1.0
396.005	1.0	go	0.514	Go_X	1.0
398.53	1.0	go	0.487	Go_O	1.0
401.054	1.0	go	0.515	Go_X	1.0
403.578	0.4	stop	0.536	Go_X	0.0
406.102	1.0	go	0.675	Go_X	1.0
408.626	1.0	go	0.513	Go_O	1.0
411.151	0.35	stop	0.0	Go_O	1.0
413.675	1.0	go	0.522	Go_O	1.0
416.199	1.0	go	0.722	Go_X	1.0
418.723	0.4	stop	0.0	Go_X	1.0
421.247	1.0	go	0.421	Go_O	1.0
423.772	1.0	go	0.539	Go_X	1.0
426.296	0.45	stop	0.0	Go_O	1.0
428.82	1.0	go	0.699	Go_X	1.0
431.344	1.0	go	0.829	Go_O	1.0
433.868	1.0	go	0.395	Go_O	1.0
436.392	1.0	go	0.441	Go_X	1.0
438.917	1.0	go	0.598	Go_X	1.0
441.441	1.0	go	0.576	Go_O	1.0
443.965	0.5	stop	0.0	Go_X	1.0
446.489	1.0	go	0.54	Go_O	1.0
449.013	0.55	stop	0.616	Go_O	0.0
451.538	1.0	go	0.558	Go_X	1.0
454.062	1.0	go	0.631	Go_O	1.0
456.586	1.0	go	0.608	Go_X	1.0
459.11	1.0	go	0.634	Go_O	1.0
461.634	1.0	go	0.874	Go_X	1.0
464.159	0.5	stop	0.614	Go_X	0.0
466.699	1.0	go	0.648	Go_X	1.0
469.224	1.0	go	0.61	Go_O	1.0
471.748	1.0	go	0.687	Go_O	1.0
474.272	0.45	stop	0.507	Go_O	0.0
476.796	0.4	stop	0.0	Go_X	1.0
479.32	0.45	stop	0.506	Go_O	0.0
481.845	1.0	go	0.593	Go_X	1.0
484.369	0.4	stop	0.0	Go_X	1.0
486.893	1.0	go	0.474	Go_O	1.0
489.417	1.0	go	0.498	Go_X	1.0
491.941	1.0	go	0.457	Go_O	1.0
494.466	1.0	go	0.424	Go_X	1.0
496.99	1.0	go	0.469	Go_O	1.0
499.514	1.0	go	0.457	Go_X	1.0
502.038	1.0	go	0.39	Go_O	1.0
504.562	1.0	go	0.409	Go_X	1.0
507.087	0.45	stop	0.0	Go_O	1.0
509.627	1.0	go	0.613	Go_O	1.0
512.152	1.0	go	0.562	Go_X	1.0
514.676	0.5	stop	0.605	Go_X	0.0
517.2	1.0	go	0.688	Go_O	1.0
519.724	1.0	go	0.652	Go_X	1.0
522.248	1.0	go	0.69	Go_X	1.0
524.773	1.0	go	0.476	Go_O	1.0
527.297	1.0	go	0.409	Go_O	1.0
529.821	0.45	stop	0.566	Go_O	0.0
532.345	1.0	go	0.662	Go_X	1.0
534.869	1.0	go	0.651	Go_X	1.0
537.394	1.0	go	0.514	Go_O	1.0
539.918	0.4	stop	0.0	Go_X	1.0
542.442	1.0	go	0.428	Go_O	1.0
544.966	0.45	stop	0.439	Go_O	0.0
547.49	1.0	go	0.669	Go_X	1.0
550.015	1.0	go	0.524	Go_O	1.0
552.539	1.0	go	0.58	Go_X	1.0
555.063	1.0	go	0.378	Go_O	1.0
557.587	1.0	go	0.668	Go_X	1.0
560.111	1.0	go	0.43	Go_O	1.0
562.636	1.0	go	0.456	Go_X	1.0
565.16	0.4	stop	0.723	Go_X	0.0
567.701	1.0	go	0.457	Go_X	1.0
570.225	1.0	go	0.446	Go_O	1.0
572.749	1.0	go	0.573	Go_O	1.0
575.273	1.0	go	0.393	Go_X	1.0
577.797	0.35	stop	0.0	Go_O	1.0
580.322	1.0	go	0.433	Go_O	1.0
582.846	0.4	stop	0.463	Go_X	0.0
585.37	1.0	go	0.477	Go_X	1.0
587.894	1.0	go	0.619	Go_O	1.0
590.418	0.35	stop	0.481	Go_O	0.0
592.943	1.0	go	0.987	Go_X	1.0
595.467	1.0	go	0.722	Go_X	1.0
597.991	1.0	go	0.665	Go_O	1.0
600.515	1.0	go	0.586	Go_O	1.0
603.039	1.0	go	0.63	Go_X	1.0
605.563	1.0	go	0.71	Go_O	1.0
608.088	1.0	go	0.609	Go_X	1.0
610.612	1.0	go	0.584	Go_X	1.0
613.136	1.0	go	0.649	Go_O	1.0
615.66	1.0	go	0.638	Go_X	1.0
618.184	0.3	stop	0.0	Go_X	1.0
620.709	1.0	go	0.62	Go_O	1.0
623.233	1.0	go	0.696	Go_X	1.0
625.757	0.35	stop	0.0	Go_O	1.0
628.281	1.0	go	0.446	Go_O	1.0
630.805	0.4	stop	0.537	Go_X	0.0
633.33	1.0	go	0.503	Go_X	1.0
635.854	1.0	go	0.626	Go_O	1.0
638.378	0.35	stop	0.0	Go_O	1.0
640.902	1.0	go	0.427	Go_X	1.0
643.426	0.4	stop	0.0	Go_X	1.0
645.951	1.0	go	0.413	Go_O	1.0
648.475	1.0	go	0.446	Go_O	1.0
650.999	1.0	go	0.636	Go_X	1.0
653.523	0.45	stop	0.511	Go_O	0.0
656.047	1.0	go	0.773	Go_X	1.0
658.572	1.0	go	0.447	Go_O	1.0
661.096	1.0	go	0.367	Go_O	1.0
663.62	1.0	go	0.532	Go_X	1.0
666.144	0.4	stop	0.517	Go_X	0.0
668.668	1.0	go	0.486	Go_O	1.0
671.192	1.0	go	0.556	Go_X	1.0
673.717	0.35	stop	0.434	Go_O	0.0
676.241	1.0	go	0.805	Go_X	1.0
678.765	1.0	go	0.412	Go_O	1.0
681.289	1.0	go	0.472	Go_X	1.0
683.813	1.0	go	0.578	Go_O	1.0
686.338	0.3	stop	0.0	Go_X	1.0
688.862	1.0	go	0.511	Go_O	1.0
691.386	0.35	stop	0.0	Go_O	1.0
693.91	1.0	go	0.429	Go_X	1.0
696.434	1.0	go	0.536	Go_O	1.0
698.959	0.4	stop	0.0	Go_X	1.0
701.483	1.0	go	0.586	Go_X	1.0
704.007	1.0	go	0.601	Go_X	1.0
706.531	1.0	go	0.635	Go_O	1.0
709.055	1.0	go	0.436	Go_O	1.0
711.58	0.45	stop	0.374	Go_O	0.0
714.12	1.0	go	0.841	Go_X	1.0
716.645	0.4	stop	0.533	Go_X	0.0
719.169	1.0	go	0.512	Go_O	1.0
721.693	1.0	go	0.648	Go_X	1.0
724.217	1.0	go	0.635	Go_X	1.0
726.741	1.0	go	0.585	Go_O	1.0
729.266	1.0	go	0.816	Go_O	1.0
731.79	1.0	go	0.595	Go_X	1.0
734.314	0.35	stop	0.0	Go_O	1.0
736.838	1.0	go	0.515	Go_O	1.0
739.362	1.0	go	0.573	Go_X	1.0
741.887	0.4	stop	0.0	Go_X	1.0
744.411	1.0	go	0.617	Go_O	1.0
746.935	1.0	go	0.569	Go_X	1.0
749.459	0.45	stop	0.0	Go_O	1.0
751.983	1.0	go	0.617	Go_X	1.0
754.508	1.0	go	0.565	Go_O	1.0
757.032	1.0	go	0.705	Go_X	1.0
759.556	1.0	go	0.489	Go_O	1.0
762.08	0.5	stop	0.641	Go_X	0.0
764.604	1.0	go	0.683	Go_X	1.0
767.129	0.45	stop	0.59	Go_O	0.0
769.653	1.0	go	0.558	Go_O	1.0
772.177	1.0	go	0.561	Go_X	1.0
774.701	1.0	go	0.647	Go_O	1.0
777.225	1.0	go	0.695	Go_X	1.0
779.749	1.0	go	0.445	Go_O	1.0
782.274	0.4	stop	0.0	Go_X	1.0
784.798	1.0	go	0.588	Go_X	1.0
787.322	1.0	go	0.53	Go_O	1.0
789.846	0.45	stop	0.632	Go_O	0.0
792.37	0.4	stop	0.496	Go_X	0.0
794.895	1.0	go	0.548	Go_X	1.0
797.419	1.0	go	0.593	Go_O	1.0
799.943	1.0	go	0.55	Go_X	1.0
802.467	1.0	go	0.692	Go_O	1.0
804.991	0.35	stop	0.398	Go_O	0.0
807.516	1.0	go	0.616	Go_X	1.0
