onset	duration	trial_type	response_time	stim_file	accuracy
736.934	1.0	go	0.528	Go_X	1.0
739.542	1.0	go	0.426	Go_O	1.0
742.066	1.0	go	0.341	Go_O	1.0
744.59	1.0	go	0.309	Go_X	1.0
747.114	1.0	go	0.32	Go_O	1.0
749.639	1.0	go	0.268	Go_X	1.0
752.163	0.25	stop	0.373	Go_O	0.0
754.721	1.0	go	0.479	Go_O	1.0
757.245	0.2	stop	0.253	Go_X	0.0
759.769	1.0	go	0.559	Go_X	1.0
762.293	1.0	go	0.329	Go_O	1.0
764.817	1.0	go	0.313	Go_X	1.0
767.342	0.15	stop	0.0	Go_O	1.0
769.866	1.0	go	0.359	Go_X	1.0
772.39	1.0	go	0.448	Go_O	1.0
774.914	0.2	stop	0.338	Go_X	0.0
777.439	0.15	stop	0.0	Go_O	1.0
779.963	1.0	go	0.411	Go_X	1.0
782.487	1.0	go	0.339	Go_O	1.0
785.011	0.2	stop	0.275	Go_X	0.0
787.536	1.0	go	0.306	Go_O	1.0
790.06	1.0	go	0.423	Go_X	1.0
792.584	0.15	stop	0.314	Go_O	0.0
795.108	1.0	go	0.243	Go_O	0.0
797.632	1.0	go	0.311	Go_X	1.0
800.157	0.1	stop	0.0	Go_X	1.0
802.681	1.0	go	0.377	Go_O	1.0
805.205	1.0	go	0.453	Go_X	1.0
807.729	0.15	stop	0.0	Go_O	1.0
810.254	1.0	go	0.362	Go_X	1.0
812.778	1.0	go	0.438	Go_O	1.0
815.302	1.0	go	0.387	Go_O	1.0
817.826	1.0	go	0.35	Go_X	1.0
820.35	1.0	go	0.405	Go_X	1.0
822.875	0.2	stop	0.323	Go_X	0.0
825.399	1.0	go	0.362	Go_O	1.0
827.923	1.0	go	0.498	Go_O	1.0
830.447	1.0	go	0.303	Go_X	1.0
832.972	1.0	go	0.315	Go_O	1.0
835.496	1.0	go	0.276	Go_X	1.0
838.02	0.15	stop	0.0	Go_O	1.0
840.544	1.0	go	0.439	Go_X	1.0
843.068	1.0	go	0.391	Go_O	1.0
845.593	1.0	go	0.488	Go_X	1.0
848.117	1.0	go	0.361	Go_O	1.0
850.641	1.0	go	0.349	Go_X	1.0
853.165	1.0	go	0.397	Go_O	1.0
855.69	0.2	stop	0.0	Go_X	1.0
858.214	1.0	go	0.379	Go_X	1.0
860.738	1.0	go	0.314	Go_O	1.0
863.262	0.25	stop	0.0	Go_O	1.0
865.786	1.0	go	0.412	Go_X	1.0
868.311	0.3	stop	0.361	Go_X	0.0
870.835	0.25	stop	0.349	Go_O	0.0
873.359	1.0	go	0.478	Go_O	1.0
875.883	1.0	go	0.377	Go_X	1.0
878.408	1.0	go	0.338	Go_O	1.0
880.932	1.0	go	0.295	Go_X	1.0
883.456	0.2	stop	0.0	Go_X	1.0
885.98	1.0	go	0.397	Go_O	1.0
888.505	0.25	stop	0.405	Go_O	0.0
891.029	1.0	go	0.73	Go_O	1.0
893.553	1.0	go	0.421	Go_X	1.0
896.077	1.0	go	0.469	Go_O	1.0
898.601	1.0	go	0.357	Go_X	1.0
901.126	1.0	go	0.382	Go_O	1.0
903.65	1.0	go	0.349	Go_X	1.0
906.174	1.0	go	0.326	Go_O	1.0
908.698	1.0	go	0.577	Go_X	1.0
911.223	1.0	go	0.411	Go_X	1.0
913.747	0.2	stop	0.0	Go_X	1.0
916.271	1.0	go	0.519	Go_O	1.0
918.795	1.0	go	0.518	Go_X	1.0
921.319	1.0	go	0.592	Go_O	1.0
923.844	0.25	stop	0.38	Go_O	0.0
926.368	1.0	go	0.481	Go_O	1.0
928.892	1.0	go	0.408	Go_X	1.0
931.416	1.0	go	0.492	Go_X	1.0
933.941	1.0	go	0.529	Go_O	1.0
936.465	1.0	go	0.444	Go_X	1.0
938.989	1.0	go	0.344	Go_O	1.0
941.513	0.2	stop	0.329	Go_X	0.0
944.037	1.0	go	0.357	Go_X	1.0
946.562	1.0	go	0.354	Go_O	1.0
949.086	0.15	stop	0.0	Go_O	1.0
951.61	1.0	go	0.443	Go_X	1.0
954.134	1.0	go	0.417	Go_O	1.0
956.659	0.2	stop	0.0	Go_X	1.0
959.183	1.0	go	0.373	Go_X	1.0
961.707	0.25	stop	0.0	Go_O	1.0
964.231	1.0	go	0.368	Go_O	0.0
966.755	1.0	go	0.382	Go_X	1.0
969.28	1.0	go	0.642	Go_O	1.0
971.804	1.0	go	0.566	Go_X	1.0
974.328	1.0	go	0.332	Go_O	1.0
976.852	0.3	stop	0.391	Go_X	0.0
979.377	0.25	stop	0.0	Go_O	1.0
981.901	1.0	go	0.318	Go_O	0.0
984.425	1.0	go	0.305	Go_X	1.0
986.949	0.3	stop	0.386	Go_X	0.0
989.473	1.0	go	0.378	Go_O	1.0
991.998	1.0	go	0.423	Go_X	1.0
994.522	1.0	go	0.705	Go_X	1.0
997.046	1.0	go	0.788	Go_O	1.0
999.57	1.0	go	0.0	Go_O	0.0
1002.095	1.0	go	0.343	Go_X	1.0
1004.619	0.25	stop	0.0	Go_O	1.0
1007.143	1.0	go	0.412	Go_O	1.0
1009.667	1.0	go	0.461	Go_X	1.0
1012.191	1.0	go	0.61	Go_X	1.0
1014.716	1.0	go	0.414	Go_O	1.0
1017.24	1.0	go	0.412	Go_X	1.0
1019.764	0.3	stop	0.663	Go_X	0.0
1022.288	1.0	go	0.0	Go_O	0.0
1024.813	1.0	go	0.671	Go_O	0.0
1027.337	1.0	go	0.369	Go_X	1.0
1029.861	1.0	go	0.352	Go_X	1.0
1032.385	0.25	stop	0.266	Go_O	0.0
1034.91	1.0	go	0.289	Go_O	1.0
1037.434	1.0	go	0.39	Go_O	1.0
1039.958	0.2	stop	0.0	Go_X	1.0
1042.482	1.0	go	0.394	Go_X	1.0
1045.006	0.25	stop	0.0	Go_O	1.0
1047.531	1.0	go	0.757	Go_O	1.0
1050.055	1.0	go	0.431	Go_X	1.0
1052.579	1.0	go	0.462	Go_X	1.0
1055.103	1.0	go	0.739	Go_O	1.0
1057.628	1.0	go	0.0	Go_O	0.0
1060.152	1.0	go	0.439	Go_X	1.0
1062.676	1.0	go	0.542	Go_O	1.0
1065.2	0.3	stop	0.594	Go_X	0.0
1067.724	1.0	go	0.704	Go_X	0.0
1070.249	1.0	go	0.0	Go_X	0.0
1072.773	1.0	go	0.0	Go_O	0.0
1075.297	0.25	stop	0.535	Go_O	0.0
1077.821	1.0	go	0.415	Go_X	1.0
1080.346	1.0	go	0.404	Go_O	1.0
1082.87	1.0	go	0.411	Go_O	1.0
1085.394	1.0	go	0.526	Go_X	1.0
1087.918	0.2	stop	0.0	Go_X	1.0
1090.442	1.0	go	0.683	Go_X	1.0
1092.967	1.0	go	0.0	Go_O	0.0
1095.491	0.25	stop	0.514	Go_O	0.0
1098.015	1.0	go	0.339	Go_O	1.0
1100.539	1.0	go	0.405	Go_X	1.0
1103.064	0.2	stop	0.0	Go_X	1.0
1105.588	1.0	go	0.641	Go_O	1.0
1108.112	1.0	go	0.0	Go_X	0.0
1110.636	0.25	stop	0.0	Go_O	1.0
1113.16	1.0	go	0.365	Go_X	1.0
1115.685	1.0	go	0.348	Go_O	1.0
1118.209	1.0	go	0.691	Go_O	1.0
1120.733	1.0	go	0.4	Go_X	1.0
1123.257	1.0	go	0.0	Go_O	0.0
1125.782	1.0	go	0.0	Go_X	0.0
1128.306	0.3	stop	0.307	Go_X	0.0
1130.83	1.0	go	0.354	Go_X	1.0
1133.354	0.25	stop	0.377	Go_O	0.0
1135.879	1.0	go	0.0	Go_O	0.0
1138.403	1.0	go	0.702	Go_X	1.0
1140.927	1.0	go	0.0	Go_O	0.0
1143.451	1.0	go	0.0	Go_X	0.0
1145.975	1.0	go	0.57	Go_O	1.0
1148.5	0.2	stop	0.426	Go_X	0.0
1151.024	1.0	go	0.531	Go_X	1.0
1153.548	1.0	go	0.0	Go_O	0.0
1156.072	1.0	go	0.546	Go_O	1.0
1158.597	0.15	stop	0.0	Go_O	1.0
1161.121	0.2	stop	0.356	Go_X	0.0
1163.645	0.15	stop	0.0	Go_O	1.0
1166.169	1.0	go	0.481	Go_X	1.0
1168.693	0.2	stop	0.0	Go_X	1.0
1171.218	1.0	go	0.0	Go_O	0.0
1173.742	1.0	go	0.704	Go_X	1.0
1176.266	1.0	go	0.0	Go_X	0.0
1178.79	1.0	go	0.0	Go_O	0.0
1181.315	1.0	go	0.685	Go_X	1.0
1183.839	1.0	go	0.0	Go_O	0.0
1186.363	1.0	go	0.0	Go_X	0.0
1188.887	1.0	go	0.925	Go_O	1.0
1191.411	0.25	stop	0.451	Go_O	0.0
1193.936	1.0	go	0.669	Go_X	1.0
1196.46	1.0	go	0.0	Go_O	0.0
1198.984	0.2	stop	0.0	Go_X	1.0
1201.508	1.0	go	0.438	Go_X	1.0
1204.033	1.0	go	0.0	Go_O	0.0
1206.557	1.0	go	0.0	Go_O	0.0
1209.081	1.0	go	0.515	Go_X	1.0
1211.605	1.0	go	0.0	Go_O	0.0
1214.129	0.25	stop	0.0	Go_O	1.0
1216.654	1.0	go	0.483	Go_X	1.0
1219.178	1.0	go	0.0	Go_X	0.0
1221.702	1.0	go	0.0	Go_O	0.0
1224.226	0.3	stop	0.0	Go_X	1.0
1226.751	1.0	go	0.0	Go_O	0.0
1229.275	0.35	stop	0.0	Go_O	1.0
1231.799	1.0	go	0.0	Go_X	0.0
1234.323	1.0	go	0.0	Go_X	0.0
1236.847	1.0	go	0.0	Go_O	0.0
1239.372	1.0	go	0.337	Go_O	0.0
1241.896	1.0	go	0.418	Go_X	1.0
1244.42	1.0	go	0.409	Go_X	1.0
1246.944	1.0	go	0.0	Go_O	0.0
1249.469	0.4	stop	0.0	Go_X	1.0
1251.993	1.0	go	0.0	Go_O	0.0
1254.517	1.0	go	0.0	Go_X	0.0
1257.041	1.0	go	0.0	Go_X	0.0
1259.566	1.0	go	0.0	Go_O	0.0
1262.09	0.45	stop	0.0	Go_O	1.0
1264.614	1.0	go	0.0	Go_X	0.0
1267.138	0.5	stop	0.0	Go_X	1.0
1269.662	1.0	go	0.0	Go_O	0.0
1272.187	1.0	go	0.0	Go_O	0.0
1274.711	0.55	stop	0.0	Go_O	1.0
1277.235	1.0	go	0.347	Go_X	1.0
1279.759	1.0	go	0.475	Go_O	1.0
1282.284	1.0	go	0.427	Go_X	1.0
1284.808	1.0	go	0.392	Go_X	1.0
1287.332	1.0	go	0.377	Go_O	1.0
1289.856	1.0	go	0.356	Go_O	0.0
1292.38	1.0	go	0.926	Go_X	1.0
1294.905	1.0	go	0.0	Go_O	0.0
1297.429	1.0	go	0.408	Go_X	1.0
1299.953	1.0	go	0.733	Go_X	1.0
1302.477	0.6	stop	0.0	Go_X	1.0
1305.002	1.0	go	0.0	Go_O	0.0
1307.526	1.0	go	0.0	Go_O	0.0
1310.05	0.65	stop	0.0	Go_O	1.0
1312.574	1.0	go	0.0	Go_X	0.0
1315.098	0.7	stop	0.0	Go_X	1.0
1317.623	1.0	go	0.0	Go_X	0.0
1320.147	1.0	go	0.0	Go_O	0.0
1322.671	0.75	stop	0.0	Go_O	1.0
1325.195	1.0	go	0.0	Go_O	0.0
1327.72	0.8	stop	0.0	Go_X	1.0
1330.244	1.0	go	0.0	Go_X	0.0
1332.768	1.0	go	0.0	Go_O	0.0
1335.292	1.0	go	0.448	Go_X	1.0
1337.816	0.85	stop	0.56	Go_O	0.0
1340.341	1.0	go	0.609	Go_O	1.0
1342.865	1.0	go	0.0	Go_X	0.0
1345.389	1.0	go	0.344	Go_X	1.0
1347.913	1.0	go	0.482	Go_O	1.0
1350.438	0.8	stop	0.705	Go_X	0.0
1352.962	1.0	go	0.0	Go_O	0.0
1355.486	1.0	go	0.0	Go_X	0.0
1358.01	0.75	stop	0.0	Go_O	1.0
1360.535	1.0	go	0.5	Go_X	1.0
1363.059	1.0	go	0.343	Go_O	1.0
1365.583	1.0	go	0.984	Go_O	1.0
1368.107	1.0	go	0.769	Go_X	1.0
1370.631	0.8	stop	0.607	Go_X	0.0
1373.156	1.0	go	0.0	Go_O	0.0
1375.68	0.75	stop	0.494	Go_O	0.0
1378.204	1.0	go	0.0	Go_X	0.0
1380.728	1.0	go	0.0	Go_X	0.0
1383.253	0.7	stop	0.506	Go_X	0.0
1385.777	1.0	go	0.0	Go_O	0.0
1388.301	1.0	go	0.0	Go_X	0.0
1390.825	1.0	go	0.0	Go_O	0.0
1393.349	1.0	go	0.0	Go_O	0.0
1395.874	0.65	stop	0.0	Go_O	1.0
1398.398	1.0	go	0.36	Go_X	1.0
1400.922	0.7	stop	0.561	Go_X	0.0
1403.446	1.0	go	0.0	Go_X	0.0
1405.971	1.0	go	0.0	Go_O	0.0
1408.495	1.0	go	0.0	Go_X	0.0
1411.019	1.0	go	0.0	Go_O	0.0
1413.543	1.0	go	0.368	Go_X	1.0
1416.067	1.0	go	0.561	Go_O	1.0
1418.592	0.65	stop	0.0	Go_O	1.0
1421.116	1.0	go	0.0	Go_O	0.0
1423.64	1.0	go	0.0	Go_X	0.0
1426.164	0.7	stop	0.0	Go_X	1.0
1428.689	1.0	go	0.0	Go_X	0.0
1431.213	1.0	go	0.0	Go_O	0.0
1433.737	0.75	stop	0.746	Go_O	0.0
1436.261	1.0	go	0.384	Go_X	1.0
1438.785	1.0	go	0.389	Go_O	1.0
1441.31	1.0	go	0.0	Go_X	0.0
1443.834	1.0	go	0.0	Go_O	0.0
1446.358	0.7	stop	0.0	Go_X	1.0
1448.882	1.0	go	0.487	Go_X	1.0
1451.407	0.75	stop	0.0	Go_O	1.0
1453.931	1.0	go	0.0	Go_O	0.0
1456.455	1.0	go	0.0	Go_X	0.0
1458.979	1.0	go	0.0	Go_O	0.0
1461.503	1.0	go	0.0	Go_X	0.0
1464.028	1.0	go	0.0	Go_O	0.0
1466.552	0.8	stop	0.0	Go_X	1.0
1469.076	1.0	go	0.0	Go_X	0.0
1471.6	1.0	go	0.0	Go_O	0.0
1474.125	0.85	stop	0.0	Go_O	1.0
1476.649	0.9	stop	0.0	Go_X	1.0
1479.173	1.0	go	0.0	Go_X	0.0
1481.697	1.0	go	0.0	Go_O	0.0
1484.222	1.0	go	0.67	Go_X	1.0
1486.746	1.0	go	0.445	Go_O	1.0
1489.27	0.95	stop	0.364	Go_O	0.0
1491.794	1.0	go	0.753	Go_O	1.0
