onset	duration	trial_type	response_time	stim_file	accuracy
69.798	1.0	go	0.684	Go_X	0.0
72.356	1.0	go	0.433	Go_O	1.0
74.88	1.0	go	0.534	Go_O	1.0
77.405	1.0	go	0.448	Go_X	1.0
79.929	1.0	go	0.449	Go_O	1.0
82.453	1.0	go	0.549	Go_X	1.0
84.994	0.25	stop	0.293	Go_O	0.0
87.535	1.0	go	0.575	Go_X	1.0
90.059	0.2	stop	0.0	Go_X	1.0
92.583	1.0	go	0.402	Go_O	1.0
95.107	1.0	go	0.707	Go_X	0.0
97.632	1.0	go	0.369	Go_O	1.0
100.156	0.25	stop	0.0	Go_O	1.0
102.697	1.0	go	0.435	Go_O	1.0
105.221	1.0	go	0.429	Go_X	1.0
107.745	0.3	stop	0.494	Go_X	0.0
110.269	0.25	stop	0.385	Go_O	0.0
112.794	1.0	go	0.488	Go_O	1.0
115.318	1.0	go	0.724	Go_X	1.0
117.842	0.2	stop	0.0	Go_X	1.0
120.366	1.0	go	0.39	Go_X	1.0
122.89	1.0	go	0.0	Go_O	0.0
125.415	0.25	stop	0.387	Go_O	0.0
127.956	1.0	go	0.436	Go_O	1.0
130.48	1.0	go	0.416	Go_X	1.0
133.004	0.2	stop	0.0	Go_X	1.0
135.545	1.0	go	0.449	Go_O	1.0
138.069	1.0	go	0.497	Go_X	1.0
140.593	0.25	stop	0.645	Go_O	0.0
143.118	1.0	go	0.411	Go_X	1.0
145.642	1.0	go	0.492	Go_O	1.0
148.166	1.0	go	0.487	Go_X	1.0
150.69	1.0	go	0.478	Go_O	1.0
153.214	1.0	go	0.26	Go_O	1.0
155.739	0.2	stop	0.0	Go_X	1.0
158.263	1.0	go	0.368	Go_X	1.0
160.787	1.0	go	0.405	Go_O	1.0
163.311	1.0	go	0.479	Go_X	1.0
165.836	1.0	go	0.553	Go_X	1.0
168.36	1.0	go	0.606	Go_O	1.0
170.884	0.25	stop	0.456	Go_O	0.0
173.408	1.0	go	0.337	Go_O	1.0
175.932	1.0	go	0.392	Go_X	1.0
178.457	1.0	go	0.912	Go_O	1.0
180.981	1.0	go	0.465	Go_X	1.0
183.505	1.0	go	0.41	Go_X	1.0
186.029	1.0	go	0.605	Go_O	0.0
188.553	0.2	stop	0.0	Go_X	1.0
191.078	1.0	go	0.638	Go_O	1.0
193.602	1.0	go	0.495	Go_X	1.0
196.126	0.25	stop	0.0	Go_O	1.0
198.65	1.0	go	0.266	Go_O	1.0
201.175	0.3	stop	0.323	Go_X	0.0
203.699	0.25	stop	0.478	Go_O	0.0
206.223	1.0	go	0.579	Go_X	1.0
208.747	1.0	go	0.38	Go_O	1.0
211.271	1.0	go	0.411	Go_X	1.0
213.796	1.0	go	0.559	Go_X	1.0
216.32	0.2	stop	0.335	Go_X	0.0
218.861	1.0	go	0.374	Go_O	1.0
221.385	0.15	stop	0.368	Go_O	0.0
223.926	1.0	go	0.348	Go_O	1.0
226.45	1.0	go	0.407	Go_X	1.0
228.974	1.0	go	0.609	Go_X	1.0
231.499	1.0	go	0.487	Go_O	1.0
234.039	1.0	go	0.47	Go_O	1.0
236.564	1.0	go	0.476	Go_X	1.0
239.088	1.0	go	0.433	Go_X	1.0
241.612	1.0	go	0.471	Go_O	1.0
244.136	1.0	go	0.407	Go_O	1.0
246.661	0.1	stop	0.0	Go_X	1.0
249.201	1.0	go	0.562	Go_X	1.0
251.726	1.0	go	0.518	Go_O	1.0
254.267	1.0	go	0.501	Go_X	1.0
256.791	0.15	stop	0.0	Go_O	1.0
259.332	1.0	go	0.506	Go_X	0.0
261.856	1.0	go	0.541	Go_O	0.0
264.38	1.0	go	0.478	Go_X	1.0
266.904	1.0	go	0.403	Go_O	1.0
269.429	1.0	go	0.595	Go_X	1.0
271.953	1.0	go	0.656	Go_O	1.0
274.477	0.2	stop	0.393	Go_X	0.0
277.001	1.0	go	0.518	Go_O	1.0
279.525	1.0	go	0.362	Go_X	1.0
282.05	0.15	stop	0.0	Go_O	1.0
284.591	1.0	go	0.586	Go_X	1.0
287.115	1.0	go	0.385	Go_O	1.0
289.639	0.2	stop	0.0	Go_X	1.0
292.163	1.0	go	0.572	Go_X	1.0
294.688	0.25	stop	0.0	Go_O	1.0
297.212	1.0	go	0.438	Go_O	1.0
299.736	1.0	go	0.0	Go_X	0.0
302.26	1.0	go	0.54	Go_O	1.0
304.784	1.0	go	0.453	Go_O	1.0
307.309	1.0	go	0.533	Go_X	1.0
309.833	0.3	stop	0.0	Go_X	1.0
312.357	0.35	stop	0.556	Go_O	0.0
314.898	1.0	go	0.901	Go_X	0.0
317.422	1.0	go	0.641	Go_O	1.0
319.946	0.3	stop	0.429	Go_X	0.0
322.471	1.0	go	0.354	Go_O	1.0
324.995	1.0	go	0.456	Go_X	1.0
327.519	1.0	go	0.388	Go_O	1.0
330.043	1.0	go	0.388	Go_X	1.0
332.567	1.0	go	0.498	Go_X	1.0
335.092	1.0	go	0.709	Go_O	1.0
337.616	0.25	stop	0.0	Go_O	1.0
340.14	1.0	go	0.575	Go_O	1.0
342.664	1.0	go	0.461	Go_X	1.0
345.188	1.0	go	0.77	Go_X	0.0
347.713	1.0	go	0.348	Go_O	1.0
350.254	1.0	go	0.489	Go_O	1.0
352.795	0.3	stop	0.475	Go_X	0.0
355.319	1.0	go	0.54	Go_X	1.0
357.86	1.0	go	0.46	Go_X	1.0
360.401	1.0	go	0.389	Go_O	1.0
362.925	1.0	go	0.615	Go_X	0.0
365.449	0.25	stop	0.0	Go_O	1.0
367.973	1.0	go	0.889	Go_O	0.0
370.497	1.0	go	0.478	Go_X	0.0
373.022	0.3	stop	0.0	Go_X	1.0
375.563	1.0	go	0.63	Go_O	1.0
378.104	0.35	stop	0.0	Go_O	1.0
380.645	1.0	go	0.466	Go_X	1.0
383.169	1.0	go	0.652	Go_O	1.0
385.693	1.0	go	0.562	Go_X	1.0
388.217	1.0	go	0.641	Go_O	1.0
390.741	1.0	go	0.635	Go_X	1.0
393.266	1.0	go	0.312	Go_O	1.0
395.807	1.0	go	0.511	Go_O	1.0
398.331	0.4	stop	0.534	Go_X	0.0
400.855	1.0	go	0.533	Go_X	1.0
403.379	1.0	go	0.522	Go_O	1.0
405.903	1.0	go	0.502	Go_X	1.0
408.428	0.35	stop	0.36	Go_O	0.0
410.969	1.0	go	0.331	Go_X	1.0
413.493	1.0	go	0.916	Go_O	1.0
416.017	1.0	go	0.403	Go_X	1.0
418.541	1.0	go	0.555	Go_O	1.0
421.065	0.3	stop	0.0	Go_X	1.0
423.591	1.0	go	0.42	Go_X	1.0
426.114	1.0	go	0.471	Go_O	1.0
428.638	0.35	stop	0.0	Go_O	1.0
431.162	1.0	go	0.342	Go_O	1.0
433.686	1.0	go	0.554	Go_X	1.0
436.211	0.4	stop	0.476	Go_X	0.0
438.735	1.0	go	0.714	Go_X	1.0
441.259	1.0	go	0.444	Go_O	1.0
443.783	0.35	stop	0.453	Go_O	0.0
446.307	1.0	go	0.585	Go_X	1.0
448.832	1.0	go	0.0	Go_O	0.0
451.373	1.0	go	0.577	Go_X	1.0
453.897	1.0	go	0.606	Go_O	1.0
456.421	1.0	go	0.578	Go_X	1.0
458.945	1.0	go	0.642	Go_O	1.0
461.469	0.3	stop	0.0	Go_X	1.0
463.994	1.0	go	0.427	Go_O	0.0
466.518	0.35	stop	0.0	Go_O	1.0
469.059	1.0	go	0.0	Go_X	0.0
471.583	1.0	go	0.425	Go_O	0.0
474.107	1.0	go	0.949	Go_X	0.0
476.631	1.0	go	0.467	Go_X	1.0
479.156	1.0	go	0.901	Go_O	1.0
481.697	0.4	stop	0.39	Go_X	0.0
484.221	1.0	go	0.313	Go_O	1.0
486.745	1.0	go	0.0	Go_X	0.0
489.269	1.0	go	0.589	Go_O	0.0
491.793	0.35	stop	0.0	Go_O	1.0
494.318	0.4	stop	0.395	Go_X	0.0
496.859	0.35	stop	0.0	Go_O	1.0
499.383	1.0	go	0.506	Go_X	1.0
501.907	0.4	stop	0.478	Go_X	0.0
504.431	1.0	go	0.407	Go_O	1.0
506.955	1.0	go	0.717	Go_X	0.0
509.48	1.0	go	0.993	Go_O	1.0
512.021	1.0	go	0.309	Go_X	1.0
514.545	1.0	go	0.629	Go_X	1.0
517.069	1.0	go	0.489	Go_O	1.0
519.593	1.0	go	0.45	Go_O	1.0
522.117	1.0	go	0.691	Go_X	1.0
524.642	0.35	stop	0.406	Go_O	0.0
527.166	1.0	go	0.335	Go_O	1.0
529.69	1.0	go	0.585	Go_X	1.0
532.214	0.3	stop	0.0	Go_X	1.0
534.755	1.0	go	0.353	Go_X	1.0
537.279	1.0	go	0.516	Go_O	1.0
539.804	1.0	go	0.401	Go_O	1.0
542.328	1.0	go	0.613	Go_X	1.0
544.852	1.0	go	0.745	Go_O	1.0
547.376	0.35	stop	0.0	Go_O	1.0
549.901	1.0	go	0.773	Go_X	0.0
552.425	1.0	go	0.75	Go_X	1.0
554.949	1.0	go	0.331	Go_O	1.0
557.473	0.4	stop	0.0	Go_X	1.0
559.997	1.0	go	0.604	Go_O	0.0
562.522	0.45	stop	0.624	Go_O	0.0
565.063	1.0	go	0.565	Go_X	0.0
567.587	1.0	go	0.383	Go_O	1.0
570.111	1.0	go	0.943	Go_X	1.0
572.635	1.0	go	0.56	Go_X	1.0
575.176	1.0	go	0.574	Go_O	1.0
577.7	1.0	go	0.359	Go_X	1.0
580.225	1.0	go	0.644	Go_O	1.0
582.749	0.4	stop	0.464	Go_X	0.0
585.273	1.0	go	0.338	Go_X	1.0
587.797	1.0	go	0.523	Go_O	1.0
590.321	1.0	go	0.876	Go_X	1.0
592.846	1.0	go	0.453	Go_O	1.0
595.37	0.35	stop	0.0	Go_O	1.0
597.894	1.0	go	0.416	Go_O	1.0
600.418	0.4	stop	0.481	Go_X	0.0
602.959	1.0	go	0.387	Go_X	1.0
605.483	1.0	go	0.68	Go_X	1.0
608.008	0.35	stop	0.0	Go_O	1.0
610.532	1.0	go	0.403	Go_O	1.0
613.056	1.0	go	0.964	Go_X	1.0
615.58	1.0	go	0.826	Go_O	1.0
618.104	1.0	go	0.41	Go_O	1.0
620.629	1.0	go	0.54	Go_X	1.0
623.153	1.0	go	0.701	Go_X	1.0
625.677	1.0	go	0.816	Go_O	1.0
628.201	1.0	go	0.474	Go_X	1.0
630.726	1.0	go	0.422	Go_O	1.0
633.25	1.0	go	0.441	Go_O	1.0
635.774	0.4	stop	0.0	Go_X	1.0
638.315	1.0	go	0.508	Go_X	1.0
640.839	1.0	go	0.402	Go_X	1.0
643.363	0.45	stop	0.517	Go_O	0.0
645.888	1.0	go	0.481	Go_O	1.0
648.432	0.4	stop	0.615	Go_X	0.0
650.969	1.0	go	0.372	Go_O	1.0
653.494	1.0	go	0.352	Go_X	1.0
656.018	0.35	stop	0.532	Go_O	0.0
658.559	1.0	go	0.371	Go_X	1.0
661.083	0.3	stop	0.524	Go_X	0.0
663.624	1.0	go	0.521	Go_O	1.0
666.148	1.0	go	0.533	Go_O	1.0
668.672	1.0	go	0.488	Go_X	1.0
671.197	0.25	stop	0.0	Go_O	1.0
673.737	1.0	go	0.653	Go_O	1.0
676.262	1.0	go	0.425	Go_X	1.0
678.786	1.0	go	0.5	Go_O	1.0
681.31	1.0	go	0.492	Go_X	1.0
683.834	0.3	stop	0.589	Go_X	0.0
686.359	1.0	go	0.335	Go_O	1.0
688.883	1.0	go	0.71	Go_X	1.0
691.407	0.25	stop	0.0	Go_O	1.0
693.931	1.0	go	0.859	Go_O	0.0
696.455	1.0	go	0.423	Go_X	0.0
698.98	1.0	go	0.657	Go_O	1.0
701.504	1.0	go	0.361	Go_X	1.0
704.028	0.3	stop	0.0	Go_X	1.0
706.569	1.0	go	0.606	Go_X	1.0
709.11	0.35	stop	0.498	Go_O	0.0
711.634	1.0	go	0.646	Go_O	0.0
714.158	1.0	go	0.447	Go_O	0.0
716.683	0.3	stop	0.0	Go_X	1.0
719.207	1.0	go	0.93	Go_X	1.0
721.731	1.0	go	0.507	Go_X	1.0
724.255	1.0	go	0.578	Go_O	0.0
726.779	1.0	go	0.345	Go_O	1.0
729.304	0.35	stop	0.356	Go_O	0.0
731.828	1.0	go	0.309	Go_X	1.0
734.355	0.3	stop	0.41	Go_X	0.0
736.893	1.0	go	0.342	Go_O	1.0
739.417	1.0	go	0.909	Go_X	1.0
741.958	1.0	go	0.864	Go_O	1.0
744.499	1.0	go	0.976	Go_X	1.0
747.04	1.0	go	0.442	Go_O	1.0
749.564	1.0	go	0.522	Go_X	1.0
752.088	0.25	stop	0.0	Go_O	1.0
754.613	1.0	go	0.543	Go_O	0.0
757.137	1.0	go	0.0	Go_X	0.0
759.661	0.3	stop	0.374	Go_X	0.0
762.185	1.0	go	0.592	Go_X	1.0
764.709	1.0	go	0.474	Go_O	1.0
767.234	0.25	stop	0.0	Go_O	1.0
769.758	1.0	go	0.565	Go_X	1.0
772.282	1.0	go	0.529	Go_O	1.0
774.823	1.0	go	0.54	Go_X	1.0
777.347	1.0	go	0.58	Go_O	1.0
779.871	0.3	stop	0.481	Go_X	0.0
782.396	1.0	go	0.545	Go_X	0.0
784.92	0.25	stop	0.0	Go_O	1.0
787.461	1.0	go	0.0	Go_O	0.0
789.985	1.0	go	0.612	Go_X	1.0
792.509	1.0	go	0.433	Go_O	0.0
795.033	1.0	go	0.398	Go_X	1.0
797.558	1.0	go	0.351	Go_O	1.0
800.099	0.3	stop	0.0	Go_X	1.0
802.623	1.0	go	0.678	Go_X	0.0
805.147	1.0	go	0.805	Go_O	0.0
807.671	0.35	stop	0.52	Go_O	0.0
810.195	0.3	stop	0.0	Go_X	1.0
812.72	1.0	go	0.801	Go_X	1.0
815.244	1.0	go	0.562	Go_O	1.0
817.768	1.0	go	0.671	Go_X	1.0
820.292	1.0	go	0.472	Go_O	1.0
822.817	0.35	stop	0.452	Go_O	0.0
825.341	1.0	go	0.762	Go_O	1.0
