onset	duration	trial_type	response_time	stim_file	accuracy
68.704	1.0	go	0.853	Go_X	0.0
71.237	1.0	go	0.368	Go_O	0.0
73.77	1.0	go	0.663	Go_O	0.0
76.303	1.0	go	0.514	Go_X	0.0
78.837	1.0	go	0.522	Go_O	0.0
81.37	1.0	go	0.299	Go_X	0.0
83.903	0.25	stop	0.222	Go_O	0.0
86.436	1.0	go	0.644	Go_O	1.0
88.97	0.2	stop	0.408	Go_X	0.0
91.503	1.0	go	0.519	Go_X	0.0
94.036	1.0	go	0.505	Go_O	0.0
96.569	1.0	go	0.323	Go_X	0.0
99.103	0.15	stop	0.369	Go_O	0.0
101.636	1.0	go	0.734	Go_O	0.0
104.169	1.0	go	0.507	Go_X	0.0
106.702	0.1	stop	0.0	Go_X	1.0
109.236	0.15	stop	0.0	Go_O	1.0
111.769	1.0	go	0.479	Go_X	0.0
114.302	1.0	go	0.695	Go_O	0.0
116.835	0.2	stop	0.313	Go_X	0.0
119.369	1.0	go	0.587	Go_X	0.0
121.902	1.0	go	0.756	Go_O	0.0
124.435	0.15	stop	0.0	Go_O	1.0
126.968	1.0	go	0.411	Go_X	0.0
129.502	1.0	go	0.316	Go_O	0.0
132.035	0.2	stop	0.413	Go_X	0.0
134.568	1.0	go	0.519	Go_O	0.0
137.102	1.0	go	0.465	Go_X	0.0
139.651	0.15	stop	0.0	Go_O	1.0
142.185	1.0	go	0.529	Go_O	0.0
144.718	1.0	go	0.562	Go_X	0.0
147.251	1.0	go	0.354	Go_O	0.0
149.784	1.0	go	0.379	Go_X	0.0
152.318	1.0	go	0.46	Go_X	0.0
154.851	0.2	stop	0.0	Go_X	1.0
157.384	1.0	go	0.78	Go_O	0.0
159.917	1.0	go	0.43	Go_X	0.0
162.451	1.0	go	0.339	Go_O	0.0
164.984	1.0	go	0.657	Go_X	0.0
167.517	1.0	go	0.609	Go_O	0.0
170.05	0.25	stop	0.0	Go_O	1.0
172.584	1.0	go	0.461	Go_O	0.0
175.117	1.0	go	0.518	Go_X	0.0
177.65	1.0	go	0.421	Go_O	0.0
180.183	1.0	go	0.632	Go_X	0.0
182.717	1.0	go	0.494	Go_X	0.0
185.25	1.0	go	0.381	Go_O	0.0
187.783	0.3	stop	0.0	Go_X	1.0
190.316	1.0	go	0.537	Go_X	0.0
192.85	1.0	go	0.518	Go_O	0.0
195.383	0.35	stop	0.0	Go_O	1.0
197.916	1.0	go	0.598	Go_O	0.0
200.449	0.4	stop	0.631	Go_X	0.0
202.983	0.35	stop	0.0	Go_O	1.0
205.516	1.0	go	0.501	Go_X	0.0
208.049	1.0	go	0.559	Go_O	0.0
210.583	1.0	go	0.441	Go_X	0.0
213.132	1.0	go	0.369	Go_O	0.0
215.666	0.4	stop	0.0	Go_X	1.0
218.199	1.0	go	0.457	Go_X	0.0
220.732	0.45	stop	0.536	Go_O	0.0
223.265	1.0	go	0.0	Go_X	0.0
225.799	1.0	go	0.606	Go_O	0.0
228.332	1.0	go	0.54	Go_X	0.0
230.865	1.0	go	0.474	Go_O	0.0
233.398	1.0	go	0.388	Go_X	0.0
235.932	1.0	go	0.554	Go_O	0.0
238.465	1.0	go	0.661	Go_O	0.0
240.998	1.0	go	0.739	Go_X	0.0
243.531	1.0	go	0.522	Go_O	0.0
246.065	0.4	stop	0.401	Go_X	0.0
248.598	1.0	go	0.92	Go_X	0.0
251.131	1.0	go	0.624	Go_X	0.0
253.664	1.0	go	0.631	Go_O	0.0
256.198	0.35	stop	0.0	Go_O	1.0
258.731	1.0	go	0.548	Go_O	0.0
261.264	1.0	go	0.57	Go_X	0.0
263.797	1.0	go	0.454	Go_O	0.0
266.331	1.0	go	0.53	Go_X	0.0
268.864	1.0	go	0.898	Go_X	0.0
271.397	1.0	go	0.514	Go_O	0.0
273.93	0.4	stop	0.389	Go_X	0.0
276.464	1.0	go	0.665	Go_X	0.0
278.997	1.0	go	0.571	Go_O	0.0
281.53	0.35	stop	0.0	Go_O	1.0
284.063	1.0	go	0.404	Go_X	0.0
286.597	1.0	go	0.566	Go_O	0.0
289.13	0.4	stop	0.0	Go_X	1.0
291.663	1.0	go	0.647	Go_X	0.0
294.197	0.45	stop	0.0	Go_O	1.0
296.746	1.0	go	0.594	Go_O	0.0
299.28	1.0	go	0.663	Go_O	0.0
301.813	1.0	go	0.804	Go_X	0.0
304.346	1.0	go	0.0	Go_O	0.0
306.879	1.0	go	0.77	Go_X	0.0
309.413	0.5	stop	0.606	Go_X	0.0
311.946	0.45	stop	0.568	Go_O	0.0
314.479	1.0	go	0.548	Go_X	0.0
317.012	1.0	go	0.766	Go_O	0.0
319.546	0.4	stop	0.0	Go_X	1.0
322.079	1.0	go	0.888	Go_X	0.0
324.612	1.0	go	0.702	Go_O	0.0
327.145	1.0	go	0.519	Go_X	0.0
329.679	1.0	go	0.629	Go_O	0.0
332.212	1.0	go	0.695	Go_O	0.0
334.745	1.0	go	0.815	Go_X	0.0
337.278	0.45	stop	0.0	Go_O	1.0
339.812	1.0	go	0.74	Go_O	0.0
342.345	1.0	go	0.561	Go_X	0.0
344.878	1.0	go	0.59	Go_X	0.0
347.411	1.0	go	0.751	Go_O	0.0
349.945	1.0	go	0.532	Go_X	0.0
352.478	0.5	stop	0.0	Go_X	1.0
355.011	1.0	go	0.603	Go_O	0.0
357.544	1.0	go	0.343	Go_X	0.0
360.078	1.0	go	0.905	Go_O	0.0
362.611	1.0	go	0.585	Go_O	0.0
365.144	0.55	stop	0.0	Go_O	1.0
367.677	1.0	go	0.537	Go_X	0.0
370.211	1.0	go	0.79	Go_O	0.0
372.744	0.6	stop	0.0	Go_X	1.0
375.277	1.0	go	0.655	Go_X	0.0
377.811	0.65	stop	0.693	Go_O	0.0
380.36	1.0	go	0.531	Go_X	0.0
382.894	1.0	go	0.936	Go_O	0.0
385.427	1.0	go	0.886	Go_O	0.0
387.96	1.0	go	0.0	Go_X	0.0
390.493	1.0	go	0.48	Go_X	0.0
393.027	1.0	go	0.794	Go_O	0.0
395.56	1.0	go	0.823	Go_O	0.0
398.093	0.6	stop	0.805	Go_X	0.0
400.626	1.0	go	0.614	Go_X	0.0
403.16	1.0	go	0.852	Go_O	0.0
405.693	1.0	go	0.966	Go_X	0.0
408.226	0.55	stop	0.0	Go_O	1.0
410.759	1.0	go	0.814	Go_X	0.0
413.293	1.0	go	0.87	Go_O	0.0
415.826	1.0	go	0.84	Go_X	0.0
418.359	1.0	go	0.991	Go_O	0.0
420.892	0.6	stop	0.603	Go_X	0.0
423.426	1.0	go	0.543	Go_O	0.0
425.959	1.0	go	0.691	Go_X	0.0
428.492	0.55	stop	0.0	Go_O	1.0
431.025	1.0	go	0.576	Go_X	0.0
433.559	1.0	go	0.532	Go_O	0.0
436.092	0.6	stop	0.639	Go_X	0.0
438.625	1.0	go	0.659	Go_X	0.0
441.158	1.0	go	0.606	Go_O	0.0
443.692	0.55	stop	0.604	Go_O	0.0
446.225	1.0	go	0.567	Go_X	0.0
448.758	1.0	go	0.731	Go_O	0.0
451.292	1.0	go	0.577	Go_X	0.0
453.841	1.0	go	0.799	Go_O	0.0
456.375	1.0	go	0.757	Go_O	0.0
458.908	1.0	go	0.685	Go_X	0.0
461.441	0.5	stop	0.491	Go_X	0.0
463.974	1.0	go	0.887	Go_X	0.0
466.508	0.45	stop	0.0	Go_O	1.0
469.041	1.0	go	0.897	Go_O	0.0
471.574	1.0	go	0.414	Go_O	0.0
474.107	1.0	go	0.807	Go_X	0.0
476.641	1.0	go	0.982	Go_X	0.0
479.174	1.0	go	0.685	Go_O	0.0
481.707	0.5	stop	0.471	Go_X	0.0
484.24	1.0	go	0.492	Go_O	0.0
486.774	1.0	go	0.548	Go_X	0.0
489.307	1.0	go	0.726	Go_O	0.0
491.84	0.45	stop	0.0	Go_O	1.0
494.373	0.5	stop	0.695	Go_X	0.0
496.907	0.45	stop	0.0	Go_O	1.0
499.44	1.0	go	0.842	Go_X	0.0
501.973	0.5	stop	0.0	Go_X	1.0
504.506	1.0	go	0.704	Go_O	0.0
507.04	1.0	go	0.0	Go_X	0.0
509.573	1.0	go	0.859	Go_O	0.0
512.106	1.0	go	0.472	Go_X	0.0
514.639	1.0	go	0.71	Go_O	0.0
517.173	1.0	go	0.487	Go_X	0.0
519.706	1.0	go	0.819	Go_O	0.0
522.239	1.0	go	0.0	Go_X	0.0
524.773	0.55	stop	0.0	Go_O	1.0
527.322	1.0	go	0.442	Go_X	0.0
529.856	1.0	go	0.437	Go_O	0.0
532.389	0.6	stop	0.769	Go_X	0.0
534.922	1.0	go	0.897	Go_X	0.0
537.455	1.0	go	0.905	Go_O	0.0
539.989	1.0	go	0.705	Go_O	0.0
542.522	1.0	go	0.758	Go_X	0.0
545.055	1.0	go	0.41	Go_X	1.0
547.588	0.55	stop	0.0	Go_O	1.0
550.122	1.0	go	0.754	Go_O	0.0
552.655	1.0	go	0.0	Go_O	0.0
555.188	1.0	go	0.0	Go_X	0.0
557.721	0.6	stop	0.551	Go_X	0.0
560.255	1.0	go	0.89	Go_O	0.0
562.788	0.55	stop	0.0	Go_O	1.0
565.321	1.0	go	0.779	Go_X	0.0
567.854	1.0	go	0.826	Go_X	0.0
570.388	1.0	go	0.854	Go_O	0.0
572.921	1.0	go	0.0	Go_O	0.0
575.454	1.0	go	0.992	Go_X	0.0
577.987	1.0	go	0.776	Go_O	0.0
580.521	1.0	go	0.588	Go_X	0.0
583.054	0.6	stop	0.0	Go_X	1.0
585.587	1.0	go	0.693	Go_O	0.0
588.12	1.0	go	0.468	Go_X	0.0
590.654	1.0	go	0.869	Go_X	0.0
593.187	1.0	go	0.0	Go_O	0.0
595.72	0.65	stop	0.833	Go_O	0.0
598.253	1.0	go	0.946	Go_O	0.0
600.787	0.6	stop	0.0	Go_X	1.0
603.32	1.0	go	0.757	Go_X	0.0
605.853	1.0	go	0.46	Go_X	0.0
608.387	0.65	stop	0.848	Go_O	0.0
610.936	1.0	go	0.0	Go_O	0.0
613.47	1.0	go	0.901	Go_X	0.0
616.003	1.0	go	0.771	Go_O	0.0
618.536	1.0	go	0.775	Go_X	0.0
621.069	1.0	go	0.484	Go_O	0.0
623.603	1.0	go	0.574	Go_X	0.0
626.136	1.0	go	0.78	Go_O	0.0
628.669	1.0	go	0.0	Go_O	0.0
631.202	1.0	go	0.913	Go_X	0.0
633.736	1.0	go	0.84	Go_X	0.0
636.269	0.6	stop	0.0	Go_X	1.0
638.802	1.0	go	0.489	Go_O	0.0
641.335	1.0	go	0.91	Go_X	0.0
643.869	0.65	stop	0.455	Go_O	0.0
646.402	1.0	go	0.811	Go_O	0.0
648.935	0.6	stop	0.0	Go_X	1.0
651.468	1.0	go	0.971	Go_X	0.0
654.002	1.0	go	0.647	Go_O	0.0
656.535	0.65	stop	0.52	Go_O	0.0
659.068	1.0	go	0.481	Go_O	0.0
661.601	0.6	stop	0.751	Go_X	0.0
664.135	1.0	go	0.423	Go_X	0.0
666.668	1.0	go	0.85	Go_O	0.0
669.201	1.0	go	0.627	Go_X	0.0
671.734	0.55	stop	0.0	Go_O	1.0
674.268	1.0	go	0.447	Go_X	0.0
676.801	1.0	go	0.0	Go_O	0.0
679.334	1.0	go	0.385	Go_O	0.0
681.868	1.0	go	0.554	Go_X	0.0
684.417	0.6	stop	0.691	Go_X	0.0
686.951	1.0	go	0.959	Go_X	0.0
689.484	1.0	go	0.0	Go_O	0.0
692.017	0.55	stop	0.635	Go_O	0.0
694.55	1.0	go	0.471	Go_O	0.0
697.084	1.0	go	0.587	Go_X	0.0
699.617	1.0	go	0.672	Go_O	0.0
702.15	1.0	go	0.567	Go_X	0.0
704.683	0.5	stop	0.0	Go_X	1.0
707.217	1.0	go	0.718	Go_X	0.0
709.75	0.55	stop	0.731	Go_O	0.0
712.283	1.0	go	0.445	Go_O	0.0
714.816	1.0	go	0.825	Go_O	0.0
717.35	0.5	stop	0.469	Go_X	0.0
719.883	1.0	go	0.688	Go_X	0.0
722.416	1.0	go	0.463	Go_X	0.0
724.949	1.0	go	0.852	Go_O	0.0
727.483	1.0	go	0.586	Go_X	0.0
730.016	0.45	stop	0.66	Go_O	0.0
732.549	1.0	go	0.723	Go_O	1.0
735.082	0.4	stop	0.468	Go_X	0.0
737.616	1.0	go	0.454	Go_O	0.0
740.149	1.0	go	0.619	Go_X	0.0
742.682	1.0	go	0.898	Go_O	0.0
745.215	1.0	go	0.799	Go_X	0.0
747.749	1.0	go	0.802	Go_O	0.0
750.282	1.0	go	0.0	Go_X	0.0
752.815	0.35	stop	0.45	Go_O	0.0
755.349	1.0	go	0.748	Go_X	0.0
757.898	1.0	go	0.75	Go_O	0.0
760.432	0.3	stop	0.0	Go_X	1.0
762.965	1.0	go	0.471	Go_O	0.0
765.498	1.0	go	0.687	Go_X	0.0
768.031	0.35	stop	0.0	Go_O	1.0
770.565	1.0	go	0.812	Go_X	0.0
773.098	1.0	go	0.921	Go_O	0.0
775.631	1.0	go	0.938	Go_X	0.0
778.164	1.0	go	0.868	Go_O	0.0
780.698	0.4	stop	0.0	Go_X	1.0
783.231	1.0	go	0.935	Go_X	0.0
785.764	0.45	stop	0.0	Go_O	1.0
788.297	1.0	go	0.713	Go_O	0.0
790.831	1.0	go	0.716	Go_O	0.0
793.364	1.0	go	0.643	Go_X	0.0
795.897	1.0	go	0.746	Go_X	0.0
798.43	1.0	go	0.747	Go_O	0.0
800.964	0.5	stop	0.0	Go_X	1.0
803.497	1.0	go	0.512	Go_O	0.0
806.03	1.0	go	0.931	Go_X	0.0
808.563	0.55	stop	0.0	Go_O	1.0
811.097	0.6	stop	0.547	Go_X	0.0
813.63	1.0	go	0.854	Go_O	0.0
816.163	1.0	go	0.678	Go_X	0.0
818.696	1.0	go	0.695	Go_O	0.0
821.23	1.0	go	0.637	Go_X	0.0
823.763	0.55	stop	0.706	Go_O	0.0
826.296	1.0	go	0.85	Go_X	0.0
