frame	onset	duration	trial_type	event_type	response_type	response_time	stim_file	accuracy
0	81.722		control-reward	ImageDisplay1		0.0		
0	83.705	0.75	control-reward	StartDisplay				
0	84.455		control-reward	ImageDisplay2		0.0		
0	87.705	1.6	control-reward	ChoiceDisplay	1	1.051	1	1
0	88.772	0.549	control-reward	ChosenDisplay		0.0		
0	89.305	0.25	control-reward	TurnDisplay				
0	89.555	0.75	control-reward	OutcomeDisplay				
1	90.305		control-reward	ImageDisplay1		0.0		
1	92.305	0.75	control-reward	StartDisplay				
1	93.055		control-reward	ImageDisplay2		0.0		
1	96.305	1.6	control-reward	ChoiceDisplay	1	0.635	1	1
1	96.955	0.965	control-reward	ChosenDisplay		0.0		
1	97.905	0.25	control-reward	TurnDisplay				
1	98.155	0.75	control-reward	OutcomeDisplay				
2	98.905		loss-noreward	ImageDisplay1		0.0		
2	100.904	0.75	loss-noreward	StartDisplay				
2	101.654		loss-noreward	ImageDisplay2		0.0		
2	104.904	1.6	loss-noreward	ChoiceDisplay	1	0.786	1	1
2	105.704	0.814	loss-noreward	ChosenDisplay		0.0		
2	106.504	0.25	loss-noreward	TurnDisplay				
2	106.754	0.75	loss-noreward	OutcomeDisplay				
3	107.504		win-noreward	ImageDisplay1		0.0		
3	109.754	0.75	win-noreward	StartDisplay				
3	110.504		win-noreward	ImageDisplay2		0.0		
3	113.504	1.6	win-noreward	ChoiceDisplay	1	0.909	1	1
3	114.437	0.691	win-noreward	ChosenDisplay		0.0		
3	115.104	0.25	win-noreward	TurnDisplay				
3	115.354	0.75	win-noreward	OutcomeDisplay				
4	116.104		loss-noreward	ImageDisplay1		0.0		
4	118.354	0.75	loss-noreward	StartDisplay				
4	119.104		loss-noreward	ImageDisplay2		0.0		
4	122.104	1.6	loss-noreward	ChoiceDisplay	1	1.51	1	1
4	123.62	0.0	loss-noreward	ChosenDisplay		0.0		
4	123.72	0.25	loss-noreward	TurnDisplay				
4	123.87	0.75	loss-noreward	OutcomeDisplay				
5	124.62		control-reward	ImageDisplay1		0.0		
5	126.87	0.75	control-reward	StartDisplay				
5	127.62		control-reward	ImageDisplay2		0.0		
5	130.62	1.6	control-reward	ChoiceDisplay	1	0.786	1	1
5	131.42	0.814	control-reward	ChosenDisplay		0.0		
5	132.22	0.25	control-reward	TurnDisplay				
5	132.47	0.75	control-reward	OutcomeDisplay				
6	133.22		control-reward	ImageDisplay1		0.0		
6	135.47	0.75	control-reward	StartDisplay				
6	136.22		control-reward	ImageDisplay2		0.0		
6	139.22	1.6	control-reward	ChoiceDisplay	1	0.397	1	1
6	139.637	1.203	control-reward	ChosenDisplay		0.0		
6	140.82	0.25	control-reward	TurnDisplay				
6	141.07	0.75	control-reward	OutcomeDisplay				
7	141.82		control-reward	ImageDisplay1		0.0		
7	144.07	0.75	control-reward	StartDisplay				
7	144.82		control-reward	ImageDisplay2		0.0		
7	147.82	1.6	control-reward	ChoiceDisplay	1	0.537	1	1
7	148.37	1.063	control-reward	ChosenDisplay		0.0		
7	149.42	0.25	control-reward	TurnDisplay				
7	149.67	0.75	control-reward	OutcomeDisplay				
8	150.42		loss-noreward	ImageDisplay1		0.0		
8	152.669	0.75	loss-noreward	StartDisplay				
8	153.419		loss-noreward	ImageDisplay2		0.0		
8	156.419	1.6	loss-noreward	ChoiceDisplay	1	0.484	1	1
8	156.919	1.116	loss-noreward	ChosenDisplay		0.0		
8	158.019	0.25	loss-noreward	TurnDisplay				
8	158.269	0.75	loss-noreward	OutcomeDisplay				
9	159.019		loss-noreward	ImageDisplay1		0.0		
9	161.019	0.75	loss-noreward	StartDisplay				
9	161.769		loss-noreward	ImageDisplay2		0.0		
9	165.019	1.6	loss-noreward	ChoiceDisplay	1	0.702	1	1
9	165.736	0.898	loss-noreward	ChosenDisplay		0.0		
9	166.619	0.25	loss-noreward	TurnDisplay				
9	166.869	0.75	loss-noreward	OutcomeDisplay				
10	167.619		win-reward	ImageDisplay1		0.0		
10	169.619	0.75	win-reward	StartDisplay				
10	170.369		win-reward	ImageDisplay2		0.0		
10	173.619	1.6	win-reward	ChoiceDisplay	1	0.772	1	1
10	174.419	0.828	win-reward	ChosenDisplay		0.0		
10	175.219	0.25	win-reward	TurnDisplay				
10	175.469	0.75	win-reward	OutcomeDisplay				
11	176.219		loss-reward	ImageDisplay1		0.0		
11	178.219	0.75	loss-reward	StartDisplay				
11	178.969		loss-reward	ImageDisplay2		0.0		
11	182.219	1.6	loss-reward	ChoiceDisplay	1	0.48	1	1
11	182.719	1.12	loss-reward	ChosenDisplay		0.0		
11	183.819	0.25	loss-reward	TurnDisplay				
11	184.068	0.75	loss-reward	OutcomeDisplay				
12	184.818		win-noreward	ImageDisplay1		0.0		
12	187.068	0.75	win-noreward	StartDisplay				
12	187.818		win-noreward	ImageDisplay2		0.0		
12	190.818	1.6	win-noreward	ChoiceDisplay	1	0.423	1	1
12	191.268	1.177	win-noreward	ChosenDisplay		0.0		
12	192.418	0.25	win-noreward	TurnDisplay				
12	192.668	0.75	win-noreward	OutcomeDisplay				
13	193.418		control-noreward	ImageDisplay1		0.0		
13	195.418	0.75	control-noreward	StartDisplay				
13	196.168		control-noreward	ImageDisplay2		0.0		
13	199.418	1.6	control-noreward	ChoiceDisplay	1	0.794	1	1
13	200.235	0.806	control-noreward	ChosenDisplay		0.0		
13	201.018	0.25	control-noreward	TurnDisplay				
13	201.268	0.75	control-noreward	OutcomeDisplay				
14	202.018		win-reward	ImageDisplay1		0.0		
14	204.268	0.75	win-reward	StartDisplay				
14	205.018		win-reward	ImageDisplay2		0.0		
14	208.018	1.6	win-reward	ChoiceDisplay	1	0.583	1	1
14	208.618	1.017	win-reward	ChosenDisplay		0.0		
14	209.618	0.25	win-reward	TurnDisplay				
14	209.868	0.75	win-reward	OutcomeDisplay				
15	210.618		control-noreward	ImageDisplay1		0.0		
15	212.618	0.75	control-noreward	StartDisplay				
15	213.368		control-noreward	ImageDisplay2		0.0		
15	216.617	1.6	control-noreward	ChoiceDisplay	1	0.525	1	1
15	217.167	1.075	control-noreward	ChosenDisplay		0.0		
15	218.217	0.25	control-noreward	TurnDisplay				
15	218.467	0.75	control-noreward	OutcomeDisplay				
16	219.217		control-reward	ImageDisplay1		0.0		
16	221.217	0.75	control-reward	StartDisplay				
16	221.967		control-reward	ImageDisplay2		0.0		
16	225.217	1.6	control-reward	ChoiceDisplay	1	0.862	1	1
16	226.1	0.738	control-reward	ChosenDisplay		0.0		
16	226.817	0.25	control-reward	TurnDisplay				
16	227.067	0.75	control-reward	OutcomeDisplay				
17	227.817		loss-noreward	ImageDisplay1		0.0		
17	230.067	0.75	loss-noreward	StartDisplay				
17	230.817		loss-noreward	ImageDisplay2		0.0		
17	233.817	1.6	loss-noreward	ChoiceDisplay	1	0.765	1	1
17	234.6	0.835	loss-noreward	ChosenDisplay		0.0		
17	235.417	0.25	loss-noreward	TurnDisplay				
17	235.667	0.75	loss-noreward	OutcomeDisplay				
18	236.417		control-noreward	ImageDisplay1		0.0		
18	238.667	0.75	control-noreward	StartDisplay				
18	239.417		control-noreward	ImageDisplay2		0.0		
18	242.417	1.6	control-noreward	ChoiceDisplay	1	0.813	1	1
18	243.25	0.787	control-noreward	ChosenDisplay		0.0		
18	244.017	0.25	control-noreward	TurnDisplay				
18	244.267	0.75	control-noreward	OutcomeDisplay				
19	245.017		control-reward	ImageDisplay1		0.0		
19	247.016	0.75	control-reward	StartDisplay				
19	247.766		control-reward	ImageDisplay2		0.0		
19	251.016	1.6	control-reward	ChoiceDisplay	1	0.787	1	1
19	251.816	0.813	control-reward	ChosenDisplay		0.0		
19	252.616	0.25	control-reward	TurnDisplay				
19	252.866	0.75	control-reward	OutcomeDisplay				
20	253.616		control-noreward	ImageDisplay1		0.0		
20	255.866	0.75	control-noreward	StartDisplay				
20	256.616		control-noreward	ImageDisplay2		0.0		
20	259.616	1.6	control-noreward	ChoiceDisplay	1	0.567	1	1
20	260.199	1.033	control-noreward	ChosenDisplay		0.0		
20	261.216	0.25	control-noreward	TurnDisplay				
20	261.466	0.75	control-noreward	OutcomeDisplay				
21	262.216		control-noreward	ImageDisplay1		0.0		
21	264.216	0.75	control-noreward	StartDisplay				
21	264.966		control-noreward	ImageDisplay2		0.0		
21	268.216	1.6	control-noreward	ChoiceDisplay	1	0.719	1	1
21	268.949	0.881	control-noreward	ChosenDisplay		0.0		
21	269.816	0.25	control-noreward	TurnDisplay				
21	270.066	0.75	control-noreward	OutcomeDisplay				
22	270.816		control-noreward	ImageDisplay1		0.0		
22	273.066	0.75	control-noreward	StartDisplay				
22	273.816		control-noreward	ImageDisplay2		0.0		
22	276.816	1.6	control-noreward	ChoiceDisplay	1	0.785	1	1
22	277.616	0.815	control-noreward	ChosenDisplay		0.0		
22	278.415	0.25	control-noreward	TurnDisplay				
22	278.665	0.75	control-noreward	OutcomeDisplay				
23	279.415		loss-reward	ImageDisplay1		0.0		
23	281.415	0.75	loss-reward	StartDisplay				
23	282.165		loss-reward	ImageDisplay2		0.0		
23	285.415	1.6	loss-reward	ChoiceDisplay	1	0.575	1	1
23	286.015	1.025	loss-reward	ChosenDisplay		0.0		
23	287.015	0.25	loss-reward	TurnDisplay				
23	287.265	0.75	loss-reward	OutcomeDisplay				
24	288.015		win-reward	ImageDisplay1		0.0		
24	290.015	0.75	win-reward	StartDisplay				
24	290.765		win-reward	ImageDisplay2		0.0		
24	294.015	1.6	win-reward	ChoiceDisplay	1	0.911	1	1
24	294.948	0.689	win-reward	ChosenDisplay		0.0		
24	295.615	0.25	win-reward	TurnDisplay				
24	295.865	0.75	win-reward	OutcomeDisplay				
25	296.615		loss-noreward	ImageDisplay1		0.0		
25	298.615	0.75	loss-noreward	StartDisplay				
25	299.365		loss-noreward	ImageDisplay2		0.0		
25	302.615	1.6	loss-noreward	ChoiceDisplay	1	0.661	1	1
25	303.298	0.939	loss-noreward	ChosenDisplay		0.0		
25	304.215	0.25	loss-noreward	TurnDisplay				
25	304.465	0.75	loss-noreward	OutcomeDisplay				
26	305.215		win-noreward	ImageDisplay1		0.0		
26	307.215	0.75	win-noreward	StartDisplay				
26	307.965		win-noreward	ImageDisplay2		0.0		
26	311.214	1.6	win-noreward	ChoiceDisplay	1	0.698	1	1
26	311.931	0.902	win-noreward	ChosenDisplay		0.0		
26	312.814	0.25	win-noreward	TurnDisplay				
26	313.064	0.75	win-noreward	OutcomeDisplay				
27	313.814		control-reward	ImageDisplay1		0.0		
27	315.814	0.75	control-reward	StartDisplay				
27	316.564		control-reward	ImageDisplay2		0.0		
27	319.814	1.6	control-reward	ChoiceDisplay	1	0.568	1	1
27	320.397	1.032	control-reward	ChosenDisplay		0.0		
27	321.414	0.25	control-reward	TurnDisplay				
27	321.664	0.75	control-reward	OutcomeDisplay				
28	322.414		win-reward	ImageDisplay1		0.0		
28	324.414	0.75	win-reward	StartDisplay				
28	325.164		win-reward	ImageDisplay2		0.0		
28	328.414	1.6	win-reward	ChoiceDisplay	1	0.785	1	1
28	329.214	0.815	win-reward	ChosenDisplay		0.0		
28	330.014	0.25	win-reward	TurnDisplay				
28	330.264	0.75	win-reward	OutcomeDisplay				
29	331.014		loss-reward	ImageDisplay1		0.0		
29	333.014	0.75	loss-reward	StartDisplay				
29	333.764		loss-reward	ImageDisplay2		0.0		
29	337.014	1.6	loss-reward	ChoiceDisplay	1	0.638	1	1
29	337.664	0.962	loss-reward	ChosenDisplay		0.0		
29	338.614	0.25	loss-reward	TurnDisplay				
29	338.864	0.75	loss-reward	OutcomeDisplay				
30	339.614		win-reward	ImageDisplay1		0.0		
30	341.863	0.75	win-reward	StartDisplay				
30	342.613		win-reward	ImageDisplay2		0.0		
30	345.613	1.6	win-reward	ChoiceDisplay	1	0.491	1	1
30	346.13	1.109	win-reward	ChosenDisplay		0.0		
30	347.213	0.25	win-reward	TurnDisplay				
30	347.463	0.75	win-reward	OutcomeDisplay				
31	348.213		win-noreward	ImageDisplay1		0.0		
31	350.213	0.75	win-noreward	StartDisplay				
31	350.963		win-noreward	ImageDisplay2		0.0		
31	354.213	1.6	win-noreward	ChoiceDisplay	1	0.667	1	1
31	354.896	0.933	win-noreward	ChosenDisplay		0.0		
31	355.813	0.25	win-noreward	TurnDisplay				
31	356.063	0.75	win-noreward	OutcomeDisplay				
32	356.813		loss-reward	ImageDisplay1		0.0		
32	358.813	0.75	loss-reward	StartDisplay				
32	359.563		loss-reward	ImageDisplay2		0.0		
32	362.813	1.6	loss-reward	ChoiceDisplay	1	0.539	1	1
32	363.379	1.061	loss-reward	ChosenDisplay		0.0		
32	364.413	0.25	loss-reward	TurnDisplay				
32	364.663	0.75	loss-reward	OutcomeDisplay				
33	365.413		control-reward	ImageDisplay1		0.0		
33	367.413	0.75	control-reward	StartDisplay				
33	368.163		control-reward	ImageDisplay2		0.0		
33	371.413	1.6	control-reward	ChoiceDisplay	1	0.68	1	1
33	372.113	0.92	control-reward	ChosenDisplay		0.0		
33	373.012	0.25	control-reward	TurnDisplay				
33	373.262	0.75	control-reward	OutcomeDisplay				
34	374.012		loss-noreward	ImageDisplay1		0.0		
34	376.012	0.75	loss-noreward	StartDisplay				
34	376.762		loss-noreward	ImageDisplay2		0.0		
34	380.012	1.6	loss-noreward	ChoiceDisplay	1	0.68	1	1
34	380.712	0.92	loss-noreward	ChosenDisplay		0.0		
34	381.612	0.25	loss-noreward	TurnDisplay				
34	381.862	0.75	loss-noreward	OutcomeDisplay				
35	382.612		control-noreward	ImageDisplay1		0.0		
35	384.862	0.75	control-noreward	StartDisplay				
35	385.612		control-noreward	ImageDisplay2		0.0		
35	388.612	1.6	control-noreward	ChoiceDisplay	1	0.734	1	1
35	389.362	0.866	control-noreward	ChosenDisplay		0.0		
35	390.212	0.25	control-noreward	TurnDisplay				
35	390.462	0.75	control-noreward	OutcomeDisplay				
36	391.212		win-reward	ImageDisplay1		0.0		
36	393.212	0.75	win-reward	StartDisplay				
36	393.962		win-reward	ImageDisplay2		0.0		
36	397.212	1.6	win-reward	ChoiceDisplay	1	0.939	1	1
36	398.178	0.661	win-reward	ChosenDisplay		0.0		
36	398.812	0.25	win-reward	TurnDisplay				
36	399.062	0.75	win-reward	OutcomeDisplay				
37	399.812		control-reward	ImageDisplay1		0.0		
37	402.062	0.75	control-reward	StartDisplay				
37	402.812		control-reward	ImageDisplay2		0.0		
37	405.811	1.6	control-reward	ChoiceDisplay	1	0.8	1	1
37	406.628	0.8	control-reward	ChosenDisplay		0.0		
37	407.411	0.25	control-reward	TurnDisplay				
37	407.661	0.75	control-reward	OutcomeDisplay				
38	408.411		control-noreward	ImageDisplay1		0.0		
38	410.411	0.75	control-noreward	StartDisplay				
38	411.161		control-noreward	ImageDisplay2		0.0		
38	414.411	1.6	control-noreward	ChoiceDisplay	1	0.794	1	1
38	415.228	0.806	control-noreward	ChosenDisplay		0.0		
38	416.011	0.25	control-noreward	TurnDisplay				
38	416.261	0.75	control-noreward	OutcomeDisplay				
39	417.011		win-noreward	ImageDisplay1		0.0		
39	419.261	0.75	win-noreward	StartDisplay				
39	420.011		win-noreward	ImageDisplay2		0.0		
39	423.011	1.6	win-noreward	ChoiceDisplay	1	0.665	1	1
39	423.694	0.935	win-noreward	ChosenDisplay		0.0		
39	424.611	0.25	win-noreward	TurnDisplay				
39	424.861	0.75	win-noreward	OutcomeDisplay				
40	425.611		win-reward	ImageDisplay1		0.0		
40	427.611	0.75	win-reward	StartDisplay				
40	428.361		win-reward	ImageDisplay2		0.0		
40	431.611	1.6	win-reward	ChoiceDisplay	1	0.578	1	1
40	432.211	1.022	win-reward	ChosenDisplay		0.0		
40	433.211	0.25	win-reward	TurnDisplay				
40	433.461	0.75	win-reward	OutcomeDisplay				
41	434.211		loss-reward	ImageDisplay1		0.0		
41	436.21	0.75	loss-reward	StartDisplay				
41	436.96		loss-reward	ImageDisplay2		0.0		
41	440.21	1.6	loss-reward	ChoiceDisplay	1	0.73	1	1
41	440.96	0.87	loss-reward	ChosenDisplay		0.0		
41	441.81	0.25	loss-reward	TurnDisplay				
41	442.06	0.75	loss-reward	OutcomeDisplay				
42	442.81		loss-reward	ImageDisplay1		0.0		
42	445.06	0.75	loss-reward	StartDisplay				
42	445.81		loss-reward	ImageDisplay2		0.0		
42	448.81	1.6	loss-reward	ChoiceDisplay	1	0.744	1	1
42	449.577	0.856	loss-reward	ChosenDisplay		0.0		
42	450.41	0.25	loss-reward	TurnDisplay				
42	450.66	0.75	loss-reward	OutcomeDisplay				
43	451.41		loss-reward	ImageDisplay1		0.0		
43	453.66	0.75	loss-reward	StartDisplay				
43	454.41		loss-reward	ImageDisplay2		0.0		
43	457.41	1.6	loss-reward	ChoiceDisplay	1	0.734	1	1
43	458.16	0.866	loss-reward	ChosenDisplay		0.0		
43	459.01	0.25	loss-reward	TurnDisplay				
43	459.26	0.75	loss-reward	OutcomeDisplay				
44	460.01		loss-reward	ImageDisplay1		0.0		
44	462.26	0.75	loss-reward	StartDisplay				
44	463.01		loss-reward	ImageDisplay2		0.0		
44	466.01	1.6	loss-reward	ChoiceDisplay	1	0.563	1	1
44	466.593	1.037	loss-reward	ChosenDisplay		0.0		
44	467.609	0.25	loss-reward	TurnDisplay				
44	467.859	0.75	loss-reward	OutcomeDisplay				
45	468.609		win-reward	ImageDisplay1		0.0		
45	470.859	0.75	win-reward	StartDisplay				
45	471.609		win-reward	ImageDisplay2		0.0		
45	474.609	1.6	win-reward	ChoiceDisplay	1	0.547	1	1
45	475.176	1.053	win-reward	ChosenDisplay		0.0		
45	476.209	0.25	win-reward	TurnDisplay				
45	476.459	0.75	win-reward	OutcomeDisplay				
46	477.209		win-noreward	ImageDisplay1		0.0		
46	479.209	0.75	win-noreward	StartDisplay				
46	479.959		win-noreward	ImageDisplay2		0.0		
46	483.209	1.6	win-noreward	ChoiceDisplay	1	0.597	1	1
46	483.826	1.003	win-noreward	ChosenDisplay		0.0		
46	484.809	0.25	win-noreward	TurnDisplay				
46	485.059	0.75	win-noreward	OutcomeDisplay				
47	485.809		control-reward	ImageDisplay1		0.0		
47	488.059	0.75	control-reward	StartDisplay				
47	488.809		control-reward	ImageDisplay2		0.0		
47	491.809	1.6	control-reward	ChoiceDisplay	1	0.729	1	1
47	492.559	0.871	control-reward	ChosenDisplay		0.0		
47	493.409	0.25	control-reward	TurnDisplay				
47	493.659	0.75	control-reward	OutcomeDisplay				
48	494.409		loss-reward	ImageDisplay1		0.0		
48	496.409	0.75	loss-reward	StartDisplay				
48	497.159		loss-reward	ImageDisplay2		0.0		
48	500.408	1.6	loss-reward	ChoiceDisplay	1	0.718	1	1
48	501.142	0.882	loss-reward	ChosenDisplay		0.0		
48	502.008	0.25	loss-reward	TurnDisplay				
48	502.258	0.75	loss-reward	OutcomeDisplay				
49	503.008		win-noreward	ImageDisplay1		0.0		
49	505.008	0.75	win-noreward	StartDisplay				
49	505.758		win-noreward	ImageDisplay2		0.0		
49	509.008	1.6	win-noreward	ChoiceDisplay	1	0.798	1	1
49	509.825	0.802	win-noreward	ChosenDisplay		0.0		
49	510.608	0.25	win-noreward	TurnDisplay				
49	510.858	0.75	win-noreward	OutcomeDisplay				
50	511.608		loss-reward	ImageDisplay1		0.0		
50	513.858	0.75	loss-reward	StartDisplay				
50	514.608		loss-reward	ImageDisplay2		0.0		
50	517.608	1.6	loss-reward	ChoiceDisplay	1	0.553	1	1
50	518.175	1.047	loss-reward	ChosenDisplay		0.0		
50	519.208	0.25	loss-reward	TurnDisplay				
50	519.458	0.75	loss-reward	OutcomeDisplay				
51	520.208		control-noreward	ImageDisplay1		0.0		
51	522.208	0.75	control-noreward	StartDisplay				
51	522.958		control-noreward	ImageDisplay2		0.0		
51	526.208	1.6	control-noreward	ChoiceDisplay	1	0.618	1	1
51	526.841	0.982	control-noreward	ChosenDisplay		0.0		
51	527.808	0.25	control-noreward	TurnDisplay				
51	528.058	0.75	control-noreward	OutcomeDisplay				
52	528.808		loss-reward	ImageDisplay1		0.0		
52	531.057	0.75	loss-reward	StartDisplay				
52	531.807		loss-reward	ImageDisplay2		0.0		
52	534.807	1.6	loss-reward	ChoiceDisplay	1	0.662	1	1
52	535.491	0.938	loss-reward	ChosenDisplay		0.0		
52	536.407	0.25	loss-reward	TurnDisplay				
52	536.657	0.75	loss-reward	OutcomeDisplay				
53	537.407		control-noreward	ImageDisplay1		0.0		
53	539.657	0.75	control-noreward	StartDisplay				
53	540.407		control-noreward	ImageDisplay2		0.0		
53	543.407	1.6	control-noreward	ChoiceDisplay	1	0.55	1	1
53	543.974	1.05	control-noreward	ChosenDisplay		0.0		
53	545.007	0.25	control-noreward	TurnDisplay				
53	545.257	0.75	control-noreward	OutcomeDisplay				
54	546.007		loss-reward	ImageDisplay1		0.0		
54	548.007	0.75	loss-reward	StartDisplay				
54	548.757		loss-reward	ImageDisplay2		0.0		
54	552.007	1.6	loss-reward	ChoiceDisplay	1	0.637	1	1
54	552.657	0.963	loss-reward	ChosenDisplay		0.0		
54	553.607	0.25	loss-reward	TurnDisplay				
54	553.857	0.75	loss-reward	OutcomeDisplay				
55	554.607		loss-reward	ImageDisplay1		0.0		
55	556.857	0.75	loss-reward	StartDisplay				
55	557.607		loss-reward	ImageDisplay2		0.0		
55	560.607	1.6	loss-reward	ChoiceDisplay	1	0.783	1	1
55	561.406	0.817	loss-reward	ChosenDisplay		0.0		
55	562.206	0.25	loss-reward	TurnDisplay				
55	562.456	0.75	loss-reward	OutcomeDisplay				
56	563.206		loss-reward	ImageDisplay1		0.0		
56	565.206	0.75	loss-reward	StartDisplay				
56	565.956		loss-reward	ImageDisplay2		0.0		
56	569.206	1.6	loss-reward	ChoiceDisplay	1	0.857	1	1
56	570.09	0.743	loss-reward	ChosenDisplay		0.0		
56	570.806	0.25	loss-reward	TurnDisplay				
56	571.056	0.75	loss-reward	OutcomeDisplay				
57	571.806		win-reward	ImageDisplay1		0.0		
57	574.056	0.75	win-reward	StartDisplay				
57	574.806		win-reward	ImageDisplay2		0.0		
57	577.806	1.6	win-reward	ChoiceDisplay	1	0.95	1	1
57	578.773	0.65	win-reward	ChosenDisplay		0.0		
57	579.406	0.25	win-reward	TurnDisplay				
57	579.656	0.75	win-reward	OutcomeDisplay				
58	580.406		control-noreward	ImageDisplay1		0.0		
58	582.656	0.75	control-noreward	StartDisplay				
58	583.406		control-noreward	ImageDisplay2		0.0		
58	586.406	1.6	control-noreward	ChoiceDisplay	1	0.522	1	1
58	586.956	1.078	control-noreward	ChosenDisplay		0.0		
58	588.006	0.25	control-noreward	TurnDisplay				
58	588.256	0.75	control-noreward	OutcomeDisplay				
59	589.006		win-reward	ImageDisplay1		0.0		
59	591.256	0.75	win-reward	StartDisplay				
59	592.006		win-reward	ImageDisplay2		0.0		
59	595.005	1.6	win-reward	ChoiceDisplay	1	0.677	1	1
59	595.705	0.923	win-reward	ChosenDisplay		0.0		
59	596.605	0.25	win-reward	TurnDisplay				
59	596.855	0.75	win-reward	OutcomeDisplay				
60	597.605		win-reward	ImageDisplay1		0.0		
60	599.605	0.75	win-reward	StartDisplay				
60	600.355		win-reward	ImageDisplay2		0.0		
60	603.605	1.6	win-reward	ChoiceDisplay	1	0.439	1	1
60	604.072	1.161	win-reward	ChosenDisplay		0.0		
60	605.205	0.25	win-reward	TurnDisplay				
60	605.455	0.75	win-reward	OutcomeDisplay				
61	606.205		win-reward	ImageDisplay1		0.0		
61	608.455	0.75	win-reward	StartDisplay				
61	609.205		win-reward	ImageDisplay2		0.0		
61	612.205	1.6	win-reward	ChoiceDisplay	1	0.745	1	1
61	612.972	0.855	win-reward	ChosenDisplay		0.0		
61	613.805	0.25	win-reward	TurnDisplay				
61	614.055	0.75	win-reward	OutcomeDisplay				
62	614.805		win-reward	ImageDisplay1		0.0		
62	617.055	0.75	win-reward	StartDisplay				
62	617.805		win-reward	ImageDisplay2		0.0		
62	620.805	1.6	win-reward	ChoiceDisplay	1	0.704	1	1
62	621.521	0.896	win-reward	ChosenDisplay		0.0		
62	622.405	0.25	win-reward	TurnDisplay				
62	622.655	0.75	win-reward	OutcomeDisplay				
63	623.405		loss-noreward	ImageDisplay1		0.0		
63	625.404	0.75	loss-noreward	StartDisplay				
63	626.154		loss-noreward	ImageDisplay2		0.0		
63	629.404	1.6	loss-noreward	ChoiceDisplay	1	0.762	1	1
63	630.188	0.838	loss-noreward	ChosenDisplay		0.0		
63	631.004	0.25	loss-noreward	TurnDisplay				
63	631.254	0.75	loss-noreward	OutcomeDisplay				
64	632.004		loss-reward	ImageDisplay1		0.0		
64	634.254	0.75	loss-reward	StartDisplay				
64	635.004		loss-reward	ImageDisplay2		0.0		
64	638.004	1.6	loss-reward	ChoiceDisplay	1	1.117	1	1
64	639.137	0.483	loss-reward	ChosenDisplay		0.0		
64	639.604	0.25	loss-reward	TurnDisplay				
64	639.854	0.75	loss-reward	OutcomeDisplay				
65	640.604		control-noreward	ImageDisplay1		0.0		
65	642.854	0.75	control-noreward	StartDisplay				
65	643.604		control-noreward	ImageDisplay2		0.0		
65	646.604	1.6	control-noreward	ChoiceDisplay	1	1.029	1	1
65	647.654	0.571	control-noreward	ChosenDisplay		0.0		
65	648.204	0.25	control-noreward	TurnDisplay				
65	648.454	0.75	control-noreward	OutcomeDisplay				
66	649.204		win-noreward	ImageDisplay1		0.0		
66	651.204	0.75	win-noreward	StartDisplay				
66	651.954		win-noreward	ImageDisplay2		0.0		
66	655.203	1.6	win-noreward	ChoiceDisplay	1	0.897	1	1
66	656.12	0.703	win-noreward	ChosenDisplay		0.0		
66	656.803	0.25	win-noreward	TurnDisplay				
66	657.053	0.75	win-noreward	OutcomeDisplay				
67	657.803		control-noreward	ImageDisplay1		0.0		
67	659.803	0.75	control-noreward	StartDisplay				
67	660.553		control-noreward	ImageDisplay2		0.0		
67	663.803	1.6	control-noreward	ChoiceDisplay	1	0.821	1	1
67	664.637	0.779	control-noreward	ChosenDisplay		0.0		
67	665.403	0.25	control-noreward	TurnDisplay				
67	665.653	0.75	control-noreward	OutcomeDisplay				
68	666.403		win-noreward	ImageDisplay1		0.0		
68	668.403	0.75	win-noreward	StartDisplay				
68	669.153		win-noreward	ImageDisplay2		0.0		
68	672.403	1.6	win-noreward	ChoiceDisplay	1	0.726	1	1
68	673.153	0.874	win-noreward	ChosenDisplay		0.0		
68	674.003	0.25	win-noreward	TurnDisplay				
68	674.253	0.75	win-noreward	OutcomeDisplay				
69	675.003		control-noreward	ImageDisplay1		0.0		
69	677.003	0.75	control-noreward	StartDisplay				
69	677.753		control-noreward	ImageDisplay2		0.0		
69	681.003	1.6	control-noreward	ChoiceDisplay	1	1.019	1	1
69	682.036	0.581	control-noreward	ChosenDisplay		0.0		
69	682.603	0.25	control-noreward	TurnDisplay				
69	682.853	0.75	control-noreward	OutcomeDisplay				
70	683.603		win-noreward	ImageDisplay1		0.0		
70	685.603	0.75	win-noreward	StartDisplay				
70	686.352		win-noreward	ImageDisplay2		0.0		
70	689.602	1.6	win-noreward	ChoiceDisplay	1	0.891	1	1
70	690.519	0.709	win-noreward	ChosenDisplay		0.0		
70	691.202	0.25	win-noreward	TurnDisplay				
70	691.452	0.75	win-noreward	OutcomeDisplay				
71	692.202		control-reward	ImageDisplay1		0.0		
71	694.452	0.75	control-reward	StartDisplay				
71	695.202		control-reward	ImageDisplay2		0.0		
71	698.202	1.6	control-reward	ChoiceDisplay	1	0.833	1	1
71	699.052	0.767	control-reward	ChosenDisplay		0.0		
71	699.802	0.25	control-reward	TurnDisplay				
71	700.052	0.75	control-reward	OutcomeDisplay				
72	700.802		control-noreward	ImageDisplay1		0.0		
72	702.802	0.75	control-noreward	StartDisplay				
72	703.552		control-noreward	ImageDisplay2		0.0		
72	706.802	1.6	control-noreward	ChoiceDisplay	1	0.799	1	1
72	707.618	0.801	control-noreward	ChosenDisplay		0.0		
72	708.402	0.25	control-noreward	TurnDisplay				
72	708.652	0.75	control-noreward	OutcomeDisplay				
73	709.402		loss-reward	ImageDisplay1		0.0		
73	711.652	0.75	loss-reward	StartDisplay				
73	712.402		loss-reward	ImageDisplay2		0.0		
73	715.402	1.6	loss-reward	ChoiceDisplay	1	0.796	1	1
73	716.218	0.804	loss-reward	ChosenDisplay		0.0		
73	717.002	0.25	loss-reward	TurnDisplay				
73	717.252	0.75	loss-reward	OutcomeDisplay				
74	718.001		loss-noreward	ImageDisplay1		0.0		
74	720.251	0.75	loss-noreward	StartDisplay				
74	721.001		loss-noreward	ImageDisplay2		0.0		
74	724.001	1.6	loss-noreward	ChoiceDisplay	1	0.739	1	1
74	724.751	0.861	loss-noreward	ChosenDisplay		0.0		
74	725.601	0.25	loss-noreward	TurnDisplay				
74	725.851	0.75	loss-noreward	OutcomeDisplay				
75	726.601		control-reward	ImageDisplay1		0.0		
75	728.601	0.75	control-reward	StartDisplay				
75	729.351		control-reward	ImageDisplay2		0.0		
75	732.601	1.6	control-reward	ChoiceDisplay	1	1.014	1	1
75	733.634	0.586	control-reward	ChosenDisplay		0.0		
75	734.201	0.25	control-reward	TurnDisplay				
75	734.451	0.75	control-reward	OutcomeDisplay				
76	735.201		win-reward	ImageDisplay1		0.0		
76	737.201	0.75	win-reward	StartDisplay				
76	737.951		win-reward	ImageDisplay2		0.0		
76	741.201	1.6	win-reward	ChoiceDisplay	1	0.919	1	1
76	742.134	0.681	win-reward	ChosenDisplay		0.0		
76	742.801	0.25	win-reward	TurnDisplay				
76	743.051	0.75	win-reward	OutcomeDisplay				
77	743.801		win-reward	ImageDisplay1		0.0		
77	745.801	0.75	win-reward	StartDisplay				
77	746.551		win-reward	ImageDisplay2		0.0		
77	749.801	1.6	win-reward	ChoiceDisplay	1	0.829	1	1
77	750.65	0.771	win-reward	ChosenDisplay		0.0		
77	751.4	0.25	win-reward	TurnDisplay				
77	751.65	0.75	win-reward	OutcomeDisplay				
78	752.4		loss-reward	ImageDisplay1		0.0		
78	754.65	0.75	loss-reward	StartDisplay				
78	755.4		loss-reward	ImageDisplay2		0.0		
78	758.4	1.6	loss-reward	ChoiceDisplay	1	1.127	1	1
78	759.55	0.473	loss-reward	ChosenDisplay		0.0		
78	760.0	0.25	loss-reward	TurnDisplay				
78	760.25	0.75	loss-reward	OutcomeDisplay				
79	761.0		loss-noreward	ImageDisplay1		0.0		
79	763.0	0.75	loss-noreward	StartDisplay				
79	763.75		loss-noreward	ImageDisplay2		0.0		
79	767.0	1.6	loss-noreward	ChoiceDisplay	1	0.773	1	1
79	767.8	0.827	loss-noreward	ChosenDisplay		0.0		
79	768.6	0.25	loss-noreward	TurnDisplay				
79	768.85	0.75	loss-noreward	OutcomeDisplay				
80	769.6		win-reward	ImageDisplay1		0.0		
80	771.85	0.75	win-reward	StartDisplay				
80	772.6		win-reward	ImageDisplay2		0.0		
80	775.6	1.6	win-reward	ChoiceDisplay	1	1.052	1	1
80	776.666	0.548	win-reward	ChosenDisplay		0.0		
80	777.2	0.25	win-reward	TurnDisplay				
80	777.45	0.75	win-reward	OutcomeDisplay				
81	778.2		control-reward	ImageDisplay1		0.0		
81	780.45	0.75	control-reward	StartDisplay				
81	781.199		control-reward	ImageDisplay2		0.0		
81	784.199	1.6	control-reward	ChoiceDisplay	1	1.273	1	1
81	785.499	0.327	control-reward	ChosenDisplay		0.0		
81	785.799	0.25	control-reward	TurnDisplay				
81	786.049	0.75	control-reward	OutcomeDisplay				
82	786.799		loss-reward	ImageDisplay1		0.0		
82	788.799	0.75	loss-reward	StartDisplay				
82	789.549		loss-reward	ImageDisplay2		0.0		
82	792.799	1.6	loss-reward	ChoiceDisplay	1	1.245	1	1
82	794.066	0.355	loss-reward	ChosenDisplay		0.0		
82	794.399	0.25	loss-reward	TurnDisplay				
82	794.649	0.75	loss-reward	OutcomeDisplay				
83	795.399		control-reward	ImageDisplay1		0.0		
83	797.649	0.75	control-reward	StartDisplay				
83	798.399		control-reward	ImageDisplay2		0.0		
83	801.399	1.6	control-reward	ChoiceDisplay	1	1.265	1	1
83	802.682	0.335	control-reward	ChosenDisplay		0.0		
83	802.999	0.25	control-reward	TurnDisplay				
83	803.249	0.75	control-reward	OutcomeDisplay				
84	803.999		control-noreward	ImageDisplay1		0.0		
84	806.249	0.75	control-noreward	StartDisplay				
84	806.999		control-noreward	ImageDisplay2		0.0		
84	809.999	1.6	control-noreward	ChoiceDisplay	1	1.073	1	1
84	811.099	0.527	control-noreward	ChosenDisplay		0.0		
84	811.599	0.25	control-noreward	TurnDisplay				
84	811.849	0.75	control-noreward	OutcomeDisplay				
85	812.598		win-reward	ImageDisplay1		0.0		
85	814.848	0.75	win-reward	StartDisplay				
85	815.598		win-reward	ImageDisplay2		0.0		
85	818.598	1.6	win-reward	ChoiceDisplay	1	1.066	1	1
85	819.682	0.534	win-reward	ChosenDisplay		0.0		
85	820.198	0.25	win-reward	TurnDisplay				
85	820.448	0.75	win-reward	OutcomeDisplay				
86	821.198		loss-noreward	ImageDisplay1		0.0		
86	823.448	0.75	loss-noreward	StartDisplay				
86	824.198		loss-noreward	ImageDisplay2		0.0		
86	827.198	1.6	loss-noreward	ChoiceDisplay	1	1.259	1	1
86	828.481	0.341	loss-noreward	ChosenDisplay		0.0		
86	828.798	0.25	loss-noreward	TurnDisplay				
86	829.048	0.75	loss-noreward	OutcomeDisplay				
87	829.798		win-noreward	ImageDisplay1		0.0		
87	832.048	0.75	win-noreward	StartDisplay				
87	832.798		win-noreward	ImageDisplay2		0.0		
87	835.798	1.6	win-noreward	ChoiceDisplay	1	1.078	1	1
87	836.898	0.522	win-noreward	ChosenDisplay		0.0		
87	837.398	0.25	win-noreward	TurnDisplay				
87	837.648	0.75	win-noreward	OutcomeDisplay				
88	838.398		control-reward	ImageDisplay1		0.0		
88	840.398	0.75	control-reward	StartDisplay				
88	841.148		control-reward	ImageDisplay2		0.0		
88	844.397	1.6	control-reward	ChoiceDisplay	1	1.144	1	1
88	845.564	0.456	control-reward	ChosenDisplay		0.0		
88	845.997	0.25	control-reward	TurnDisplay				
88	846.247	0.75	control-reward	OutcomeDisplay				
89	846.997		loss-noreward	ImageDisplay1		0.0		
89	849.247	0.75	loss-noreward	StartDisplay				
89	849.997		loss-noreward	ImageDisplay2		0.0		
89	852.997	1.6	loss-noreward	ChoiceDisplay	1	1.142	1	1
89	854.164	0.458	loss-noreward	ChosenDisplay		0.0		
89	854.597	0.25	loss-noreward	TurnDisplay				
89	854.847	0.75	loss-noreward	OutcomeDisplay				
90	855.597		win-noreward	ImageDisplay1		0.0		
90	857.847	0.75	win-noreward	StartDisplay				
90	858.597		win-noreward	ImageDisplay2		0.0		
90	861.597	1.6	win-noreward	ChoiceDisplay	1	1.071	1	1
90	862.68	0.529	win-noreward	ChosenDisplay		0.0		
90	863.197	0.25	win-noreward	TurnDisplay				
90	863.447	0.75	win-noreward	OutcomeDisplay				
91	864.197		loss-noreward	ImageDisplay1		0.0		
91	866.447	0.75	loss-noreward	StartDisplay				
91	867.197		loss-noreward	ImageDisplay2		0.0		
91	870.197	1.6	loss-noreward	ChoiceDisplay		0.0		
91	871.797	0.0	loss-noreward	ChosenDisplay		0.0		
91	871.813	0.25	loss-noreward	TurnDisplay				
91	872.047	0.75	loss-noreward	OutcomeDisplay				
92	872.797		win-noreward	ImageDisplay1		0.0		
92	875.047	0.75	win-noreward	StartDisplay				
92	875.796		win-noreward	ImageDisplay2		0.0		
92	878.796	1.6	win-noreward	ChoiceDisplay	1	0.857	1	1
92	879.68	0.743	win-noreward	ChosenDisplay		0.0		
92	880.396	0.25	win-noreward	TurnDisplay				
92	880.646	0.75	win-noreward	OutcomeDisplay				
93	881.396		win-noreward	ImageDisplay1		0.0		
93	883.646	0.75	win-noreward	StartDisplay				
93	884.396		win-noreward	ImageDisplay2		0.0		
93	887.396	1.6	win-noreward	ChoiceDisplay	1	0.975	1	1
93	888.396	0.625	win-noreward	ChosenDisplay		0.0		
93	888.996	0.25	win-noreward	TurnDisplay				
93	889.246	0.75	win-noreward	OutcomeDisplay				
94	889.996		win-reward	ImageDisplay1		0.0		
94	891.996	0.75	win-reward	StartDisplay				
94	892.746		win-reward	ImageDisplay2		0.0		
94	895.996	1.6	win-reward	ChoiceDisplay	1	0.962	1	1
94	896.979	0.638	win-reward	ChosenDisplay		0.0		
94	897.596	0.25	win-reward	TurnDisplay				
94	897.846	0.75	win-reward	OutcomeDisplay				
95	898.596		loss-noreward	ImageDisplay1		0.0		
95	900.596	0.75	loss-noreward	StartDisplay				
95	901.346		loss-noreward	ImageDisplay2		0.0		
95	904.596	1.6	loss-noreward	ChoiceDisplay	1	1.308	1	1
95	905.929	0.292	loss-noreward	ChosenDisplay		0.0		
95	906.196	0.25	loss-noreward	TurnDisplay				
95	906.445	0.75	loss-noreward	OutcomeDisplay				
