onset	duration	trial_type	response_time	stim_file	accuracy
432.97	1.0	go	0.839	Go_X	0.0
435.494	1.0	go	0.685	Go_O	0.0
438.018	1.0	go	0.525	Go_O	0.0
440.542	1.0	go	0.321	Go_X	0.0
443.067	1.0	go	0.357	Go_X	0.0
445.591	1.0	go	0.337	Go_O	0.0
448.115	0.25	stop	0.0	Go_O	1.0
450.639	1.0	go	0.46	Go_O	1.0
453.164	0.3	stop	0.269	Go_X	0.0
455.705	1.0	go	0.366	Go_X	0.0
458.229	1.0	go	0.303	Go_X	0.0
460.77	1.0	go	0.464	Go_O	0.0
463.294	0.25	stop	0.354	Go_O	0.0
465.818	1.0	go	0.366	Go_O	0.0
468.342	1.0	go	0.345	Go_X	0.0
470.867	0.2	stop	0.298	Go_X	0.0
473.391	0.15	stop	0.0	Go_O	1.0
475.932	1.0	go	0.366	Go_X	0.0
478.456	1.0	go	0.372	Go_O	0.0
480.997	0.2	stop	0.326	Go_X	0.0
483.521	1.0	go	0.369	Go_X	0.0
486.045	1.0	go	0.398	Go_O	0.0
488.569	0.15	stop	0.0	Go_O	1.0
491.11	1.0	go	0.248	Go_X	0.0
493.635	1.0	go	0.455	Go_O	0.0
496.159	0.2	stop	0.301	Go_X	0.0
498.683	1.0	go	0.457	Go_O	0.0
501.207	1.0	go	0.282	Go_X	0.0
503.731	0.15	stop	0.0	Go_O	1.0
506.256	1.0	go	0.453	Go_O	0.0
508.78	1.0	go	0.478	Go_X	0.0
511.304	1.0	go	0.426	Go_X	0.0
513.828	1.0	go	0.474	Go_O	0.0
516.352	1.0	go	0.312	Go_X	0.0
518.877	0.2	stop	0.307	Go_X	0.0
521.401	1.0	go	0.381	Go_O	0.0
523.925	1.0	go	0.385	Go_O	1.0
526.449	1.0	go	0.32	Go_X	0.0
528.974	1.0	go	0.415	Go_X	0.0
531.498	1.0	go	0.391	Go_O	0.0
534.022	0.15	stop	0.0	Go_O	1.0
536.546	1.0	go	0.308	Go_O	0.0
539.07	1.0	go	0.457	Go_X	0.0
541.595	1.0	go	0.489	Go_O	0.0
544.119	1.0	go	0.435	Go_X	0.0
546.643	1.0	go	0.383	Go_O	0.0
549.167	1.0	go	0.332	Go_X	0.0
551.692	0.2	stop	0.0	Go_X	1.0
554.216	1.0	go	0.443	Go_O	0.0
556.74	1.0	go	0.311	Go_X	0.0
559.264	0.25	stop	0.0	Go_O	1.0
561.788	1.0	go	0.344	Go_X	0.0
564.313	0.3	stop	0.0	Go_X	1.0
566.853	0.35	stop	0.423	Go_O	0.0
569.378	1.0	go	0.503	Go_O	0.0
571.902	1.0	go	0.392	Go_O	0.0
574.426	1.0	go	0.366	Go_X	0.0
576.95	1.0	go	0.849	Go_O	0.0
579.475	0.3	stop	0.354	Go_X	0.0
582.015	1.0	go	0.423	Go_X	0.0
584.556	0.25	stop	0.262	Go_O	0.0
587.097	1.0	go	0.428	Go_X	0.0
589.622	1.0	go	0.261	Go_O	0.0
592.146	1.0	go	0.316	Go_O	1.0
594.67	1.0	go	0.424	Go_X	0.0
597.194	1.0	go	0.343	Go_X	0.0
599.718	1.0	go	0.396	Go_O	0.0
602.243	1.0	go	0.335	Go_X	0.0
604.767	1.0	go	0.474	Go_O	0.0
607.308	1.0	go	0.444	Go_X	0.0
609.832	0.2	stop	0.321	Go_X	0.0
612.356	1.0	go	0.4	Go_O	0.0
614.88	1.0	go	0.402	Go_O	0.0
617.405	1.0	go	0.37	Go_X	0.0
619.929	0.15	stop	0.0	Go_O	1.0
622.47	1.0	go	0.47	Go_X	0.0
624.994	1.0	go	0.663	Go_O	0.0
627.518	1.0	go	0.404	Go_O	0.0
630.042	1.0	go	0.454	Go_X	1.0
632.567	1.0	go	0.339	Go_X	0.0
635.091	1.0	go	0.332	Go_O	0.0
637.615	0.2	stop	0.315	Go_X	0.0
640.139	1.0	go	0.327	Go_X	0.0
642.664	1.0	go	0.386	Go_O	0.0
645.188	0.15	stop	0.0	Go_O	1.0
647.712	1.0	go	0.364	Go_O	0.0
650.236	1.0	go	0.331	Go_X	0.0
652.76	0.2	stop	0.31	Go_X	0.0
655.285	1.0	go	0.317	Go_X	0.0
657.825	0.15	stop	0.0	Go_O	1.0
660.35	1.0	go	0.506	Go_O	0.0
662.874	1.0	go	0.248	Go_X	0.0
665.398	1.0	go	0.376	Go_O	0.0
667.922	1.0	go	0.394	Go_O	0.0
670.447	1.0	go	0.398	Go_X	0.0
672.971	0.2	stop	0.341	Go_X	0.0
675.495	0.15	stop	0.0	Go_O	1.0
678.036	1.0	go	0.361	Go_O	0.0
680.56	1.0	go	0.307	Go_X	0.0
683.084	0.2	stop	0.333	Go_X	0.0
685.609	1.0	go	0.522	Go_O	0.0
688.133	1.0	go	0.476	Go_X	1.0
690.657	1.0	go	0.336	Go_X	0.0
693.181	1.0	go	0.329	Go_O	0.0
695.705	1.0	go	0.441	Go_O	0.0
698.23	1.0	go	0.516	Go_X	0.0
700.754	0.15	stop	0.0	Go_O	1.0
703.278	1.0	go	0.37	Go_O	0.0
705.802	1.0	go	0.363	Go_X	0.0
708.326	1.0	go	0.332	Go_X	0.0
710.851	1.0	go	0.376	Go_O	0.0
713.375	1.0	go	0.456	Go_X	0.0
715.899	0.2	stop	0.316	Go_X	0.0
718.423	1.0	go	0.362	Go_O	1.0
720.948	1.0	go	0.383	Go_X	0.0
723.472	1.0	go	0.341	Go_O	0.0
725.996	1.0	go	0.461	Go_X	0.0
728.52	0.15	stop	0.0	Go_O	1.0
731.044	1.0	go	0.381	Go_O	0.0
733.569	1.0	go	0.395	Go_O	0.0
736.093	0.2	stop	0.0	Go_X	1.0
738.617	1.0	go	0.373	Go_X	1.0
741.141	0.25	stop	0.572	Go_O	0.0
743.682	1.0	go	0.488	Go_O	0.0
746.206	1.0	go	0.387	Go_X	0.0
748.731	1.0	go	0.409	Go_X	0.0
751.255	1.0	go	0.391	Go_O	0.0
753.779	1.0	go	0.545	Go_X	0.0
756.303	1.0	go	0.371	Go_O	0.0
758.827	1.0	go	0.382	Go_X	0.0
761.352	0.2	stop	0.364	Go_X	0.0
763.876	1.0	go	0.366	Go_O	0.0
766.4	1.0	go	0.345	Go_X	0.0
768.924	1.0	go	0.358	Go_O	0.0
771.449	0.15	stop	0.0	Go_O	1.0
773.973	1.0	go	0.512	Go_O	0.0
776.497	1.0	go	0.29	Go_X	0.0
779.021	1.0	go	0.37	Go_O	0.0
781.545	1.0	go	0.324	Go_X	0.0
784.07	0.2	stop	0.0	Go_X	1.0
786.594	1.0	go	0.522	Go_O	0.0
789.135	1.0	go	0.296	Go_X	0.0
791.659	0.25	stop	0.0	Go_O	1.0
794.183	1.0	go	0.465	Go_O	0.0
796.707	1.0	go	0.482	Go_X	0.0
799.232	0.3	stop	0.276	Go_X	0.0
801.773	1.0	go	0.371	Go_O	0.0
804.297	1.0	go	0.475	Go_X	0.0
806.821	0.25	stop	0.388	Go_O	0.0
809.345	1.0	go	0.433	Go_X	0.0
811.869	1.0	go	0.308	Go_O	0.0
814.394	1.0	go	0.445	Go_O	0.0
816.918	1.0	go	0.392	Go_X	0.0
819.442	1.0	go	0.359	Go_X	0.0
821.966	1.0	go	0.779	Go_O	0.0
824.49	0.2	stop	0.382	Go_X	0.0
827.015	1.0	go	0.332	Go_O	0.0
829.539	0.15	stop	0.0	Go_O	1.0
832.063	1.0	go	0.476	Go_X	0.0
834.604	1.0	go	0.58	Go_O	0.0
837.128	1.0	go	0.448	Go_X	0.0
839.652	1.0	go	0.385	Go_X	0.0
842.177	1.0	go	0.551	Go_O	0.0
844.701	0.2	stop	0.0	Go_X	1.0
847.225	1.0	go	0.333	Go_O	0.0
849.749	1.0	go	0.443	Go_X	1.0
852.274	1.0	go	0.425	Go_O	1.0
854.798	0.25	stop	0.355	Go_O	0.0
857.339	0.2	stop	0.0	Go_X	1.0
859.863	0.25	stop	0.412	Go_O	0.0
862.387	1.0	go	0.442	Go_X	0.0
864.911	0.2	stop	0.0	Go_X	1.0
867.436	1.0	go	0.266	Go_X	0.0
869.96	1.0	go	0.681	Go_O	0.0
872.484	1.0	go	0.516	Go_O	0.0
875.008	1.0	go	0.368	Go_X	0.0
877.532	1.0	go	0.288	Go_X	0.0
880.057	1.0	go	0.522	Go_O	0.0
882.581	1.0	go	0.571	Go_X	0.0
885.105	1.0	go	0.374	Go_O	0.0
887.63	0.25	stop	0.421	Go_O	0.0
890.153	1.0	go	0.478	Go_X	0.0
892.678	1.0	go	0.43	Go_O	0.0
895.202	0.2	stop	0.0	Go_X	1.0
897.726	1.0	go	0.41	Go_X	0.0
900.25	1.0	go	0.37	Go_O	1.0
902.775	1.0	go	0.496	Go_O	0.0
905.299	1.0	go	0.258	Go_X	0.0
907.823	1.0	go	0.0	Go_X	0.0
910.364	0.25	stop	0.319	Go_O	0.0
912.888	1.0	go	0.432	Go_O	0.0
915.412	1.0	go	0.341	Go_X	0.0
917.937	1.0	go	0.516	Go_O	0.0
920.461	0.2	stop	0.0	Go_X	1.0
923.002	1.0	go	0.399	Go_O	0.0
925.526	0.25	stop	0.248	Go_O	0.0
928.05	1.0	go	0.416	Go_X	0.0
930.574	1.0	go	0.352	Go_X	0.0
933.099	1.0	go	0.484	Go_O	0.0
935.623	1.0	go	0.549	Go_X	0.0
938.164	1.0	go	0.47	Go_O	0.0
940.688	1.0	go	0.599	Go_O	0.0
943.212	1.0	go	0.569	Go_X	0.0
945.736	0.2	stop	0.478	Go_X	0.0
948.261	1.0	go	0.412	Go_X	0.0
950.785	1.0	go	0.516	Go_O	0.0
953.309	1.0	go	0.236	Go_X	0.0
955.833	1.0	go	0.507	Go_O	1.0
958.357	0.15	stop	0.0	Go_O	1.0
960.882	1.0	go	0.396	Go_X	1.0
963.406	0.2	stop	0.0	Go_X	1.0
965.947	1.0	go	0.247	Go_O	0.0
968.471	1.0	go	0.475	Go_O	0.0
971.012	0.25	stop	0.0	Go_O	1.0
973.536	1.0	go	0.721	Go_X	0.0
976.06	1.0	go	0.301	Go_X	0.0
978.585	1.0	go	0.495	Go_O	0.0
981.109	1.0	go	0.632	Go_X	1.0
983.633	1.0	go	0.249	Go_O	0.0
986.157	1.0	go	0.357	Go_O	0.0
988.681	1.0	go	0.416	Go_X	0.0
991.206	1.0	go	0.442	Go_O	0.0
993.73	1.0	go	0.369	Go_X	0.0
996.271	1.0	go	0.429	Go_X	0.0
998.795	0.3	stop	0.451	Go_X	0.0
1001.319	1.0	go	0.612	Go_O	0.0
1003.843	1.0	go	0.484	Go_O	0.0
1006.368	0.25	stop	0.335	Go_O	0.0
1008.892	1.0	go	0.622	Go_X	1.0
1011.416	0.2	stop	0.0	Go_X	1.0
1013.94	1.0	go	0.427	Go_X	1.0
1016.464	1.0	go	0.954	Go_O	0.0
1018.989	0.25	stop	0.393	Go_O	0.0
1021.513	1.0	go	0.305	Go_O	1.0
1024.037	0.2	stop	0.347	Go_X	0.0
1026.561	1.0	go	0.352	Go_X	0.0
1029.086	1.0	go	0.416	Go_O	0.0
1031.61	1.0	go	0.495	Go_X	0.0
1034.134	0.15	stop	0.459	Go_O	0.0
1036.658	1.0	go	0.414	Go_X	1.0
1039.182	1.0	go	0.238	Go_O	0.0
1041.707	1.0	go	0.394	Go_X	0.0
1044.231	1.0	go	0.436	Go_O	1.0
1046.755	0.1	stop	0.0	Go_X	1.0
1049.279	1.0	go	0.336	Go_X	0.0
1051.803	1.0	go	0.237	Go_O	0.0
1054.328	0.15	stop	0.0	Go_O	1.0
1056.869	1.0	go	0.354	Go_X	0.0
1059.393	1.0	go	0.394	Go_O	0.0
1061.934	1.0	go	0.521	Go_X	0.0
1064.458	1.0	go	0.457	Go_O	0.0
1066.982	0.2	stop	0.351	Go_X	0.0
1069.506	1.0	go	0.549	Go_X	1.0
1072.031	0.15	stop	0.307	Go_O	0.0
1074.555	1.0	go	0.274	Go_O	0.0
1077.079	1.0	go	0.259	Go_O	1.0
1079.603	0.1	stop	0.0	Go_X	1.0
1082.128	1.0	go	0.44	Go_X	0.0
1084.652	1.0	go	0.472	Go_X	0.0
1087.176	1.0	go	0.336	Go_O	1.0
1089.7	1.0	go	0.487	Go_X	0.0
1092.224	0.15	stop	0.454	Go_O	0.0
1094.749	1.0	go	0.417	Go_O	0.0
1097.289	0.1	stop	0.914	Go_X	0.0
1099.814	1.0	go	0.534	Go_X	0.0
1102.338	1.0	go	0.386	Go_O	0.0
1104.862	1.0	go	0.379	Go_X	1.0
1107.386	1.0	go	0.376	Go_O	0.0
1109.911	1.0	go	0.534	Go_O	0.0
1112.435	1.0	go	0.833	Go_X	0.0
1114.959	0.05	stop	0.0	Go_O	1.0
1117.483	1.0	go	0.493	Go_O	0.0
1120.007	1.0	go	0.644	Go_X	0.0
1122.532	0.1	stop	0.0	Go_X	1.0
1125.056	1.0	go	0.369	Go_X	0.0
1127.58	1.0	go	0.55	Go_O	0.0
1130.104	0.15	stop	0.0	Go_O	1.0
1132.628	1.0	go	0.447	Go_O	0.0
1135.153	1.0	go	0.396	Go_X	0.0
1137.677	1.0	go	0.264	Go_X	0.0
1140.201	1.0	go	0.277	Go_O	1.0
1142.725	0.2	stop	0.0	Go_X	1.0
1145.25	1.0	go	0.527	Go_X	0.0
1147.791	0.25	stop	0.0	Go_O	1.0
1150.315	1.0	go	0.533	Go_O	0.0
1152.839	1.0	go	0.363	Go_O	1.0
1155.363	1.0	go	0.469	Go_X	0.0
1157.887	1.0	go	0.408	Go_X	0.0
1160.411	1.0	go	0.354	Go_O	0.0
1162.936	0.3	stop	0.332	Go_X	0.0
1165.46	1.0	go	0.432	Go_O	0.0
1167.984	1.0	go	0.496	Go_X	0.0
1170.508	0.25	stop	0.0	Go_O	1.0
1173.033	0.3	stop	0.0	Go_X	1.0
1175.557	1.0	go	0.317	Go_O	0.0
1178.081	1.0	go	0.0	Go_X	0.0
1180.605	1.0	go	0.288	Go_X	1.0
1183.129	1.0	go	0.356	Go_O	0.0
1185.654	0.35	stop	0.393	Go_O	0.0
1188.178	1.0	go	0.36	Go_X	0.0
