frame	onset	duration	trial_type	event_type	response_type	response_time	stim_file	accuracy
0	78.286		win-reward	ImageDisplay1		0.0		
0	80.509	0.75	win-reward	StartDisplay				
0	81.262		win-reward	ImageDisplay2		0.0		
0	84.271	1.6	win-reward	ChoiceDisplay	1	1.079	1	1
0	85.374	0.521	win-reward	ChosenDisplay		0.0		
0	85.875	0.25	win-reward	TurnDisplay				
0	86.126	0.75	win-reward	OutcomeDisplay				
1	86.878		win-reward	ImageDisplay1		0.0		
1	88.885	0.75	win-reward	StartDisplay				
1	89.62		win-reward	ImageDisplay2		0.0		
1	92.88	1.6	win-reward	ChoiceDisplay	1	1.161	1	1
1	94.067	0.439	win-reward	ChosenDisplay		0.0		
1	94.484	0.25	win-reward	TurnDisplay				
1	94.735	0.75	win-reward	OutcomeDisplay				
2	95.488		control-noreward	ImageDisplay1		0.0		
2	97.477	0.75	control-noreward	StartDisplay				
2	98.229		control-noreward	ImageDisplay2		0.0		
2	101.489	1.6	control-noreward	ChoiceDisplay	1	1.348	1	1
2	102.86	0.252	control-noreward	ChosenDisplay		0.0		
2	103.094	0.25	control-noreward	TurnDisplay				
2	103.344	0.75	control-noreward	OutcomeDisplay				
3	104.097		loss-noreward	ImageDisplay1		0.0		
3	106.337	0.75	loss-noreward	StartDisplay				
3	107.089		loss-noreward	ImageDisplay2		0.0		
3	110.098	1.6	loss-noreward	ChoiceDisplay	1	1.237	1	1
3	111.352	0.363	loss-noreward	ChosenDisplay		0.0		
3	111.703	0.25	loss-noreward	TurnDisplay				
3	111.953	0.75	loss-noreward	OutcomeDisplay				
4	112.706		control-reward	ImageDisplay1		0.0		
4	114.695	0.75	control-reward	StartDisplay				
4	115.447		control-reward	ImageDisplay2		0.0		
4	118.707	1.6	control-reward	ChoiceDisplay	1	1.403	1	1
4	120.128	0.197	control-reward	ChosenDisplay		0.0		
4	120.312	0.25	control-reward	TurnDisplay				
4	120.562	0.75	control-reward	OutcomeDisplay				
5	121.315		loss-reward	ImageDisplay1		0.0		
5	123.321	0.75	loss-reward	StartDisplay				
5	124.056		loss-reward	ImageDisplay2		0.0		
5	127.316	1.6	loss-reward	ChoiceDisplay	1	1.317	1	1
5	128.653	0.283	loss-reward	ChosenDisplay		0.0		
5	128.921	0.25	loss-reward	TurnDisplay				
5	129.171	0.75	loss-reward	OutcomeDisplay				
6	129.924		win-reward	ImageDisplay1		0.0		
6	131.913	0.75	win-reward	StartDisplay				
6	132.665		win-reward	ImageDisplay2		0.0		
6	135.925	1.6	win-reward	ChoiceDisplay	1	1.382	1	1
6	137.329	0.218	win-reward	ChosenDisplay		0.0		
6	137.53	0.25	win-reward	TurnDisplay				
6	137.78	0.75	win-reward	OutcomeDisplay				
7	138.533		control-reward	ImageDisplay1		0.0		
7	140.773	0.75	control-reward	StartDisplay				
7	141.525		control-reward	ImageDisplay2		0.0		
7	144.534	1.6	control-reward	ChoiceDisplay	1	1.323	1	1
7	145.871	0.277	control-reward	ChosenDisplay		0.0		
7	146.139	0.25	control-reward	TurnDisplay				
7	146.39	0.75	control-reward	OutcomeDisplay				
8	147.142		win-noreward	ImageDisplay1		0.0		
8	149.131	0.75	win-noreward	StartDisplay				
8	149.883		win-noreward	ImageDisplay2		0.0		
8	153.143	1.6	win-noreward	ChoiceDisplay	1	1.196	1	1
8	154.363	0.404	win-noreward	ChosenDisplay		0.0		
8	154.748	0.25	win-noreward	TurnDisplay				
8	154.999	0.75	win-noreward	OutcomeDisplay				
9	155.751		win-noreward	ImageDisplay1		0.0		
9	157.991	0.75	win-noreward	StartDisplay				
9	158.743		win-noreward	ImageDisplay2		0.0		
9	161.752	1.6	win-noreward	ChoiceDisplay	1	1.259	1	1
9	163.039	0.341	win-noreward	ChosenDisplay		0.0		
9	163.357	0.25	win-noreward	TurnDisplay				
9	163.608	0.75	win-noreward	OutcomeDisplay				
10	164.36		loss-reward	ImageDisplay1		0.0		
10	166.6	0.75	loss-reward	StartDisplay				
10	167.352		loss-reward	ImageDisplay2		0.0		
10	170.361	1.6	loss-reward	ChoiceDisplay	1	1.235	1	1
10	171.615	0.365	loss-reward	ChosenDisplay		0.0		
10	171.966	0.25	loss-reward	TurnDisplay				
10	172.217	0.75	loss-reward	OutcomeDisplay				
11	172.969		loss-noreward	ImageDisplay1		0.0		
11	174.958	0.75	loss-noreward	StartDisplay				
11	175.71		loss-noreward	ImageDisplay2		0.0		
11	178.97	1.6	loss-noreward	ChoiceDisplay	1	1.343	1	1
11	180.341	0.257	loss-noreward	ChosenDisplay		0.0		
11	180.575	0.25	loss-noreward	TurnDisplay				
11	180.826	0.75	loss-noreward	OutcomeDisplay				
12	181.578		loss-noreward	ImageDisplay1		0.0		
12	183.818	0.75	loss-noreward	StartDisplay				
12	184.57		loss-noreward	ImageDisplay2		0.0		
12	187.579	1.6	loss-noreward	ChoiceDisplay	1	1.139	1	1
12	188.733	0.461	loss-noreward	ChosenDisplay		0.0		
12	189.184	0.25	loss-noreward	TurnDisplay				
12	189.435	0.75	loss-noreward	OutcomeDisplay				
13	190.187		loss-reward	ImageDisplay1		0.0		
13	192.176	0.75	loss-reward	StartDisplay				
13	192.928		loss-reward	ImageDisplay2		0.0		
13	196.188	1.6	loss-reward	ChoiceDisplay	1	1.267	1	1
13	197.475	0.333	loss-reward	ChosenDisplay		0.0		
13	197.793	0.25	loss-reward	TurnDisplay				
13	198.044	0.75	loss-reward	OutcomeDisplay				
14	198.796		control-reward	ImageDisplay1		0.0		
14	201.036	0.75	control-reward	StartDisplay				
14	201.788		control-reward	ImageDisplay2		0.0		
14	204.797	1.6	control-reward	ChoiceDisplay	1	0.958	1	1
14	205.784	0.642	control-reward	ChosenDisplay		0.0		
14	206.402	0.25	control-reward	TurnDisplay				
14	206.653	0.75	control-reward	OutcomeDisplay				
15	207.405		win-noreward	ImageDisplay1		0.0		
15	209.645	0.75	win-noreward	StartDisplay				
15	210.397		win-noreward	ImageDisplay2		0.0		
15	213.406	1.6	win-noreward	ChoiceDisplay	1	1.242	1	1
15	214.66	0.358	win-noreward	ChosenDisplay		0.0		
15	215.011	0.25	win-noreward	TurnDisplay				
15	215.262	0.75	win-noreward	OutcomeDisplay				
16	216.014		loss-noreward	ImageDisplay1		0.0		
16	218.254	0.75	loss-noreward	StartDisplay				
16	219.006		loss-noreward	ImageDisplay2		0.0		
16	222.015	1.6	loss-noreward	ChoiceDisplay	1	1.129	1	1
16	223.169	0.471	loss-noreward	ChosenDisplay		0.0		
16	223.62	0.25	loss-noreward	TurnDisplay				
16	223.871	0.75	loss-noreward	OutcomeDisplay				
17	224.623		loss-reward	ImageDisplay1		0.0		
17	226.612	0.75	loss-reward	StartDisplay				
17	227.365		loss-reward	ImageDisplay2		0.0		
17	230.624	1.6	loss-reward	ChoiceDisplay	1	1.327	1	1
17	231.978	0.273	loss-reward	ChosenDisplay		0.0		
17	232.229	0.25	loss-reward	TurnDisplay				
17	232.48	0.75	loss-reward	OutcomeDisplay				
18	233.232		control-reward	ImageDisplay1		0.0		
18	235.221	0.75	control-reward	StartDisplay				
18	235.974		control-reward	ImageDisplay2		0.0		
18	239.233	1.6	control-reward	ChoiceDisplay	1	1.173	1	1
18	240.42	0.427	control-reward	ChosenDisplay		0.0		
18	240.838	0.25	control-reward	TurnDisplay				
18	241.089	0.75	control-reward	OutcomeDisplay				
19	241.841		control-noreward	ImageDisplay1		0.0		
19	244.081	0.75	control-noreward	StartDisplay				
19	244.833		control-noreward	ImageDisplay2		0.0		
19	247.842	1.6	control-noreward	ChoiceDisplay	1	1.134	1	1
19	248.996	0.466	control-noreward	ChosenDisplay		0.0		
19	249.447	0.25	control-noreward	TurnDisplay				
19	249.698	0.75	control-noreward	OutcomeDisplay				
20	250.45		loss-noreward	ImageDisplay1		0.0		
20	252.69	0.75	loss-noreward	StartDisplay				
20	253.442		loss-noreward	ImageDisplay2		0.0		
20	256.451	1.6	loss-noreward	ChoiceDisplay	1	1.184	1	1
20	257.655	0.416	loss-noreward	ChosenDisplay		0.0		
20	258.056	0.25	loss-noreward	TurnDisplay				
20	258.307	0.75	loss-noreward	OutcomeDisplay				
21	259.059		control-noreward	ImageDisplay1		0.0		
21	261.048	0.75	control-noreward	StartDisplay				
21	261.801		control-noreward	ImageDisplay2		0.0		
21	265.06	1.6	control-noreward	ChoiceDisplay	1	1.22	1	1
21	266.297	0.38	control-noreward	ChosenDisplay		0.0		
21	266.665	0.25	control-noreward	TurnDisplay				
21	266.916	0.75	control-noreward	OutcomeDisplay				
22	267.668		win-reward	ImageDisplay1		0.0		
22	269.908	0.75	win-reward	StartDisplay				
22	270.661		win-reward	ImageDisplay2		0.0		
22	273.669	1.6	win-reward	ChoiceDisplay	1	1.278	1	1
22	274.973	0.322	win-reward	ChosenDisplay		0.0		
22	275.274	0.25	win-reward	TurnDisplay				
22	275.525	0.75	win-reward	OutcomeDisplay				
23	276.277		loss-noreward	ImageDisplay1		0.0		
23	278.267	0.75	loss-noreward	StartDisplay				
23	279.019		loss-noreward	ImageDisplay2		0.0		
23	282.279	1.6	loss-noreward	ChoiceDisplay	1	1.062	1	1
23	283.365	0.538	loss-noreward	ChosenDisplay		0.0		
23	283.883	0.25	loss-noreward	TurnDisplay				
23	284.134	0.75	loss-noreward	OutcomeDisplay				
24	284.886		control-noreward	ImageDisplay1		0.0		
24	286.876	0.75	control-noreward	StartDisplay				
24	287.628		control-noreward	ImageDisplay2		0.0		
24	290.888	1.6	control-noreward	ChoiceDisplay		0.0		
24	292.476	0.0	control-noreward	ChosenDisplay		0.0		
24	292.492	0.25	control-noreward	TurnDisplay				
24	292.726	0.75	control-noreward	OutcomeDisplay				
25	293.479		loss-noreward	ImageDisplay1		0.0		
25	295.485	0.75	loss-noreward	StartDisplay				
25	296.237		loss-noreward	ImageDisplay2		0.0		
25	299.48	1.6	loss-noreward	ChoiceDisplay	1	1.182	1	1
25	300.683	0.418	loss-noreward	ChosenDisplay		0.0		
25	301.085	0.25	loss-noreward	TurnDisplay				
25	301.335	0.75	loss-noreward	OutcomeDisplay				
26	302.088		loss-reward	ImageDisplay1		0.0		
26	304.328	0.75	loss-reward	StartDisplay				
26	305.08		loss-reward	ImageDisplay2		0.0		
26	308.089	1.6	loss-reward	ChoiceDisplay	1	1.306	1	1
26	309.41	0.294	loss-reward	ChosenDisplay		0.0		
26	309.694	0.25	loss-reward	TurnDisplay				
26	309.945	0.75	loss-reward	OutcomeDisplay				
27	310.697		win-reward	ImageDisplay1		0.0		
27	312.686	0.75	win-reward	StartDisplay				
27	313.438		win-reward	ImageDisplay2		0.0		
27	316.698	1.6	win-reward	ChoiceDisplay	1	1.128	1	1
27	317.851	0.472	win-reward	ChosenDisplay		0.0		
27	318.303	0.25	win-reward	TurnDisplay				
27	318.554	0.75	win-reward	OutcomeDisplay				
28	319.306		win-reward	ImageDisplay1		0.0		
28	321.546	0.75	win-reward	StartDisplay				
28	322.298		win-reward	ImageDisplay2		0.0		
28	325.307	1.6	win-reward	ChoiceDisplay	1	1.286	1	1
28	326.611	0.314	win-reward	ChosenDisplay		0.0		
28	326.912	0.25	win-reward	TurnDisplay				
28	327.163	0.75	win-reward	OutcomeDisplay				
29	327.915		loss-noreward	ImageDisplay1		0.0		
29	329.904	0.75	loss-noreward	StartDisplay				
29	330.656		loss-noreward	ImageDisplay2		0.0		
29	333.916	1.6	loss-noreward	ChoiceDisplay	1	1.255	1	1
29	335.186	0.345	loss-noreward	ChosenDisplay		0.0		
29	335.521	0.25	loss-noreward	TurnDisplay				
29	335.772	0.75	loss-noreward	OutcomeDisplay				
30	336.524		win-noreward	ImageDisplay1		0.0		
30	338.764	0.75	win-noreward	StartDisplay				
30	339.516		win-noreward	ImageDisplay2		0.0		
30	342.525	1.6	win-noreward	ChoiceDisplay	1	1.208	1	1
30	343.745	0.392	win-noreward	ChosenDisplay		0.0		
30	344.13	0.25	win-noreward	TurnDisplay				
30	344.381	0.75	win-noreward	OutcomeDisplay				
31	345.133		control-reward	ImageDisplay1		0.0		
31	347.122	0.75	control-reward	StartDisplay				
31	347.874		control-reward	ImageDisplay2		0.0		
31	351.134	1.6	control-reward	ChoiceDisplay	1	1.108	1	1
31	352.271	0.492	control-reward	ChosenDisplay		0.0		
31	352.739	0.25	control-reward	TurnDisplay				
31	352.99	0.75	control-reward	OutcomeDisplay				
32	353.742		control-reward	ImageDisplay1		0.0		
32	355.731	0.75	control-reward	StartDisplay				
32	356.483		control-reward	ImageDisplay2		0.0		
32	359.743	1.6	control-reward	ChoiceDisplay	1	1.399	1	1
32	361.164	0.201	control-reward	ChosenDisplay		0.0		
32	361.348	0.25	control-reward	TurnDisplay				
32	361.599	0.75	control-reward	OutcomeDisplay				
33	362.351		loss-reward	ImageDisplay1		0.0		
33	364.591	0.75	loss-reward	StartDisplay				
33	365.343		loss-reward	ImageDisplay2		0.0		
33	368.352	1.6	loss-reward	ChoiceDisplay	1	1.171	1	1
33	369.539	0.429	loss-reward	ChosenDisplay		0.0		
33	369.957	0.25	loss-reward	TurnDisplay				
33	370.208	0.75	loss-reward	OutcomeDisplay				
34	370.961		control-reward	ImageDisplay1		0.0		
34	373.2	0.75	control-reward	StartDisplay				
34	373.952		control-reward	ImageDisplay2		0.0		
34	376.961	1.6	control-reward	ChoiceDisplay	1	1.262	1	1
34	378.248	0.338	control-reward	ChosenDisplay		0.0		
34	378.566	0.25	control-reward	TurnDisplay				
34	378.817	0.75	control-reward	OutcomeDisplay				
35	379.569		control-noreward	ImageDisplay1		0.0		
35	381.809	0.75	control-noreward	StartDisplay				
35	382.561		control-noreward	ImageDisplay2		0.0		
35	385.57	1.6	control-noreward	ChoiceDisplay	1	1.214	1	1
35	386.807	0.386	control-noreward	ChosenDisplay		0.0		
35	387.175	0.25	control-noreward	TurnDisplay				
35	387.426	0.75	control-noreward	OutcomeDisplay				
36	388.178		win-reward	ImageDisplay1		0.0		
36	390.418	0.75	win-reward	StartDisplay				
36	391.17		win-reward	ImageDisplay2		0.0		
36	394.179	1.6	win-reward	ChoiceDisplay	1	1.205	1	1
36	395.4	0.395	win-reward	ChosenDisplay		0.0		
36	395.784	0.25	win-reward	TurnDisplay				
36	396.035	0.75	win-reward	OutcomeDisplay				
37	396.787		win-noreward	ImageDisplay1		0.0		
37	399.027	0.75	win-noreward	StartDisplay				
37	399.779		win-noreward	ImageDisplay2		0.0		
37	402.788	1.6	win-noreward	ChoiceDisplay	1	1.175	1	1
37	403.975	0.425	win-noreward	ChosenDisplay		0.0		
37	404.393	0.25	win-noreward	TurnDisplay				
37	404.644	0.75	win-noreward	OutcomeDisplay				
38	405.396		loss-reward	ImageDisplay1		0.0		
38	407.385	0.75	loss-reward	StartDisplay				
38	408.138		loss-reward	ImageDisplay2		0.0		
38	411.397	1.6	loss-reward	ChoiceDisplay	1	1.205	1	1
38	412.618	0.395	loss-reward	ChosenDisplay		0.0		
38	413.002	0.25	loss-reward	TurnDisplay				
38	413.253	0.75	loss-reward	OutcomeDisplay				
39	414.005		loss-reward	ImageDisplay1		0.0		
39	416.245	0.75	loss-reward	StartDisplay				
39	416.997		loss-reward	ImageDisplay2		0.0		
39	420.006	1.6	loss-reward	ChoiceDisplay	1	1.055	1	1
39	421.076	0.545	loss-reward	ChosenDisplay		0.0		
39	421.611	0.25	loss-reward	TurnDisplay				
39	421.862	0.75	loss-reward	OutcomeDisplay				
40	422.614		control-noreward	ImageDisplay1		0.0		
40	424.854	0.75	control-noreward	StartDisplay				
40	425.606		control-noreward	ImageDisplay2		0.0		
40	428.615	1.6	control-noreward	ChoiceDisplay		0.0		
40	430.204	0.0	control-noreward	ChosenDisplay		0.0		
40	430.22	0.25	control-noreward	TurnDisplay				
40	430.454	0.75	control-noreward	OutcomeDisplay				
41	431.207		loss-reward	ImageDisplay1		0.0		
41	433.213	0.75	loss-reward	StartDisplay				
41	433.965		loss-reward	ImageDisplay2		0.0		
41	437.208	1.6	loss-reward	ChoiceDisplay	1	1.268	1	1
41	438.495	0.332	loss-reward	ChosenDisplay		0.0		
41	438.813	0.25	loss-reward	TurnDisplay				
41	439.063	0.75	loss-reward	OutcomeDisplay				
42	439.816		win-noreward	ImageDisplay1		0.0		
42	442.056	0.75	win-noreward	StartDisplay				
42	442.808		win-noreward	ImageDisplay2		0.0		
42	445.817	1.6	win-noreward	ChoiceDisplay	1	1.158	1	1
42	446.987	0.442	win-noreward	ChosenDisplay		0.0		
42	447.422	0.25	win-noreward	TurnDisplay				
42	447.672	0.75	win-noreward	OutcomeDisplay				
43	448.425		loss-reward	ImageDisplay1		0.0		
43	450.414	0.75	loss-reward	StartDisplay				
43	451.166		loss-reward	ImageDisplay2		0.0		
43	454.426	1.6	loss-reward	ChoiceDisplay	1	1.275	1	1
43	455.713	0.325	loss-reward	ChosenDisplay		0.0		
43	456.031	0.25	loss-reward	TurnDisplay				
43	456.281	0.75	loss-reward	OutcomeDisplay				
44	457.034		win-noreward	ImageDisplay1		0.0		
44	459.023	0.75	win-noreward	StartDisplay				
44	459.775		win-noreward	ImageDisplay2		0.0		
44	463.035	1.6	win-noreward	ChoiceDisplay	1	1.158	1	1
44	464.222	0.442	win-noreward	ChosenDisplay		0.0		
44	464.64	0.25	win-noreward	TurnDisplay				
44	464.89	0.75	win-noreward	OutcomeDisplay				
45	465.643		loss-reward	ImageDisplay1		0.0		
45	467.883	0.75	loss-reward	StartDisplay				
45	468.635		loss-reward	ImageDisplay2		0.0		
45	471.644	1.6	loss-reward	ChoiceDisplay	1	1.228	1	1
45	472.898	0.372	loss-reward	ChosenDisplay		0.0		
45	473.249	0.25	loss-reward	TurnDisplay				
45	473.499	0.75	loss-reward	OutcomeDisplay				
46	474.252		loss-noreward	ImageDisplay1		0.0		
46	476.258	0.75	loss-noreward	StartDisplay				
46	476.993		loss-noreward	ImageDisplay2		0.0		
46	480.253	1.6	loss-noreward	ChoiceDisplay	1	1.187	1	1
46	481.457	0.413	loss-noreward	ChosenDisplay		0.0		
46	481.858	0.25	loss-noreward	TurnDisplay				
46	482.108	0.75	loss-noreward	OutcomeDisplay				
47	482.861		control-noreward	ImageDisplay1		0.0		
47	484.85	0.75	control-noreward	StartDisplay				
47	485.602		control-noreward	ImageDisplay2		0.0		
47	488.862	1.6	control-noreward	ChoiceDisplay	1	1.037	1	1
47	489.915	0.563	control-noreward	ChosenDisplay		0.0		
47	490.467	0.25	control-noreward	TurnDisplay				
47	490.718	0.75	control-noreward	OutcomeDisplay				
48	491.47		loss-reward	ImageDisplay1		0.0		
48	493.71	0.75	loss-reward	StartDisplay				
48	494.462		loss-reward	ImageDisplay2		0.0		
48	497.471	1.6	loss-reward	ChoiceDisplay	1	1.141	1	1
48	498.624	0.459	loss-reward	ChosenDisplay		0.0		
48	499.076	0.25	loss-reward	TurnDisplay				
48	499.327	0.75	loss-reward	OutcomeDisplay				
49	500.079		loss-reward	ImageDisplay1		0.0		
49	502.319	0.75	loss-reward	StartDisplay				
49	503.071		loss-reward	ImageDisplay2		0.0		
49	506.08	1.6	loss-reward	ChoiceDisplay	1	1.335	1	1
49	507.434	0.265	loss-reward	ChosenDisplay		0.0		
49	507.685	0.25	loss-reward	TurnDisplay				
49	507.936	0.75	loss-reward	OutcomeDisplay				
50	508.688		control-reward	ImageDisplay1		0.0		
50	510.928	0.75	control-reward	StartDisplay				
50	511.68		control-reward	ImageDisplay2		0.0		
50	514.689	1.6	control-reward	ChoiceDisplay	1	1.292	1	1
50	515.993	0.308	control-reward	ChosenDisplay		0.0		
50	516.294	0.25	control-reward	TurnDisplay				
50	516.545	0.75	control-reward	OutcomeDisplay				
51	517.297		loss-reward	ImageDisplay1		0.0		
51	519.286	0.75	loss-reward	StartDisplay				
51	520.038		loss-reward	ImageDisplay2		0.0		
51	523.298	1.6	loss-reward	ChoiceDisplay	1	1.136	1	1
51	524.452	0.464	loss-reward	ChosenDisplay		0.0		
51	524.903	0.25	loss-reward	TurnDisplay				
51	525.154	0.75	loss-reward	OutcomeDisplay				
52	525.906		win-reward	ImageDisplay1		0.0		
52	527.895	0.75	win-reward	StartDisplay				
52	528.647		win-reward	ImageDisplay2		0.0		
52	531.907	1.6	win-reward	ChoiceDisplay	1	1.288	1	1
52	533.211	0.312	win-reward	ChosenDisplay		0.0		
52	533.512	0.25	win-reward	TurnDisplay				
52	533.763	0.75	win-reward	OutcomeDisplay				
53	534.515		loss-noreward	ImageDisplay1		0.0		
53	536.755	0.75	loss-noreward	StartDisplay				
53	537.507		loss-noreward	ImageDisplay2		0.0		
53	540.516	1.6	loss-noreward	ChoiceDisplay	1	1.339	1	1
53	541.87	0.261	loss-noreward	ChosenDisplay		0.0		
53	542.121	0.25	loss-noreward	TurnDisplay				
53	542.372	0.75	loss-noreward	OutcomeDisplay				
54	543.124		loss-reward	ImageDisplay1		0.0		
54	545.364	0.75	loss-reward	StartDisplay				
54	546.116		loss-reward	ImageDisplay2		0.0		
54	549.125	1.6	loss-reward	ChoiceDisplay	1	1.598	1	1
54	550.713	0.0	loss-reward	ChosenDisplay		0.0		
54	550.73	0.25	loss-reward	TurnDisplay				
54	550.964	0.75	loss-reward	OutcomeDisplay				
55	551.716		loss-noreward	ImageDisplay1		0.0		
55	553.973	0.75	loss-noreward	StartDisplay				
55	554.725		loss-noreward	ImageDisplay2		0.0		
55	557.718	1.6	loss-noreward	ChoiceDisplay	1	1.502	1	1
55	559.239	0.0	loss-noreward	ChosenDisplay		0.0		
55	559.339	0.25	loss-noreward	TurnDisplay				
55	559.473	0.75	loss-noreward	OutcomeDisplay				
56	560.225		win-reward	ImageDisplay1		0.0		
56	562.482	0.75	win-reward	StartDisplay				
56	563.217		win-reward	ImageDisplay2		0.0		
56	566.226	1.6	win-reward	ChoiceDisplay	1	1.048	1	1
56	567.296	0.552	win-reward	ChosenDisplay		0.0		
56	567.831	0.25	win-reward	TurnDisplay				
56	568.082	0.75	win-reward	OutcomeDisplay				
57	568.834		loss-noreward	ImageDisplay1		0.0		
57	570.823	0.75	loss-noreward	StartDisplay				
57	571.576		loss-noreward	ImageDisplay2		0.0		
57	574.835	1.6	loss-noreward	ChoiceDisplay	1	1.169	1	1
57	576.022	0.431	loss-noreward	ChosenDisplay		0.0		
57	576.44	0.25	loss-noreward	TurnDisplay				
57	576.691	0.75	loss-noreward	OutcomeDisplay				
58	577.443		win-reward	ImageDisplay1		0.0		
58	579.432	0.75	win-reward	StartDisplay				
58	580.185		win-reward	ImageDisplay2		0.0		
58	583.444	1.6	win-reward	ChoiceDisplay	1	1.249	1	1
58	584.715	0.351	win-reward	ChosenDisplay		0.0		
58	585.049	0.25	win-reward	TurnDisplay				
58	585.3	0.75	win-reward	OutcomeDisplay				
59	586.052		control-reward	ImageDisplay1		0.0		
59	588.292	0.75	control-reward	StartDisplay				
59	589.044		control-reward	ImageDisplay2		0.0		
59	592.053	1.6	control-reward	ChoiceDisplay	1	1.035	1	1
59	593.107	0.565	control-reward	ChosenDisplay		0.0		
59	593.658	0.25	control-reward	TurnDisplay				
59	593.909	0.75	control-reward	OutcomeDisplay				
60	594.661		control-reward	ImageDisplay1		0.0		
60	596.65	0.75	control-reward	StartDisplay				
60	597.403		control-reward	ImageDisplay2		0.0		
60	600.662	1.6	control-reward	ChoiceDisplay	1	1.143	1	1
60	601.833	0.457	control-reward	ChosenDisplay		0.0		
60	602.267	0.25	control-reward	TurnDisplay				
60	602.518	0.75	control-reward	OutcomeDisplay				
61	603.27		loss-reward	ImageDisplay1		0.0		
61	605.51	0.75	loss-reward	StartDisplay				
61	606.262		loss-reward	ImageDisplay2		0.0		
61	609.271	1.6	loss-reward	ChoiceDisplay	1	1.235	1	1
61	610.525	0.365	loss-reward	ChosenDisplay		0.0		
61	610.876	0.25	loss-reward	TurnDisplay				
61	611.127	0.75	loss-reward	OutcomeDisplay				
62	611.879		win-noreward	ImageDisplay1		0.0		
62	613.869	0.75	win-noreward	StartDisplay				
62	614.621		win-noreward	ImageDisplay2		0.0		
62	617.881	1.6	win-noreward	ChoiceDisplay	1	1.125	1	1
62	619.034	0.475	win-noreward	ChosenDisplay		0.0		
62	619.485	0.25	win-noreward	TurnDisplay				
62	619.736	0.75	win-noreward	OutcomeDisplay				
63	620.488		loss-reward	ImageDisplay1		0.0		
63	622.478	0.75	loss-reward	StartDisplay				
63	623.23		loss-reward	ImageDisplay2		0.0		
63	626.49	1.6	loss-reward	ChoiceDisplay	1	0.888	1	1
63	627.392	0.712	loss-reward	ChosenDisplay		0.0		
63	628.094	0.25	loss-reward	TurnDisplay				
63	628.345	0.75	loss-reward	OutcomeDisplay				
64	629.097		control-reward	ImageDisplay1		0.0		
64	631.087	0.75	control-reward	StartDisplay				
64	631.839		control-reward	ImageDisplay2		0.0		
64	635.099	1.6	control-reward	ChoiceDisplay	1	1.203	1	1
64	636.319	0.397	control-reward	ChosenDisplay		0.0		
64	636.703	0.25	control-reward	TurnDisplay				
64	636.954	0.75	control-reward	OutcomeDisplay				
65	637.706		control-noreward	ImageDisplay1		0.0		
65	639.946	0.75	control-noreward	StartDisplay				
65	640.699		control-noreward	ImageDisplay2		0.0		
65	643.708	1.6	control-noreward	ChoiceDisplay	1	1.335	1	1
65	645.062	0.265	control-noreward	ChosenDisplay		0.0		
65	645.312	0.25	control-noreward	TurnDisplay				
65	645.563	0.75	control-noreward	OutcomeDisplay				
66	646.315		control-noreward	ImageDisplay1		0.0		
66	648.305	0.75	control-noreward	StartDisplay				
66	649.057		control-noreward	ImageDisplay2		0.0		
66	652.317	1.6	control-noreward	ChoiceDisplay	1	1.38	1	1
66	653.721	0.22	control-noreward	ChosenDisplay		0.0		
66	653.921	0.25	control-noreward	TurnDisplay				
66	654.172	0.75	control-noreward	OutcomeDisplay				
67	654.924		win-reward	ImageDisplay1		0.0		
67	657.164	0.75	win-reward	StartDisplay				
67	657.917		win-reward	ImageDisplay2		0.0		
67	660.926	1.6	win-reward	ChoiceDisplay	1	1.266	1	1
67	662.213	0.334	win-reward	ChosenDisplay		0.0		
67	662.53	0.25	win-reward	TurnDisplay				
67	662.781	0.75	win-reward	OutcomeDisplay				
68	663.533		control-noreward	ImageDisplay1		0.0		
68	665.774	0.75	control-noreward	StartDisplay				
68	666.526		control-noreward	ImageDisplay2		0.0		
68	669.535	1.6	control-noreward	ChoiceDisplay	1	1.229	1	1
68	670.788	0.371	control-noreward	ChosenDisplay		0.0		
68	671.14	0.25	control-noreward	TurnDisplay				
68	671.39	0.75	control-noreward	OutcomeDisplay				
69	672.143		control-noreward	ImageDisplay1		0.0		
69	674.132	0.75	control-noreward	StartDisplay				
69	674.884		control-noreward	ImageDisplay2		0.0		
69	678.144	1.6	control-noreward	ChoiceDisplay	1	1.284	1	1
69	679.448	0.316	control-noreward	ChosenDisplay		0.0		
69	679.749	0.25	control-noreward	TurnDisplay				
69	679.999	0.75	control-noreward	OutcomeDisplay				
70	680.752		win-reward	ImageDisplay1		0.0		
70	682.741	0.75	win-reward	StartDisplay				
70	683.493		win-reward	ImageDisplay2		0.0		
70	686.753	1.6	win-reward	ChoiceDisplay	1	1.209	1	1
70	687.99	0.391	win-reward	ChosenDisplay		0.0		
70	688.358	0.25	win-reward	TurnDisplay				
70	688.608	0.75	win-reward	OutcomeDisplay				
71	689.361		loss-reward	ImageDisplay1		0.0		
71	691.35	0.75	loss-reward	StartDisplay				
71	692.102		loss-reward	ImageDisplay2		0.0		
71	695.362	1.6	loss-reward	ChoiceDisplay	1	1.043	1	1
71	696.432	0.557	loss-reward	ChosenDisplay		0.0		
71	696.967	0.25	loss-reward	TurnDisplay				
71	697.217	0.75	loss-reward	OutcomeDisplay				
72	697.97		win-noreward	ImageDisplay1		0.0		
72	699.959	0.75	win-noreward	StartDisplay				
72	700.711		win-noreward	ImageDisplay2		0.0		
72	703.971	1.6	win-noreward	ChoiceDisplay	1	1.181	1	1
72	705.174	0.419	win-noreward	ChosenDisplay		0.0		
72	705.576	0.25	win-noreward	TurnDisplay				
72	705.826	0.75	win-noreward	OutcomeDisplay				
73	706.579		win-reward	ImageDisplay1		0.0		
73	708.585	0.75	win-reward	StartDisplay				
73	709.32		win-reward	ImageDisplay2		0.0		
73	712.58	1.6	win-reward	ChoiceDisplay	1	1.227	1	1
73	713.834	0.373	win-reward	ChosenDisplay		0.0		
73	714.185	0.25	win-reward	TurnDisplay				
73	714.435	0.75	win-reward	OutcomeDisplay				
74	715.188		win-reward	ImageDisplay1		0.0		
74	717.428	0.75	win-reward	StartDisplay				
74	718.18		win-reward	ImageDisplay2		0.0		
74	721.189	1.6	win-reward	ChoiceDisplay	1	1.289	1	1
74	722.493	0.311	win-reward	ChosenDisplay		0.0		
74	722.794	0.25	win-reward	TurnDisplay				
74	723.045	0.75	win-reward	OutcomeDisplay				
75	723.797		control-reward	ImageDisplay1		0.0		
75	725.786	0.75	control-reward	StartDisplay				
75	726.538		control-reward	ImageDisplay2		0.0		
75	729.798	1.6	control-reward	ChoiceDisplay	1	1.373	1	1
75	731.185	0.227	control-reward	ChosenDisplay		0.0		
75	731.403	0.25	control-reward	TurnDisplay				
75	731.654	0.75	control-reward	OutcomeDisplay				
76	732.406		control-reward	ImageDisplay1		0.0		
76	734.646	0.75	control-reward	StartDisplay				
76	735.398		control-reward	ImageDisplay2		0.0		
76	738.407	1.6	control-reward	ChoiceDisplay	1	1.221	1	1
76	739.644	0.379	control-reward	ChosenDisplay		0.0		
76	740.012	0.25	control-reward	TurnDisplay				
76	740.263	0.75	control-reward	OutcomeDisplay				
77	741.015		control-noreward	ImageDisplay1		0.0		
77	743.004	0.75	control-noreward	StartDisplay				
77	743.756		control-noreward	ImageDisplay2		0.0		
77	747.016	1.6	control-noreward	ChoiceDisplay	1	1.276	1	1
77	748.32	0.324	control-noreward	ChosenDisplay		0.0		
77	748.621	0.25	control-noreward	TurnDisplay				
77	748.872	0.75	control-noreward	OutcomeDisplay				
78	749.624		win-reward	ImageDisplay1		0.0		
78	751.864	0.75	win-reward	StartDisplay				
78	752.616		win-reward	ImageDisplay2		0.0		
78	755.625	1.6	win-reward	ChoiceDisplay	1	1.056	1	1
78	756.695	0.544	win-reward	ChosenDisplay		0.0		
78	757.23	0.25	win-reward	TurnDisplay				
78	757.481	0.75	win-reward	OutcomeDisplay				
79	758.233		win-reward	ImageDisplay1		0.0		
79	760.473	0.75	win-reward	StartDisplay				
79	761.225		win-reward	ImageDisplay2		0.0		
79	764.234	1.6	win-reward	ChoiceDisplay	1	1.207	1	1
79	765.454	0.393	win-reward	ChosenDisplay		0.0		
79	765.839	0.25	win-reward	TurnDisplay				
79	766.09	0.75	win-reward	OutcomeDisplay				
80	766.842		control-noreward	ImageDisplay1		0.0		
80	769.082	0.75	control-noreward	StartDisplay				
80	769.834		control-noreward	ImageDisplay2		0.0		
80	772.843	1.6	control-noreward	ChoiceDisplay	1	1.304	1	1
80	774.164	0.296	control-noreward	ChosenDisplay		0.0		
80	774.448	0.25	control-noreward	TurnDisplay				
80	774.699	0.75	control-noreward	OutcomeDisplay				
81	775.451		control-noreward	ImageDisplay1		0.0		
81	777.691	0.75	control-noreward	StartDisplay				
81	778.443		control-noreward	ImageDisplay2		0.0		
81	781.452	1.6	control-noreward	ChoiceDisplay	1	1.262	1	1
81	782.739	0.338	control-noreward	ChosenDisplay		0.0		
81	783.057	0.25	control-noreward	TurnDisplay				
81	783.308	0.75	control-noreward	OutcomeDisplay				
82	784.06		loss-noreward	ImageDisplay1		0.0		
82	786.3	0.75	loss-noreward	StartDisplay				
82	787.052		loss-noreward	ImageDisplay2		0.0		
82	790.061	1.6	loss-noreward	ChoiceDisplay	1	1.389	1	1
82	791.465	0.211	loss-noreward	ChosenDisplay		0.0		
82	791.666	0.25	loss-noreward	TurnDisplay				
82	791.917	0.75	loss-noreward	OutcomeDisplay				
83	792.669		win-noreward	ImageDisplay1		0.0		
83	794.909	0.75	win-noreward	StartDisplay				
83	795.661		win-noreward	ImageDisplay2		0.0		
83	798.67	1.6	win-noreward	ChoiceDisplay	1	1.33	1	1
83	800.024	0.27	win-noreward	ChosenDisplay		0.0		
83	800.275	0.25	win-noreward	TurnDisplay				
83	800.526	0.75	win-noreward	OutcomeDisplay				
84	801.278		control-reward	ImageDisplay1		0.0		
84	803.518	0.75	control-reward	StartDisplay				
84	804.27		control-reward	ImageDisplay2		0.0		
84	807.279	1.6	control-reward	ChoiceDisplay	1	1.218	1	1
84	808.516	0.382	control-reward	ChosenDisplay		0.0		
84	808.884	0.25	control-reward	TurnDisplay				
84	809.135	0.75	control-reward	OutcomeDisplay				
85	809.887		win-noreward	ImageDisplay1		0.0		
85	812.127	0.75	win-noreward	StartDisplay				
85	812.879		win-noreward	ImageDisplay2		0.0		
85	815.888	1.6	win-noreward	ChoiceDisplay	1	0.929	1	1
85	816.841	0.671	win-noreward	ChosenDisplay		0.0		
85	817.493	0.25	win-noreward	TurnDisplay				
85	817.744	0.75	win-noreward	OutcomeDisplay				
86	818.496		win-reward	ImageDisplay1		0.0		
86	820.485	0.75	win-reward	StartDisplay				
86	821.238		win-reward	ImageDisplay2		0.0		
86	824.497	1.6	win-reward	ChoiceDisplay	1	1.285	1	1
86	825.801	0.315	win-reward	ChosenDisplay		0.0		
86	826.102	0.25	win-reward	TurnDisplay				
86	826.353	0.75	win-reward	OutcomeDisplay				
87	827.105		control-noreward	ImageDisplay1		0.0		
87	829.345	0.75	control-noreward	StartDisplay				
87	830.097		control-noreward	ImageDisplay2		0.0		
87	833.107	1.6	control-noreward	ChoiceDisplay	1	1.117	1	1
87	834.243	0.483	control-noreward	ChosenDisplay		0.0		
87	834.711	0.25	control-noreward	TurnDisplay				
87	834.962	0.75	control-noreward	OutcomeDisplay				
88	835.714		control-noreward	ImageDisplay1		0.0		
88	837.704	0.75	control-noreward	StartDisplay				
88	838.456		control-noreward	ImageDisplay2		0.0		
88	841.716	1.6	control-noreward	ChoiceDisplay	1	1.213	1	1
88	842.952	0.387	control-noreward	ChosenDisplay		0.0		
88	843.32	0.25	control-noreward	TurnDisplay				
88	843.571	0.75	control-noreward	OutcomeDisplay				
89	844.323		control-reward	ImageDisplay1		0.0		
89	846.313	0.75	control-reward	StartDisplay				
89	847.065		control-reward	ImageDisplay2		0.0		
89	850.325	1.6	control-reward	ChoiceDisplay		0.0		
89	851.913	0.0	control-reward	ChosenDisplay		0.0		
89	851.929	0.25	control-reward	TurnDisplay				
89	852.163	0.75	control-reward	OutcomeDisplay				
90	852.916		control-reward	ImageDisplay1		0.0		
90	855.172	0.75	control-reward	StartDisplay				
90	855.925		control-reward	ImageDisplay2		0.0		
90	858.917	1.6	control-reward	ChoiceDisplay	1	1.308	1	1
90	860.237	0.292	control-reward	ChosenDisplay		0.0		
90	860.522	0.25	control-reward	TurnDisplay				
90	860.772	0.75	control-reward	OutcomeDisplay				
91	861.525		win-noreward	ImageDisplay1		0.0		
91	863.514	0.75	win-noreward	StartDisplay				
91	864.266		win-noreward	ImageDisplay2		0.0		
91	867.526	1.6	win-noreward	ChoiceDisplay	1	1.076	1	1
91	868.629	0.524	win-noreward	ChosenDisplay		0.0		
91	869.131	0.25	win-noreward	TurnDisplay				
91	869.381	0.75	win-noreward	OutcomeDisplay				
92	870.134		loss-noreward	ImageDisplay1		0.0		
92	872.123	0.75	loss-noreward	StartDisplay				
92	872.875		loss-noreward	ImageDisplay2		0.0		
92	876.135	1.6	loss-noreward	ChoiceDisplay	1	1.179	1	1
92	877.339	0.421	loss-noreward	ChosenDisplay		0.0		
92	877.74	0.25	loss-noreward	TurnDisplay				
92	877.991	0.75	loss-noreward	OutcomeDisplay				
93	878.743		win-reward	ImageDisplay1		0.0		
93	880.732	0.75	win-reward	StartDisplay				
93	881.484		win-reward	ImageDisplay2		0.0		
93	884.744	1.6	win-reward	ChoiceDisplay	1	1.251	1	1
93	886.014	0.349	win-reward	ChosenDisplay		0.0		
93	886.349	0.25	win-reward	TurnDisplay				
93	886.6	0.75	win-reward	OutcomeDisplay				
94	887.352		win-noreward	ImageDisplay1		0.0		
94	889.341	0.75	win-noreward	StartDisplay				
94	890.093		win-noreward	ImageDisplay2		0.0		
94	893.353	1.6	win-noreward	ChoiceDisplay	1	1.302	1	1
94	894.674	0.298	win-noreward	ChosenDisplay		0.0		
94	894.958	0.25	win-noreward	TurnDisplay				
94	895.209	0.75	win-noreward	OutcomeDisplay				
95	895.961		win-noreward	ImageDisplay1		0.0		
95	897.95	0.75	win-noreward	StartDisplay				
95	898.702		win-noreward	ImageDisplay2		0.0		
95	901.962	1.6	win-noreward	ChoiceDisplay	1	1.218	1	1
95	903.199	0.382	win-noreward	ChosenDisplay		0.0		
95	903.567	0.25	win-noreward	TurnDisplay				
95	903.818	0.75	win-noreward	OutcomeDisplay				
