onset	duration	trial_type	response_time	stim_file	accuracy
52.707	1.0	go	0.703	Go_X	1.0
55.247	1.0	go	0.421	Go_O	1.0
57.772	1.0	go	0.337	Go_O	1.0
60.313	1.0	go	0.357	Go_X	1.0
62.837	1.0	go	0.39	Go_O	1.0
65.361	1.0	go	0.372	Go_X	1.0
67.885	0.25	stop	0.351	Go_O	0.0
70.409	1.0	go	0.42	Go_X	1.0
72.934	0.2	stop	0.0	Go_X	1.0
75.475	1.0	go	0.27	Go_O	1.0
77.999	1.0	go	0.349	Go_O	1.0
80.523	1.0	go	0.385	Go_X	1.0
83.047	0.25	stop	0.361	Go_O	0.0
85.571	1.0	go	0.401	Go_O	1.0
88.096	1.0	go	0.605	Go_X	1.0
90.62	0.2	stop	0.0	Go_X	1.0
93.161	0.25	stop	0.269	Go_O	0.0
95.702	1.0	go	0.411	Go_X	1.0
98.242	1.0	go	0.35	Go_O	1.0
100.767	0.2	stop	0.0	Go_X	1.0
103.308	1.0	go	0.474	Go_X	1.0
105.832	1.0	go	0.631	Go_O	1.0
108.356	0.25	stop	0.355	Go_O	0.0
110.88	1.0	go	0.33	Go_X	1.0
113.404	1.0	go	0.297	Go_O	1.0
115.929	0.2	stop	0.0	Go_X	1.0
118.47	1.0	go	0.403	Go_X	1.0
120.994	1.0	go	0.633	Go_O	1.0
123.518	0.25	stop	0.0	Go_O	1.0
126.059	1.0	go	0.414	Go_O	1.0
128.583	1.0	go	0.391	Go_X	1.0
131.107	1.0	go	0.459	Go_O	1.0
133.632	1.0	go	0.437	Go_X	1.0
136.156	1.0	go	0.435	Go_X	1.0
138.68	0.3	stop	0.0	Go_X	1.0
141.221	1.0	go	0.373	Go_O	1.0
143.762	1.0	go	0.332	Go_O	1.0
146.286	1.0	go	0.4	Go_X	1.0
148.81	1.0	go	0.304	Go_O	1.0
151.334	1.0	go	0.28	Go_X	1.0
153.875	0.35	stop	0.321	Go_O	0.0
156.416	1.0	go	0.344	Go_O	1.0
158.94	1.0	go	0.357	Go_X	1.0
161.465	1.0	go	0.316	Go_O	1.0
163.989	1.0	go	0.286	Go_X	1.0
166.513	1.0	go	0.57	Go_O	1.0
169.037	1.0	go	0.301	Go_X	1.0
171.561	0.3	stop	0.0	Go_X	1.0
174.086	1.0	go	0.29	Go_O	1.0
176.61	1.0	go	0.35	Go_X	1.0
179.134	0.35	stop	0.459	Go_O	0.0
181.675	1.0	go	0.345	Go_O	1.0
184.199	0.3	stop	0.365	Go_X	0.0
186.74	0.25	stop	0.312	Go_O	0.0
189.281	1.0	go	0.344	Go_X	1.0
191.805	1.0	go	0.523	Go_X	1.0
194.329	1.0	go	0.418	Go_O	1.0
196.854	1.0	go	0.308	Go_O	1.0
199.378	0.2	stop	0.36	Go_X	0.0
201.919	1.0	go	0.563	Go_X	1.0
204.443	0.15	stop	0.0	Go_O	1.0
206.984	1.0	go	0.391	Go_X	1.0
209.508	1.0	go	0.392	Go_O	1.0
212.049	1.0	go	0.441	Go_X	1.0
214.573	1.0	go	0.529	Go_O	1.0
217.097	1.0	go	0.362	Go_O	1.0
219.622	1.0	go	0.286	Go_X	1.0
222.146	1.0	go	0.257	Go_O	1.0
224.67	1.0	go	0.416	Go_X	1.0
227.194	1.0	go	0.431	Go_O	1.0
229.718	0.2	stop	0.0	Go_X	1.0
232.259	1.0	go	0.476	Go_X	1.0
234.783	1.0	go	0.393	Go_O	1.0
237.324	1.0	go	0.352	Go_X	1.0
239.849	0.25	stop	0.35	Go_O	0.0
242.39	1.0	go	0.522	Go_X	1.0
244.914	1.0	go	0.328	Go_O	1.0
247.455	1.0	go	0.417	Go_X	1.0
249.979	1.0	go	0.339	Go_O	1.0
252.503	1.0	go	0.376	Go_O	1.0
255.027	1.0	go	0.423	Go_X	1.0
257.551	0.2	stop	0.0	Go_X	1.0
260.092	1.0	go	0.439	Go_X	1.0
262.617	1.0	go	0.432	Go_O	1.0
265.158	0.25	stop	0.0	Go_O	1.0
267.698	1.0	go	0.4	Go_X	1.0
270.239	1.0	go	0.449	Go_O	1.0
272.764	0.3	stop	0.496	Go_X	0.0
275.304	1.0	go	0.537	Go_X	1.0
277.829	0.25	stop	0.0	Go_O	1.0
280.37	1.0	go	0.767	Go_O	1.0
282.894	1.0	go	0.634	Go_X	1.0
285.435	1.0	go	0.493	Go_O	1.0
287.976	1.0	go	0.637	Go_X	1.0
290.5	1.0	go	0.547	Go_O	1.0
293.024	0.3	stop	0.424	Go_X	0.0
295.565	0.25	stop	0.0	Go_O	1.0
298.106	1.0	go	0.436	Go_X	1.0
300.647	1.0	go	0.43	Go_O	1.0
303.171	0.3	stop	0.0	Go_X	1.0
305.712	1.0	go	0.487	Go_X	1.0
308.236	1.0	go	0.66	Go_O	1.0
310.76	1.0	go	0.341	Go_O	1.0
313.285	1.0	go	0.481	Go_X	1.0
315.809	1.0	go	0.441	Go_O	1.0
318.333	1.0	go	0.383	Go_X	1.0
320.874	0.35	stop	0.478	Go_O	0.0
323.415	1.0	go	0.43	Go_O	1.0
325.939	1.0	go	0.743	Go_X	1.0
328.463	1.0	go	0.567	Go_O	1.0
330.987	1.0	go	0.614	Go_X	1.0
333.512	1.0	go	0.378	Go_X	1.0
336.036	0.3	stop	0.325	Go_X	0.0
338.577	1.0	go	0.369	Go_O	1.0
341.101	1.0	go	0.439	Go_X	1.0
343.625	1.0	go	0.419	Go_O	1.0
346.149	1.0	go	0.673	Go_O	1.0
348.674	0.25	stop	0.316	Go_O	0.0
351.198	1.0	go	0.349	Go_X	1.0
353.722	1.0	go	0.363	Go_O	1.0
356.246	0.2	stop	0.0	Go_X	1.0
358.787	1.0	go	0.496	Go_X	1.0
361.311	0.25	stop	0.285	Go_O	0.0
363.835	1.0	go	0.348	Go_X	1.0
366.36	1.0	go	0.274	Go_O	1.0
368.884	1.0	go	0.354	Go_X	1.0
371.408	1.0	go	0.409	Go_O	1.0
373.932	1.0	go	0.331	Go_X	1.0
376.456	1.0	go	0.342	Go_O	1.0
378.997	1.0	go	0.39	Go_O	1.0
381.538	0.2	stop	0.0	Go_X	1.0
384.063	1.0	go	0.365	Go_X	1.0
386.587	1.0	go	0.289	Go_O	1.0
389.111	1.0	go	0.499	Go_X	1.0
391.635	0.25	stop	0.0	Go_O	1.0
394.176	1.0	go	0.584	Go_X	1.0
396.7	1.0	go	0.756	Go_O	1.0
399.224	1.0	go	0.783	Go_O	1.0
401.749	1.0	go	0.719	Go_X	0.0
404.273	0.3	stop	0.386	Go_X	0.0
406.814	1.0	go	0.388	Go_O	1.0
409.338	1.0	go	0.336	Go_X	1.0
411.862	0.25	stop	0.369	Go_O	0.0
414.403	1.0	go	0.312	Go_O	1.0
416.927	1.0	go	0.39	Go_X	1.0
419.451	0.2	stop	0.0	Go_X	1.0
421.992	1.0	go	0.433	Go_X	1.0
424.517	1.0	go	0.48	Go_O	1.0
427.041	0.25	stop	0.0	Go_O	1.0
429.582	1.0	go	0.294	Go_O	1.0
432.106	1.0	go	0.379	Go_X	1.0
434.63	1.0	go	0.339	Go_X	1.0
437.171	1.0	go	0.278	Go_O	1.0
439.695	1.0	go	0.365	Go_X	1.0
442.219	1.0	go	0.321	Go_O	1.0
444.744	0.3	stop	0.347	Go_X	0.0
447.285	1.0	go	0.289	Go_O	1.0
449.809	0.25	stop	0.0	Go_O	1.0
452.333	1.0	go	0.371	Go_X	1.0
454.857	1.0	go	0.457	Go_O	1.0
457.381	1.0	go	0.503	Go_X	1.0
459.906	1.0	go	0.299	Go_O	1.0
462.43	1.0	go	0.385	Go_X	1.0
464.954	0.3	stop	0.413	Go_X	0.0
467.495	1.0	go	0.399	Go_O	1.0
470.019	1.0	go	0.766	Go_X	1.0
472.56	1.0	go	0.414	Go_O	1.0
475.084	0.25	stop	0.0	Go_O	1.0
477.625	0.3	stop	0.307	Go_X	0.0
480.166	0.25	stop	0.334	Go_O	0.0
482.69	1.0	go	0.336	Go_X	1.0
485.231	0.2	stop	0.0	Go_X	1.0
487.755	1.0	go	0.399	Go_X	1.0
490.28	1.0	go	0.288	Go_O	1.0
492.804	1.0	go	0.301	Go_O	1.0
495.328	1.0	go	0.336	Go_X	1.0
497.852	1.0	go	0.326	Go_O	1.0
500.376	1.0	go	0.378	Go_X	1.0
502.901	1.0	go	0.398	Go_X	1.0
505.425	1.0	go	0.367	Go_O	1.0
507.949	0.25	stop	0.318	Go_O	0.0
510.49	1.0	go	0.301	Go_X	1.0
513.014	1.0	go	0.53	Go_O	1.0
515.538	0.2	stop	0.0	Go_X	1.0
518.063	1.0	go	0.546	Go_X	0.0
520.587	1.0	go	0.397	Go_O	1.0
523.111	1.0	go	0.378	Go_O	1.0
525.635	1.0	go	0.283	Go_X	1.0
528.159	1.0	go	0.318	Go_O	1.0
530.7	0.25	stop	0.35	Go_O	0.0
533.225	1.0	go	0.32	Go_X	1.0
535.765	1.0	go	0.417	Go_X	1.0
538.29	1.0	go	0.377	Go_O	1.0
540.831	0.2	stop	0.0	Go_X	1.0
543.371	1.0	go	0.48	Go_X	1.0
545.896	0.25	stop	0.329	Go_O	0.0
548.437	1.0	go	0.329	Go_O	1.0
550.978	1.0	go	0.582	Go_O	1.0
553.502	1.0	go	0.44	Go_X	1.0
556.026	1.0	go	0.473	Go_X	1.0
558.567	1.0	go	0.605	Go_O	1.0
561.091	1.0	go	0.561	Go_X	1.0
563.615	1.0	go	0.413	Go_O	1.0
566.156	0.2	stop	0.287	Go_X	0.0
568.697	1.0	go	0.379	Go_X	1.0
571.221	1.0	go	0.447	Go_O	1.0
573.745	1.0	go	0.612	Go_O	1.0
576.286	1.0	go	0.353	Go_X	1.0
578.811	0.15	stop	0.0	Go_O	1.0
581.352	1.0	go	0.374	Go_O	1.0
583.876	0.2	stop	0.446	Go_X	0.0
586.417	1.0	go	0.452	Go_X	1.0
588.941	1.0	go	0.428	Go_X	1.0
591.465	0.15	stop	0.0	Go_O	1.0
594.006	1.0	go	0.269	Go_O	1.0
596.533	1.0	go	0.359	Go_X	1.0
599.054	1.0	go	0.495	Go_O	1.0
601.579	1.0	go	0.346	Go_X	1.0
604.103	1.0	go	0.471	Go_O	1.0
606.627	1.0	go	0.398	Go_O	1.0
609.168	1.0	go	0.43	Go_X	1.0
611.692	1.0	go	0.322	Go_O	1.0
614.216	1.0	go	0.531	Go_X	1.0
616.741	1.0	go	0.608	Go_O	1.0
619.265	0.2	stop	0.0	Go_X	1.0
621.806	1.0	go	0.452	Go_X	1.0
624.33	1.0	go	0.367	Go_O	1.0
626.854	0.25	stop	0.0	Go_O	1.0
629.378	1.0	go	0.613	Go_X	1.0
631.902	0.3	stop	0.409	Go_X	0.0
634.443	1.0	go	0.0	Go_X	0.0
636.968	1.0	go	0.313	Go_O	1.0
639.509	0.25	stop	0.386	Go_O	0.0
642.033	1.0	go	0.36	Go_X	1.0
644.557	0.2	stop	0.0	Go_X	1.0
647.098	1.0	go	0.286	Go_O	1.0
649.622	1.0	go	0.308	Go_O	1.0
652.146	1.0	go	0.376	Go_X	1.0
654.687	0.25	stop	0.0	Go_O	1.0
657.211	1.0	go	0.569	Go_X	1.0
659.736	1.0	go	0.428	Go_O	1.0
662.26	1.0	go	0.557	Go_O	1.0
664.784	1.0	go	0.343	Go_X	1.0
667.308	0.3	stop	0.53	Go_X	0.0
669.832	1.0	go	0.517	Go_X	1.0
672.357	1.0	go	0.418	Go_O	1.0
674.881	0.25	stop	0.403	Go_O	0.0
677.422	1.0	go	0.38	Go_X	1.0
679.946	1.0	go	0.476	Go_O	1.0
682.47	1.0	go	0.425	Go_O	1.0
685.011	1.0	go	0.486	Go_X	1.0
687.535	0.2	stop	0.0	Go_X	1.0
690.059	1.0	go	0.423	Go_O	1.0
692.6	0.25	stop	0.0	Go_O	1.0
695.125	1.0	go	0.584	Go_X	1.0
697.649	1.0	go	0.433	Go_X	1.0
700.173	0.3	stop	0.348	Go_X	0.0
702.714	1.0	go	0.335	Go_O	1.0
705.238	1.0	go	0.391	Go_O	1.0
707.762	1.0	go	0.346	Go_X	1.0
710.286	1.0	go	0.34	Go_X	1.0
712.811	0.25	stop	0.0	Go_O	1.0
715.352	1.0	go	0.0	Go_O	0.0
717.876	0.3	stop	0.331	Go_X	0.0
720.417	1.0	go	0.31	Go_O	1.0
722.941	1.0	go	0.505	Go_X	1.0
725.465	1.0	go	0.311	Go_O	1.0
727.989	1.0	go	0.376	Go_X	1.0
730.514	1.0	go	0.342	Go_X	1.0
733.038	1.0	go	0.323	Go_O	1.0
735.562	0.25	stop	0.328	Go_O	0.0
738.086	1.0	go	0.306	Go_O	1.0
740.61	1.0	go	0.358	Go_X	1.0
743.135	0.2	stop	0.0	Go_X	1.0
745.676	1.0	go	0.367	Go_X	1.0
748.2	1.0	go	0.437	Go_O	1.0
750.724	0.25	stop	0.377	Go_O	0.0
753.248	1.0	go	0.948	Go_X	1.0
755.772	1.0	go	0.305	Go_O	1.0
758.296	1.0	go	0.317	Go_O	1.0
760.821	1.0	go	0.306	Go_X	1.0
763.345	0.2	stop	0.0	Go_X	1.0
765.869	1.0	go	0.275	Go_O	1.0
768.393	0.25	stop	0.312	Go_O	0.0
770.918	1.0	go	0.347	Go_X	1.0
773.442	1.0	go	0.386	Go_X	1.0
775.966	1.0	go	0.439	Go_O	1.0
778.49	1.0	go	0.3	Go_X	1.0
781.014	1.0	go	0.511	Go_O	1.0
783.539	0.2	stop	0.532	Go_X	0.0
786.063	1.0	go	0.309	Go_O	1.0
788.587	1.0	go	0.513	Go_X	1.0
791.128	0.15	stop	0.273	Go_O	0.0
793.652	0.1	stop	0.0	Go_X	1.0
796.176	1.0	go	0.316	Go_O	1.0
798.7	1.0	go	0.307	Go_X	1.0
801.225	1.0	go	0.35	Go_O	1.0
803.749	1.0	go	0.409	Go_X	1.0
806.29	0.15	stop	0.0	Go_O	1.0
808.831	1.0	go	0.472	Go_O	1.0
