onset	duration	trial_type	response_time	stim_file	accuracy
101.975	1.0	go	0.0	Go_X	0.0
104.499	1.0	go	0.43	Go_O	0.0
107.023	1.0	go	0.416	Go_X	1.0
109.547	1.0	go	0.438	Go_O	1.0
112.072	1.0	go	0.855	Go_O	0.0
114.596	1.0	go	0.461	Go_X	1.0
117.12	0.25	stop	0.373	Go_O	0.0
119.644	1.0	go	0.545	Go_X	1.0
122.168	0.2	stop	0.499	Go_X	0.0
124.692	1.0	go	0.546	Go_O	1.0
127.217	1.0	go	0.3	Go_X	1.0
129.741	1.0	go	0.676	Go_O	1.0
132.265	0.15	stop	0.0	Go_O	1.0
134.789	1.0	go	0.707	Go_O	0.0
137.313	1.0	go	0.36	Go_X	0.0
139.837	0.2	stop	0.393	Go_X	0.0
142.362	0.15	stop	0.0	Go_O	1.0
144.886	1.0	go	0.76	Go_O	1.0
147.41	1.0	go	0.359	Go_X	1.0
149.934	0.2	stop	0.0	Go_X	1.0
152.458	1.0	go	0.729	Go_X	0.0
154.983	1.0	go	0.615	Go_O	1.0
157.507	0.25	stop	0.0	Go_O	1.0
160.031	1.0	go	0.45	Go_O	1.0
162.555	1.0	go	0.503	Go_X	1.0
165.079	0.3	stop	0.0	Go_X	1.0
167.603	1.0	go	0.34	Go_X	0.0
170.128	1.0	go	0.473	Go_O	1.0
172.652	0.35	stop	0.0	Go_O	1.0
175.176	1.0	go	0.695	Go_X	1.0
177.7	1.0	go	0.682	Go_O	1.0
180.224	1.0	go	0.566	Go_O	1.0
182.748	1.0	go	0.0	Go_X	0.0
185.273	1.0	go	0.471	Go_O	1.0
187.797	0.4	stop	0.589	Go_X	0.0
190.321	1.0	go	0.579	Go_X	1.0
192.845	1.0	go	0.48	Go_X	1.0
195.369	1.0	go	0.57	Go_O	1.0
197.893	1.0	go	0.506	Go_O	1.0
200.418	1.0	go	0.907	Go_X	0.0
202.942	0.35	stop	0.0	Go_O	1.0
205.466	1.0	go	0.481	Go_X	0.0
207.99	1.0	go	0.493	Go_O	1.0
210.514	1.0	go	0.951	Go_O	1.0
213.038	1.0	go	0.379	Go_X	1.0
215.563	1.0	go	0.44	Go_O	1.0
218.087	1.0	go	0.589	Go_X	1.0
220.611	0.4	stop	0.357	Go_X	0.0
223.135	1.0	go	0.538	Go_O	1.0
225.659	1.0	go	0.306	Go_X	1.0
228.184	0.35	stop	0.552	Go_O	0.0
230.708	1.0	go	0.372	Go_X	1.0
233.232	0.3	stop	0.364	Go_X	0.0
235.756	0.25	stop	0.0	Go_O	1.0
238.297	1.0	go	0.652	Go_O	1.0
240.821	1.0	go	0.447	Go_X	0.0
243.345	1.0	go	0.378	Go_O	1.0
245.869	1.0	go	0.435	Go_O	1.0
248.394	0.3	stop	0.0	Go_X	1.0
250.934	1.0	go	0.649	Go_X	1.0
253.459	0.35	stop	0.408	Go_O	0.0
255.983	1.0	go	0.561	Go_X	0.0
258.507	1.0	go	0.518	Go_O	0.0
261.031	1.0	go	0.519	Go_X	0.0
263.555	1.0	go	0.441	Go_O	1.0
266.08	1.0	go	0.724	Go_X	1.0
268.604	1.0	go	0.832	Go_O	1.0
271.128	1.0	go	0.486	Go_X	1.0
273.652	1.0	go	0.72	Go_O	1.0
276.176	1.0	go	0.458	Go_X	1.0
278.7	0.3	stop	0.0	Go_X	1.0
281.225	1.0	go	0.964	Go_O	1.0
283.749	1.0	go	0.437	Go_X	1.0
286.273	1.0	go	0.504	Go_O	0.0
288.797	0.35	stop	0.0	Go_O	1.0
291.321	1.0	go	0.0	Go_O	0.0
293.845	1.0	go	0.0	Go_X	0.0
296.37	1.0	go	0.0	Go_X	0.0
298.894	1.0	go	0.543	Go_O	0.0
301.418	1.0	go	0.54	Go_O	1.0
303.942	1.0	go	0.575	Go_X	0.0
306.466	0.4	stop	0.258	Go_X	0.0
308.99	1.0	go	0.346	Go_X	1.0
311.515	1.0	go	0.817	Go_O	1.0
314.039	0.35	stop	0.534	Go_O	0.0
316.563	1.0	go	0.952	Go_X	1.0
319.087	1.0	go	0.58	Go_O	1.0
321.611	0.3	stop	0.0	Go_X	1.0
324.135	1.0	go	0.443	Go_X	0.0
326.66	0.35	stop	0.0	Go_O	1.0
329.184	1.0	go	0.569	Go_O	0.0
331.708	1.0	go	0.396	Go_X	0.0
334.232	1.0	go	0.425	Go_O	1.0
336.756	1.0	go	0.28	Go_O	0.0
339.28	1.0	go	0.886	Go_X	1.0
341.805	0.4	stop	0.5	Go_X	0.0
344.329	0.35	stop	0.385	Go_O	0.0
346.853	1.0	go	0.027	Go_X	0.0
349.377	1.0	go	0.351	Go_O	1.0
351.901	0.3	stop	0.0	Go_X	1.0
354.426	1.0	go	0.49	Go_O	1.0
356.95	1.0	go	0.677	Go_X	1.0
359.474	1.0	go	0.616	Go_O	1.0
361.998	1.0	go	0.782	Go_X	1.0
364.522	1.0	go	0.84	Go_O	1.0
367.046	1.0	go	0.821	Go_X	1.0
369.571	0.35	stop	0.0	Go_O	1.0
372.095	1.0	go	0.931	Go_O	1.0
374.619	1.0	go	0.379	Go_X	1.0
377.143	1.0	go	0.756	Go_X	1.0
379.667	1.0	go	0.526	Go_O	1.0
382.191	1.0	go	0.419	Go_X	1.0
384.716	0.4	stop	0.37	Go_X	0.0
387.256	1.0	go	0.556	Go_O	1.0
389.781	1.0	go	0.439	Go_X	1.0
392.305	1.0	go	0.385	Go_O	1.0
394.829	1.0	go	0.457	Go_O	1.0
397.353	0.35	stop	0.0	Go_O	1.0
399.877	1.0	go	0.968	Go_X	0.0
402.402	1.0	go	0.43	Go_O	1.0
404.926	0.4	stop	0.0	Go_X	1.0
407.45	1.0	go	0.414	Go_X	1.0
409.974	0.45	stop	0.722	Go_O	0.0
412.498	1.0	go	0.905	Go_O	0.0
415.022	1.0	go	0.325	Go_X	1.0
417.547	1.0	go	0.56	Go_O	1.0
420.071	1.0	go	0.0	Go_X	0.0
422.595	1.0	go	0.481	Go_O	1.0
425.119	1.0	go	0.604	Go_X	0.0
427.643	1.0	go	0.506	Go_X	1.0
430.167	0.4	stop	0.273	Go_X	0.0
432.692	1.0	go	0.0	Go_O	0.0
435.216	1.0	go	0.0	Go_O	0.0
437.74	1.0	go	0.354	Go_X	1.0
440.264	0.35	stop	0.525	Go_O	0.0
442.788	1.0	go	0.665	Go_X	0.0
445.312	1.0	go	0.0	Go_O	0.0
447.837	1.0	go	0.0	Go_O	0.0
450.361	1.0	go	0.734	Go_X	0.0
452.885	0.3	stop	0.0	Go_X	1.0
455.409	1.0	go	0.0	Go_X	0.0
457.933	1.0	go	0.625	Go_O	1.0
460.457	0.35	stop	0.626	Go_O	0.0
462.982	1.0	go	0.0	Go_X	0.0
465.506	1.0	go	0.0	Go_O	0.0
468.03	0.3	stop	0.0	Go_X	1.0
470.554	1.0	go	0.348	Go_X	1.0
473.078	1.0	go	0.0	Go_O	0.0
475.602	0.35	stop	0.0	Go_O	1.0
478.127	1.0	go	0.942	Go_X	0.0
480.651	1.0	go	0.576	Go_O	0.0
483.175	1.0	go	0.838	Go_O	1.0
485.699	1.0	go	0.0	Go_X	0.0
488.223	1.0	go	0.0	Go_O	0.0
490.748	1.0	go	0.0	Go_X	0.0
493.272	0.4	stop	0.409	Go_X	0.0
495.796	1.0	go	0.0	Go_X	0.0
498.32	0.35	stop	0.0	Go_O	1.0
500.844	1.0	go	0.0	Go_O	0.0
503.368	1.0	go	0.0	Go_O	0.0
505.893	1.0	go	0.0	Go_X	0.0
508.417	1.0	go	0.066	Go_X	1.0
510.941	1.0	go	0.255	Go_O	1.0
513.465	0.4	stop	0.129	Go_X	0.0
515.989	1.0	go	0.184	Go_X	1.0
518.513	1.0	go	0.188	Go_O	0.0
521.038	1.0	go	0.139	Go_X	0.0
523.562	0.35	stop	0.021	Go_O	0.0
526.086	0.3	stop	0.194	Go_X	0.0
528.61	0.25	stop	0.142	Go_O	0.0
531.134	1.0	go	0.14	Go_O	1.0
533.658	0.2	stop	0.037	Go_X	0.0
536.183	1.0	go	0.334	Go_X	0.0
538.707	1.0	go	0.004	Go_O	1.0
541.231	1.0	go	0.05	Go_X	1.0
543.755	1.0	go	0.482	Go_O	1.0
546.279	1.0	go	0.187	Go_X	1.0
548.803	1.0	go	0.019	Go_O	0.0
551.328	1.0	go	0.085	Go_O	0.0
553.852	1.0	go	0.183	Go_X	1.0
556.376	0.15	stop	0.172	Go_O	0.0
558.9	1.0	go	0.292	Go_O	0.0
561.424	1.0	go	0.198	Go_X	1.0
563.949	0.1	stop	0.162	Go_X	0.0
566.473	1.0	go	0.225	Go_X	1.0
568.997	1.0	go	0.191	Go_O	1.0
571.521	1.0	go	0.094	Go_O	1.0
574.045	1.0	go	0.079	Go_X	0.0
576.569	1.0	go	0.515	Go_X	1.0
579.094	0.05	stop	0.0	Go_O	1.0
581.618	1.0	go	0.189	Go_O	0.0
584.142	1.0	go	0.096	Go_X	0.0
586.666	1.0	go	0.387	Go_O	1.0
589.19	0.1	stop	0.559	Go_X	0.0
591.714	1.0	go	0.181	Go_O	1.0
594.239	0.05	stop	0.083	Go_O	0.0
596.763	1.0	go	0.588	Go_X	0.0
599.287	1.0	go	0.0	Go_X	0.0
601.811	1.0	go	0.0	Go_O	0.0
604.335	1.0	go	0.243	Go_O	1.0
606.859	1.0	go	0.309	Go_X	1.0
609.384	1.0	go	0.0	Go_X	0.0
611.908	1.0	go	0.0	Go_O	0.0
614.432	0.0	stop	0.0	Go_X	1.0
616.973	1.0	go	0.601	Go_X	1.0
619.497	1.0	go	0.343	Go_O	1.0
622.021	1.0	go	0.504	Go_X	0.0
624.545	1.0	go	0.972	Go_O	0.0
627.07	0.05	stop	0.0	Go_O	1.0
629.594	1.0	go	0.442	Go_X	0.0
632.118	0.1	stop	0.0	Go_X	1.0
634.642	1.0	go	0.0	Go_O	0.0
637.166	1.0	go	0.0	Go_O	0.0
639.69	0.15	stop	0.0	Go_O	1.0
642.215	1.0	go	0.365	Go_X	0.0
644.739	1.0	go	0.302	Go_X	1.0
647.263	1.0	go	0.0	Go_O	0.0
649.787	1.0	go	0.0	Go_X	0.0
652.311	1.0	go	0.0	Go_O	0.0
654.835	1.0	go	0.0	Go_O	0.0
657.36	1.0	go	0.0	Go_X	0.0
659.884	1.0	go	0.0	Go_X	0.0
662.408	1.0	go	0.0	Go_O	0.0
664.932	1.0	go	0.115	Go_X	0.0
667.456	0.2	stop	0.459	Go_X	0.0
669.98	1.0	go	0.334	Go_O	1.0
672.505	1.0	go	0.31	Go_O	0.0
675.029	0.15	stop	0.033	Go_O	0.0
677.553	1.0	go	0.166	Go_X	1.0
680.077	0.1	stop	0.239	Go_X	0.0
682.601	1.0	go	0.009	Go_X	1.0
685.125	1.0	go	0.0	Go_O	0.0
687.65	0.05	stop	0.854	Go_O	0.0
690.174	1.0	go	0.22	Go_X	1.0
692.698	0.0	stop	0.0	Go_X	1.0
695.239	1.0	go	0.222	Go_O	0.0
697.763	1.0	go	0.473	Go_X	0.0
700.287	1.0	go	0.072	Go_O	1.0
702.811	0.05	stop	0.09	Go_O	0.0
705.336	1.0	go	0.182	Go_X	1.0
707.86	1.0	go	0.237	Go_O	0.0
710.384	1.0	go	0.25	Go_O	0.0
712.908	1.0	go	0.247	Go_X	0.0
715.432	0.0	stop	0.337	Go_X	0.0
717.973	1.0	go	0.37	Go_O	1.0
720.497	1.0	go	0.0	Go_X	0.0
723.021	0.0	stop	0.609	Go_O	0.0
725.562	1.0	go	0.0	Go_O	0.0
728.087	1.0	go	0.482	Go_X	0.0
730.611	1.0	go	0.323	Go_O	1.0
733.135	1.0	go	0.0	Go_X	0.0
735.659	0.0	stop	0.398	Go_X	0.0
738.2	1.0	go	0.151	Go_O	0.0
740.724	0.0	stop	0.199	Go_O	0.0
743.265	1.0	go	0.804	Go_X	1.0
745.789	1.0	go	0.56	Go_X	1.0
748.313	0.0	stop	0.0	Go_X	1.0
750.854	1.0	go	0.0	Go_O	0.0
753.378	1.0	go	0.0	Go_X	0.0
755.903	1.0	go	0.0	Go_O	0.0
758.427	1.0	go	0.0	Go_O	0.0
760.951	0.05	stop	0.255	Go_O	0.0
763.475	1.0	go	0.076	Go_X	1.0
765.999	0.0	stop	0.0	Go_X	1.0
768.54	1.0	go	0.0	Go_O	0.0
771.064	1.0	go	0.0	Go_X	0.0
773.588	1.0	go	0.132	Go_X	1.0
776.113	1.0	go	0.806	Go_O	0.0
778.637	1.0	go	0.474	Go_X	0.0
781.161	1.0	go	0.265	Go_O	1.0
783.685	0.05	stop	0.418	Go_O	0.0
786.209	1.0	go	0.059	Go_X	0.0
788.734	1.0	go	0.053	Go_O	0.0
791.258	0.0	stop	0.0	Go_X	1.0
793.799	1.0	go	0.0	Go_X	0.0
796.339	1.0	go	0.671	Go_O	0.0
798.864	0.05	stop	0.1	Go_O	0.0
801.388	1.0	go	0.551	Go_O	1.0
803.912	1.0	go	0.624	Go_X	0.0
806.436	1.0	go	0.0	Go_X	0.0
808.96	1.0	go	0.0	Go_O	0.0
811.484	0.0	stop	0.723	Go_X	0.0
814.025	1.0	go	0.632	Go_O	1.0
816.55	0.0	stop	0.179	Go_O	0.0
819.09	1.0	go	0.407	Go_X	0.0
821.615	1.0	go	0.0	Go_O	0.0
824.139	1.0	go	0.0	Go_X	0.0
826.663	1.0	go	0.164	Go_O	0.0
829.187	1.0	go	0.0	Go_X	0.0
831.711	0.0	stop	0.0	Go_X	1.0
834.252	1.0	go	0.0	Go_X	0.0
836.776	1.0	go	0.0	Go_O	0.0
839.301	0.05	stop	0.0	Go_O	1.0
841.825	0.1	stop	0.0	Go_X	1.0
844.366	1.0	go	0.0	Go_O	0.0
846.89	1.0	go	0.0	Go_X	0.0
849.414	1.0	go	0.0	Go_X	0.0
851.938	1.0	go	0.0	Go_O	0.0
854.462	0.15	stop	0.0	Go_O	1.0
856.986	1.0	go	0.0	Go_X	0.0
