onset	duration	trial_type	response_time	stim_file	accuracy
171.107	1.0	go	0.0	Go_X	0.0
173.69	1.0	go	0.844	Go_O	1.0
176.223	1.0	go	0.481	Go_X	1.0
178.756	1.0	go	0.527	Go_O	1.0
181.29	1.0	go	0.557	Go_O	1.0
183.823	1.0	go	0.606	Go_X	1.0
186.356	0.25	stop	0.0	Go_O	1.0
188.889	1.0	go	0.474	Go_X	1.0
191.423	0.3	stop	0.0	Go_X	1.0
193.956	1.0	go	0.528	Go_O	1.0
196.489	1.0	go	0.659	Go_X	1.0
199.022	1.0	go	0.757	Go_O	1.0
201.556	0.35	stop	0.0	Go_O	1.0
204.089	1.0	go	0.458	Go_X	1.0
206.622	1.0	go	0.0	Go_O	0.0
209.155	0.4	stop	0.0	Go_X	1.0
211.689	0.45	stop	0.479	Go_O	0.0
214.222	1.0	go	0.54	Go_O	1.0
216.755	1.0	go	0.597	Go_X	1.0
219.288	0.4	stop	0.0	Go_X	1.0
221.822	1.0	go	0.53	Go_X	1.0
224.371	1.0	go	0.398	Go_O	1.0
226.905	0.45	stop	0.0	Go_O	1.0
229.438	1.0	go	0.473	Go_O	1.0
231.971	1.0	go	0.639	Go_X	1.0
234.504	0.5	stop	0.734	Go_X	0.0
237.038	1.0	go	0.622	Go_O	1.0
239.571	1.0	go	0.82	Go_X	1.0
242.104	0.45	stop	0.592	Go_O	0.0
244.637	1.0	go	0.609	Go_X	0.0
247.171	1.0	go	0.556	Go_O	1.0
249.704	1.0	go	0.53	Go_O	1.0
252.237	1.0	go	0.781	Go_X	1.0
254.77	1.0	go	0.431	Go_O	1.0
257.304	0.4	stop	0.505	Go_X	0.0
259.837	1.0	go	0.451	Go_X	1.0
262.37	1.0	go	0.636	Go_O	1.0
264.903	1.0	go	0.745	Go_X	1.0
267.437	1.0	go	0.984	Go_O	1.0
269.97	1.0	go	0.421	Go_X	1.0
272.503	0.35	stop	0.0	Go_O	1.0
275.036	1.0	go	0.659	Go_X	1.0
277.57	1.0	go	0.853	Go_O	1.0
280.119	1.0	go	0.781	Go_X	1.0
282.653	1.0	go	0.852	Go_O	1.0
285.186	1.0	go	0.476	Go_X	1.0
287.719	1.0	go	0.716	Go_O	1.0
290.252	0.4	stop	0.0	Go_X	1.0
292.786	1.0	go	0.561	Go_O	1.0
295.319	1.0	go	0.736	Go_X	1.0
297.852	0.45	stop	0.0	Go_O	1.0
300.385	1.0	go	0.772	Go_O	1.0
302.919	0.5	stop	0.0	Go_X	1.0
305.452	0.55	stop	0.508	Go_O	0.0
307.985	1.0	go	0.953	Go_X	1.0
310.518	1.0	go	0.922	Go_O	1.0
313.052	1.0	go	0.0	Go_X	0.0
315.585	1.0	go	0.73	Go_O	1.0
318.118	0.5	stop	0.0	Go_X	1.0
320.651	1.0	go	0.614	Go_X	1.0
323.185	0.55	stop	0.57	Go_O	0.0
325.718	1.0	go	0.81	Go_O	1.0
328.251	1.0	go	0.0	Go_X	0.0
330.784	1.0	go	0.923	Go_X	1.0
333.318	1.0	go	0.785	Go_O	1.0
335.851	1.0	go	0.744	Go_X	1.0
338.384	1.0	go	0.677	Go_O	1.0
340.917	1.0	go	0.901	Go_O	1.0
343.451	1.0	go	0.932	Go_X	1.0
346.0	1.0	go	0.636	Go_O	1.0
348.534	0.5	stop	0.618	Go_X	0.0
351.067	1.0	go	0.638	Go_X	1.0
353.6	1.0	go	0.577	Go_O	1.0
356.133	1.0	go	0.0	Go_X	0.0
358.667	0.45	stop	0.509	Go_O	0.0
361.2	1.0	go	0.674	Go_X	1.0
363.733	1.0	go	0.699	Go_O	1.0
366.266	1.0	go	0.957	Go_O	1.0
368.8	1.0	go	0.751	Go_X	1.0
371.333	1.0	go	0.699	Go_O	1.0
373.866	1.0	go	0.775	Go_X	1.0
376.399	0.4	stop	0.0	Go_X	1.0
378.933	1.0	go	0.83	Go_O	1.0
381.466	1.0	go	0.773	Go_X	1.0
383.999	0.45	stop	0.0	Go_O	1.0
386.532	1.0	go	0.677	Go_X	1.0
389.066	1.0	go	0.718	Go_O	1.0
391.599	0.5	stop	0.0	Go_X	1.0
394.132	1.0	go	0.671	Go_X	1.0
396.665	0.55	stop	0.0	Go_O	1.0
399.199	1.0	go	0.735	Go_O	1.0
401.748	1.0	go	0.735	Go_X	1.0
404.282	1.0	go	0.0	Go_O	0.0
406.815	1.0	go	0.699	Go_X	1.0
409.348	1.0	go	0.797	Go_O	1.0
411.881	0.6	stop	0.0	Go_X	1.0
414.415	0.65	stop	0.752	Go_O	0.0
416.948	1.0	go	0.698	Go_O	1.0
419.481	1.0	go	0.762	Go_X	1.0
422.014	0.6	stop	0.598	Go_X	0.0
424.548	1.0	go	0.937	Go_O	1.0
427.081	1.0	go	0.56	Go_X	1.0
429.614	1.0	go	0.766	Go_X	1.0
432.147	1.0	go	0.574	Go_O	1.0
434.681	1.0	go	0.657	Go_X	1.0
437.214	1.0	go	0.623	Go_O	1.0
439.747	0.55	stop	0.672	Go_O	0.0
442.28	1.0	go	0.726	Go_X	1.0
444.814	1.0	go	0.0	Go_O	0.0
447.347	1.0	go	0.0	Go_X	0.0
449.88	1.0	go	0.635	Go_O	1.0
452.413	1.0	go	0.0	Go_O	0.0
454.947	0.5	stop	0.0	Go_X	1.0
457.496	1.0	go	0.897	Go_X	1.0
460.03	1.0	go	0.969	Go_O	1.0
462.563	1.0	go	0.743	Go_X	1.0
465.096	1.0	go	0.97	Go_O	1.0
467.629	0.55	stop	0.0	Go_O	1.0
470.163	1.0	go	0.99	Go_X	1.0
472.696	1.0	go	0.0	Go_X	0.0
475.229	0.6	stop	0.0	Go_X	1.0
477.762	1.0	go	0.711	Go_O	1.0
480.296	0.65	stop	0.0	Go_O	1.0
482.829	1.0	go	0.931	Go_O	1.0
485.362	1.0	go	0.856	Go_X	1.0
487.895	1.0	go	0.944	Go_O	1.0
490.429	1.0	go	0.953	Go_X	1.0
492.962	1.0	go	0.0	Go_O	0.0
495.495	1.0	go	0.815	Go_X	1.0
498.028	1.0	go	0.969	Go_O	1.0
500.562	0.7	stop	0.82	Go_X	0.0
503.095	1.0	go	0.846	Go_X	1.0
505.628	1.0	go	0.894	Go_X	1.0
508.161	1.0	go	0.788	Go_O	1.0
510.695	0.65	stop	0.0	Go_O	1.0
513.228	1.0	go	0.917	Go_X	1.0
515.761	1.0	go	0.759	Go_O	1.0
518.294	1.0	go	0.0	Go_O	0.0
520.828	1.0	go	0.942	Go_X	1.0
523.377	0.7	stop	0.0	Go_X	1.0
525.911	1.0	go	0.589	Go_O	1.0
528.444	1.0	go	0.629	Go_X	1.0
530.977	0.75	stop	0.91	Go_O	0.0
533.51	1.0	go	0.974	Go_O	1.0
536.044	1.0	go	0.856	Go_X	1.0
538.577	0.7	stop	0.0	Go_X	1.0
541.11	1.0	go	0.835	Go_X	1.0
543.643	1.0	go	0.954	Go_O	1.0
546.177	0.75	stop	0.848	Go_O	0.0
548.71	1.0	go	0.783	Go_O	1.0
551.243	1.0	go	0.628	Go_X	1.0
553.776	1.0	go	0.813	Go_X	1.0
556.31	1.0	go	0.0	Go_O	0.0
558.843	1.0	go	0.843	Go_X	1.0
561.376	1.0	go	0.962	Go_O	1.0
563.909	0.7	stop	0.952	Go_X	0.0
566.443	1.0	go	0.746	Go_O	1.0
568.976	0.65	stop	0.737	Go_O	0.0
571.509	1.0	go	0.919	Go_X	1.0
574.042	1.0	go	0.0	Go_X	0.0
576.576	1.0	go	0.748	Go_O	1.0
579.125	1.0	go	0.81	Go_X	1.0
581.659	1.0	go	0.713	Go_O	1.0
584.192	0.6	stop	0.719	Go_X	0.0
586.725	1.0	go	0.689	Go_X	1.0
589.258	1.0	go	0.693	Go_O	1.0
591.792	1.0	go	0.826	Go_X	1.0
594.325	0.55	stop	0.0	Go_O	1.0
596.858	0.6	stop	0.0	Go_X	1.0
599.391	0.65	stop	0.0	Go_O	1.0
601.925	1.0	go	0.934	Go_O	1.0
604.458	0.7	stop	0.0	Go_X	1.0
606.991	1.0	go	0.942	Go_X	1.0
609.524	1.0	go	0.0	Go_O	0.0
612.058	1.0	go	0.861	Go_O	1.0
614.591	1.0	go	0.966	Go_X	1.0
617.124	1.0	go	0.717	Go_O	1.0
619.657	1.0	go	0.0	Go_X	0.0
622.191	1.0	go	0.676	Go_X	1.0
624.724	1.0	go	0.862	Go_O	1.0
627.257	0.75	stop	0.629	Go_O	0.0
629.79	1.0	go	0.883	Go_X	1.0
632.324	1.0	go	0.939	Go_O	1.0
634.857	0.7	stop	0.0	Go_X	1.0
637.39	1.0	go	0.908	Go_X	1.0
639.923	1.0	go	0.756	Go_O	1.0
642.457	1.0	go	0.994	Go_O	1.0
645.006	1.0	go	0.599	Go_X	1.0
647.54	1.0	go	0.819	Go_X	1.0
650.073	0.75	stop	0.892	Go_O	0.0
652.606	1.0	go	0.709	Go_O	1.0
655.139	1.0	go	0.749	Go_X	1.0
657.673	1.0	go	0.884	Go_O	1.0
660.206	0.7	stop	0.604	Go_X	0.0
662.739	1.0	go	0.827	Go_X	1.0
665.272	0.65	stop	0.0	Go_O	1.0
667.806	1.0	go	0.68	Go_O	1.0
670.339	1.0	go	0.784	Go_X	1.0
672.872	1.0	go	0.555	Go_O	1.0
675.405	1.0	go	0.659	Go_X	1.0
677.939	1.0	go	0.742	Go_O	1.0
680.472	1.0	go	0.731	Go_X	1.0
683.005	1.0	go	0.732	Go_O	1.0
685.538	0.7	stop	0.833	Go_X	0.0
688.072	1.0	go	0.953	Go_X	1.0
690.605	1.0	go	0.63	Go_O	1.0
693.138	1.0	go	0.835	Go_O	1.0
695.671	1.0	go	0.0	Go_X	0.0
698.205	0.65	stop	0.929	Go_O	0.0
700.754	1.0	go	0.891	Go_O	1.0
703.288	0.6	stop	0.0	Go_X	1.0
705.821	1.0	go	0.0	Go_X	0.0
708.354	1.0	go	0.872	Go_O	1.0
710.887	0.65	stop	0.695	Go_O	0.0
713.421	1.0	go	0.0	Go_X	0.0
715.954	1.0	go	0.746	Go_O	1.0
718.487	1.0	go	0.612	Go_X	1.0
721.02	1.0	go	0.652	Go_X	1.0
723.554	1.0	go	0.694	Go_O	1.0
726.087	1.0	go	0.63	Go_O	1.0
728.62	1.0	go	0.606	Go_X	1.0
731.153	1.0	go	0.667	Go_O	1.0
733.687	1.0	go	0.499	Go_X	1.0
736.22	1.0	go	0.672	Go_X	1.0
738.753	0.6	stop	0.672	Go_X	0.0
741.286	1.0	go	0.0	Go_O	0.0
743.82	1.0	go	0.529	Go_X	1.0
746.353	0.55	stop	0.891	Go_O	0.0
748.886	1.0	go	0.767	Go_O	1.0
751.419	0.5	stop	0.0	Go_X	1.0
753.953	1.0	go	0.715	Go_O	1.0
756.486	1.0	go	0.0	Go_X	0.0
759.019	0.55	stop	0.658	Go_O	0.0
761.552	1.0	go	0.885	Go_X	1.0
764.086	0.5	stop	0.0	Go_X	1.0
766.635	1.0	go	0.587	Go_O	1.0
769.169	1.0	go	0.777	Go_O	1.0
771.702	1.0	go	0.865	Go_X	1.0
774.235	0.55	stop	0.0	Go_O	1.0
776.768	1.0	go	0.715	Go_X	1.0
779.302	1.0	go	0.0	Go_O	0.0
781.835	1.0	go	0.727	Go_X	1.0
784.368	1.0	go	0.757	Go_O	1.0
786.901	0.6	stop	0.706	Go_X	0.0
789.435	1.0	go	0.0	Go_X	0.0
791.968	1.0	go	0.579	Go_O	1.0
794.501	0.55	stop	0.0	Go_O	1.0
797.034	1.0	go	0.97	Go_X	1.0
799.568	1.0	go	0.906	Go_O	1.0
802.101	1.0	go	0.692	Go_X	1.0
804.634	1.0	go	0.926	Go_O	1.0
807.167	0.6	stop	0.0	Go_X	1.0
809.701	1.0	go	0.953	Go_O	1.0
812.234	0.65	stop	0.0	Go_O	1.0
814.767	1.0	go	0.941	Go_X	1.0
817.3	1.0	go	0.792	Go_X	1.0
819.834	0.7	stop	0.0	Go_X	1.0
822.383	1.0	go	0.515	Go_O	1.0
824.917	1.0	go	0.809	Go_O	1.0
827.45	1.0	go	0.639	Go_X	1.0
829.983	1.0	go	0.786	Go_O	1.0
832.516	0.75	stop	0.0	Go_O	1.0
835.05	1.0	go	0.0	Go_X	0.0
837.583	0.8	stop	0.827	Go_X	0.0
840.116	1.0	go	0.0	Go_X	0.0
842.649	1.0	go	0.704	Go_O	1.0
845.183	1.0	go	0.0	Go_X	0.0
847.716	1.0	go	0.774	Go_O	1.0
850.249	1.0	go	0.0	Go_X	0.0
852.782	1.0	go	0.601	Go_O	1.0
855.316	0.75	stop	0.777	Go_O	0.0
857.849	1.0	go	0.675	Go_O	1.0
860.382	1.0	go	0.445	Go_X	1.0
862.915	0.7	stop	0.626	Go_X	0.0
865.449	1.0	go	0.611	Go_O	1.0
867.982	1.0	go	0.552	Go_X	1.0
870.515	0.65	stop	0.0	Go_O	1.0
873.048	1.0	go	0.388	Go_X	1.0
875.582	1.0	go	0.284	Go_O	1.0
878.131	1.0	go	0.534	Go_X	1.0
880.665	1.0	go	0.453	Go_O	1.0
883.198	0.7	stop	0.329	Go_X	0.0
885.731	1.0	go	0.396	Go_O	1.0
888.264	0.65	stop	0.452	Go_O	0.0
890.798	1.0	go	0.685	Go_X	1.0
893.331	1.0	go	0.961	Go_X	1.0
895.864	1.0	go	0.676	Go_O	1.0
898.397	1.0	go	0.901	Go_X	1.0
900.931	1.0	go	0.673	Go_O	1.0
903.464	0.6	stop	0.632	Go_X	0.0
905.997	1.0	go	0.678	Go_O	1.0
908.53	1.0	go	0.665	Go_X	1.0
911.064	0.55	stop	0.0	Go_O	1.0
913.597	0.6	stop	0.686	Go_X	0.0
916.13	1.0	go	0.0	Go_X	0.0
918.663	1.0	go	0.82	Go_O	1.0
921.197	1.0	go	0.0	Go_O	0.0
923.73	1.0	go	0.99	Go_X	1.0
926.263	0.55	stop	0.0	Go_O	1.0
928.796	1.0	go	0.643	Go_X	1.0
