onset	duration	trial_type	response_time	stim_file	accuracy
53.32	1.0	go	0.641	Go_O	0.0
55.844	1.0	go	0.466	Go_X	0.0
58.368	1.0	go	0.253	Go_O	0.0
60.892	1.0	go	0.303	Go_X	0.0
63.417	1.0	go	0.457	Go_X	0.0
65.958	1.0	go	0.368	Go_O	0.0
68.482	0.25	stopsuccess	0.0	Go_O	1.0
71.023	1.0	go	0.454	Go_X	0.0
73.547	0.3	stopfail	0.474	Go_X	0.0
76.088	1.0	go	0.331	Go_O	0.0
78.612	1.0	go	0.347	Go_X	0.0
81.136	1.0	go	0.307	Go_O	0.0
83.66	0.25	stopfail	0.42	Go_O	0.0
86.185	1.0	go	0.367	Go_X	0.0
88.726	1.0	go	0.332	Go_O	0.0
91.25	0.2	stopsuccess	0.0	Go_X	1.0
93.791	0.25	stopfail	0.256	Go_O	0.0
96.332	1.0	go	0.396	Go_X	1.0
98.856	1.0	go	0.291	Go_O	0.0
101.38	0.2	stopsuccess	0.0	Go_X	1.0
103.921	1.0	go	0.464	Go_O	0.0
106.445	1.0	go	0.445	Go_X	0.0
108.986	0.25	stopfail	0.38	Go_O	0.0
111.527	1.0	go	0.353	Go_X	0.0
114.051	1.0	go	0.371	Go_O	0.0
116.575	0.2	stopsuccess	0.0	Go_X	1.0
119.116	1.0	go	0.481	Go_X	0.0
121.641	1.0	go	0.544	Go_O	0.0
124.182	0.25	stopsuccess	0.0	Go_O	1.0
126.723	1.0	go	0.505	Go_O	0.0
129.247	1.0	go	0.322	Go_X	0.0
131.771	1.0	go	0.557	Go_O	0.0
134.295	1.0	go	0.442	Go_X	0.0
136.819	1.0	go	0.506	Go_X	0.0
139.344	0.3	stopfail	0.391	Go_X	0.0
141.885	1.0	go	0.314	Go_O	0.0
144.409	1.0	go	0.544	Go_X	0.0
146.933	1.0	go	0.343	Go_O	0.0
149.457	1.0	go	0.388	Go_X	0.0
151.981	1.0	go	0.497	Go_O	0.0
154.506	0.25	stopsuccess	0.0	Go_O	1.0
157.047	1.0	go	0.442	Go_O	0.0
159.571	1.0	go	0.282	Go_X	0.0
162.112	1.0	go	0.416	Go_X	0.0
164.636	1.0	go	0.309	Go_O	0.0
167.16	1.0	go	0.323	Go_X	0.0
169.684	1.0	go	0.377	Go_O	0.0
172.209	0.3	stopfail	0.469	Go_X	0.0
174.749	1.0	go	0.395	Go_X	0.0
177.274	1.0	go	0.271	Go_O	0.0
179.798	0.25	stopfail	0.388	Go_O	0.0
182.339	1.0	go	0.315	Go_O	0.0
184.88	0.2	stopsuccess	0.0	Go_X	1.0
187.421	0.25	stopfail	0.292	Go_O	0.0
189.962	1.0	go	0.26	Go_X	0.0
192.486	1.0	go	0.397	Go_X	0.0
195.01	1.0	go	0.284	Go_O	0.0
197.534	1.0	go	0.431	Go_X	0.0
200.058	0.2	stopsuccess	0.0	Go_X	1.0
202.599	1.0	go	0.395	Go_O	0.0
205.124	0.25	stopfail	0.391	Go_O	0.0
207.665	1.0	go	0.624	Go_O	0.0
210.189	1.0	go	0.375	Go_X	0.0
212.73	1.0	go	0.549	Go_O	0.0
215.271	1.0	go	0.483	Go_X	0.0
217.795	1.0	go	0.369	Go_O	0.0
220.319	1.0	go	0.441	Go_X	1.0
222.843	1.0	go	0.434	Go_X	0.0
225.367	1.0	go	0.438	Go_O	0.0
227.892	1.0	go	0.467	Go_O	0.0
230.416	0.2	stopsuccess	0.0	Go_X	1.0
232.957	1.0	go	0.37	Go_X	0.0
235.498	1.0	go	0.376	Go_X	0.0
238.022	1.0	go	0.274	Go_O	0.0
240.546	0.25	stopsuccess	0.0	Go_O	1.0
243.087	1.0	go	0.313	Go_X	0.0
245.611	1.0	go	0.347	Go_O	0.0
248.136	1.0	go	0.378	Go_X	0.0
250.66	1.0	go	0.374	Go_O	0.0
253.201	1.0	go	0.368	Go_X	0.0
255.725	1.0	go	0.314	Go_O	0.0
258.249	0.3	stopfail	0.356	Go_X	0.0
260.79	1.0	go	0.298	Go_O	0.0
263.314	1.0	go	0.328	Go_X	0.0
265.838	0.25	stopfail	0.381	Go_O	0.0
268.363	1.0	go	0.32	Go_X	0.0
270.887	1.0	go	0.404	Go_O	0.0
273.411	0.2	stopsuccess	0.0	Go_X	1.0
275.952	1.0	go	0.521	Go_X	0.0
278.476	0.25	stopsuccess	0.0	Go_O	1.0
281.017	1.0	go	0.453	Go_O	0.0
283.541	1.0	go	0.314	Go_X	0.0
286.066	1.0	go	0.425	Go_O	0.0
288.607	1.0	go	0.336	Go_X	0.0
291.147	1.0	go	0.399	Go_O	0.0
293.672	0.3	stopfail	0.344	Go_X	0.0
296.213	0.25	stopsuccess	0.0	Go_O	1.0
298.754	1.0	go	0.337	Go_X	0.0
301.278	1.0	go	0.319	Go_O	0.0
303.802	0.3	stopfail	0.347	Go_X	0.0
306.343	1.0	go	0.44	Go_X	0.0
308.867	1.0	go	0.391	Go_O	0.0
311.391	1.0	go	0.563	Go_O	0.0
313.916	1.0	go	0.507	Go_X	0.0
316.456	1.0	go	0.451	Go_X	0.0
318.981	1.0	go	0.558	Go_O	0.0
321.522	0.25	stopsuccess	0.0	Go_O	1.0
324.063	1.0	go	0.435	Go_O	0.0
326.587	1.0	go	0.297	Go_X	0.0
329.111	1.0	go	0.342	Go_O	0.0
331.635	1.0	go	0.359	Go_X	0.0
334.159	1.0	go	0.433	Go_O	0.0
336.684	0.3	stopfail	0.396	Go_X	0.0
339.225	1.0	go	0.493	Go_X	0.0
341.765	1.0	go	0.279	Go_X	0.0
344.29	1.0	go	0.357	Go_O	0.0
346.814	1.0	go	0.357	Go_X	0.0
349.338	0.25	stopfail	0.309	Go_O	0.0
351.862	1.0	go	0.326	Go_O	0.0
354.387	1.0	go	0.453	Go_O	0.0
356.927	0.2	stopsuccess	0.0	Go_X	1.0
359.452	1.0	go	0.392	Go_X	0.0
361.993	0.25	stopsuccess	0.0	Go_O	1.0
364.534	1.0	go	0.479	Go_O	0.0
367.074	1.0	go	0.37	Go_X	0.0
369.599	1.0	go	0.448	Go_X	0.0
372.123	1.0	go	0.443	Go_O	0.0
374.647	1.0	go	0.4	Go_O	0.0
377.171	1.0	go	0.448	Go_X	0.0
379.696	1.0	go	0.51	Go_X	0.0
382.22	0.3	stopsuccess	0.0	Go_X	1.0
384.761	1.0	go	0.33	Go_O	0.0
387.285	1.0	go	0.42	Go_O	0.0
389.809	1.0	go	0.372	Go_X	0.0
392.333	0.35	stopfail	0.342	Go_O	0.0
394.858	1.0	go	0.413	Go_O	0.0
397.398	1.0	go	0.313	Go_X	0.0
399.923	1.0	go	0.449	Go_X	0.0
402.447	1.0	go	0.341	Go_O	0.0
404.971	0.3	stopsuccess	0.0	Go_X	1.0
407.512	1.0	go	0.418	Go_X	0.0
410.036	1.0	go	0.277	Go_O	0.0
412.56	0.35	stopfail	0.367	Go_O	0.0
415.101	1.0	go	0.548	Go_O	0.0
417.626	1.0	go	0.33	Go_X	0.0
420.15	0.3	stopfail	0.39	Go_X	0.0
422.691	1.0	go	0.364	Go_O	0.0
425.232	1.0	go	0.364	Go_X	0.0
427.756	0.25	stopfail	0.302	Go_O	0.0
430.297	1.0	go	0.334	Go_X	0.0
432.821	1.0	go	0.332	Go_O	0.0
435.345	1.0	go	0.272	Go_X	0.0
437.869	1.0	go	0.384	Go_O	0.0
440.394	1.0	go	0.339	Go_X	0.0
442.918	1.0	go	0.31	Go_O	0.0
445.442	0.2	stopsuccess	0.0	Go_X	1.0
447.983	1.0	go	0.508	Go_O	0.0
450.507	0.25	stopsuccess	0.0	Go_O	1.0
453.031	1.0	go	0.359	Go_X	0.0
455.556	1.0	go	0.373	Go_O	0.0
458.08	1.0	go	0.331	Go_X	0.0
460.604	1.0	go	0.438	Go_O	0.0
463.128	1.0	go	0.403	Go_X	0.0
465.653	0.3	stopfail	0.348	Go_X	0.0
468.193	1.0	go	0.326	Go_O	0.0
470.718	1.0	go	0.326	Go_X	0.0
473.259	1.0	go	0.628	Go_O	0.0
475.783	0.25	stopfail	0.376	Go_O	0.0
478.324	0.2	stopsuccess	0.0	Go_X	1.0
480.865	0.25	stopsuccess	0.0	Go_O	1.0
483.406	1.0	go	0.374	Go_X	0.0
485.93	0.3	stopfail	0.381	Go_X	0.0
488.471	1.0	go	0.363	Go_O	0.0
490.995	1.0	go	0.431	Go_X	0.0
493.519	1.0	go	0.449	Go_X	0.0
496.043	1.0	go	0.45	Go_O	0.0
498.568	1.0	go	0.632	Go_X	0.0
501.092	1.0	go	0.53	Go_O	0.0
503.616	1.0	go	0.369	Go_X	0.0
506.14	1.0	go	0.41	Go_O	0.0
508.664	0.25	stopfail	0.409	Go_O	0.0
511.189	1.0	go	0.327	Go_O	1.0
513.713	1.0	go	0.284	Go_X	0.0
516.254	0.2	stopsuccess	0.0	Go_X	1.0
518.795	1.0	go	0.387	Go_O	0.0
521.319	1.0	go	0.478	Go_X	1.0
523.843	1.0	go	0.548	Go_X	0.0
526.367	1.0	go	0.298	Go_O	0.0
528.892	1.0	go	0.381	Go_X	0.0
531.433	0.25	stopfail	0.334	Go_O	0.0
533.973	1.0	go	0.41	Go_O	0.0
536.498	1.0	go	0.388	Go_X	0.0
539.022	1.0	go	0.372	Go_O	0.0
541.546	0.2	stopsuccess	0.0	Go_X	1.0
544.087	1.0	go	0.476	Go_X	0.0
546.611	0.25	stopfail	0.336	Go_O	0.0
549.152	1.0	go	0.285	Go_O	0.0
551.676	1.0	go	0.394	Go_O	0.0
554.217	1.0	go	0.407	Go_X	0.0
556.742	1.0	go	0.511	Go_O	0.0
559.266	1.0	go	0.437	Go_X	0.0
561.807	1.0	go	0.509	Go_O	0.0
564.331	1.0	go	0.356	Go_X	0.0
566.872	0.2	stopsuccess	0.0	Go_X	1.0
569.413	1.0	go	0.356	Go_O	0.0
571.937	1.0	go	0.353	Go_X	0.0
574.461	1.0	go	0.502	Go_X	0.0
577.002	1.0	go	0.524	Go_O	0.0
579.526	0.25	stopsuccess	0.0	Go_O	1.0
582.051	1.0	go	0.344	Go_X	0.0
584.575	0.3	stopfail	0.344	Go_X	0.0
587.116	1.0	go	0.331	Go_O	0.0
589.64	1.0	go	0.416	Go_O	0.0
592.164	0.25	stopfail	0.355	Go_O	0.0
594.705	1.0	go	0.314	Go_X	0.0
597.229	1.0	go	0.35	Go_O	0.0
599.754	1.0	go	0.384	Go_X	0.0
602.278	1.0	go	0.388	Go_X	0.0
604.802	1.0	go	0.301	Go_O	0.0
607.326	1.0	go	0.379	Go_X	0.0
609.85	1.0	go	0.445	Go_O	0.0
612.375	1.0	go	0.323	Go_X	0.0
614.899	1.0	go	0.439	Go_O	0.0
617.423	1.0	go	0.38	Go_X	0.0
619.947	0.2	stopsuccess	0.0	Go_X	1.0
622.488	1.0	go	0.336	Go_O	0.0
625.012	1.0	go	0.403	Go_X	0.0
627.537	0.25	stopfail	0.343	Go_O	0.0
630.078	1.0	go	0.315	Go_O	1.0
632.602	0.2	stopfail	0.286	Go_X	0.0
635.143	1.0	go	0.371	Go_X	0.0
637.667	1.0	go	0.306	Go_O	0.0
640.191	0.15	stopsuccess	0.0	Go_O	1.0
642.732	1.0	go	0.483	Go_O	0.0
645.256	0.2	stopsuccess	0.0	Go_X	1.0
647.797	1.0	go	0.41	Go_X	0.0
650.321	1.0	go	0.386	Go_X	0.0
652.846	1.0	go	0.433	Go_O	0.0
655.37	0.25	stopfail	0.368	Go_O	0.0
657.894	1.0	go	0.353	Go_O	0.0
660.418	1.0	go	0.357	Go_X	0.0
662.942	1.0	go	0.379	Go_X	0.0
665.467	1.0	go	0.336	Go_O	0.0
668.008	0.2	stopsuccess	0.0	Go_X	1.0
670.548	1.0	go	0.383	Go_X	0.0
673.073	1.0	go	0.317	Go_O	0.0
675.597	0.25	stopfail	0.414	Go_O	0.0
678.138	1.0	go	0.424	Go_O	0.0
680.662	1.0	go	0.356	Go_X	0.0
683.186	1.0	go	0.654	Go_O	0.0
685.71	1.0	go	0.731	Go_X	0.0
688.235	0.2	stopsuccess	0.0	Go_X	1.0
690.776	1.0	go	0.378	Go_O	0.0
693.3	0.25	stopsuccess	0.0	Go_O	1.0
695.841	1.0	go	0.413	Go_X	0.0
698.365	1.0	go	0.609	Go_X	0.0
700.889	0.3	stopsuccess	0.0	Go_X	1.0
703.43	1.0	go	0.373	Go_O	0.0
705.954	1.0	go	0.571	Go_O	0.0
708.479	1.0	go	0.464	Go_X	0.0
711.019	1.0	go	0.488	Go_X	0.0
713.56	0.35	stopfail	0.392	Go_O	0.0
716.101	1.0	go	0.493	Go_O	0.0
718.626	0.3	stopfail	0.39	Go_X	0.0
721.166	1.0	go	0.333	Go_O	0.0
723.691	1.0	go	0.425	Go_X	0.0
726.232	1.0	go	0.424	Go_X	0.0
728.773	1.0	go	0.368	Go_O	0.0
731.314	1.0	go	0.433	Go_O	0.0
733.854	1.0	go	0.485	Go_X	0.0
736.379	0.25	stopsuccess	0.0	Go_O	1.0
738.92	1.0	go	0.339	Go_X	0.0
741.461	1.0	go	0.52	Go_O	0.0
743.985	0.3	stopfail	0.363	Go_X	0.0
746.526	1.0	go	0.25	Go_O	0.0
749.05	1.0	go	0.431	Go_X	0.0
751.574	0.25	stopfail	0.381	Go_O	0.0
754.115	1.0	go	0.359	Go_O	0.0
756.639	1.0	go	0.53	Go_X	0.0
759.163	1.0	go	0.398	Go_O	0.0
761.688	1.0	go	0.688	Go_X	0.0
764.212	0.2	stopfail	0.547	Go_X	0.0
766.753	1.0	go	0.456	Go_X	0.0
769.294	0.15	stopsuccess	0.0	Go_O	1.0
771.835	1.0	go	0.38	Go_O	0.0
774.359	1.0	go	0.383	Go_X	0.0
776.9	1.0	go	0.487	Go_O	0.0
779.424	1.0	go	0.425	Go_X	0.0
781.948	1.0	go	0.565	Go_O	0.0
784.472	0.2	stopsuccess	0.0	Go_X	1.0
786.997	1.0	go	0.0	Go_O	0.0
789.521	1.0	go	0.437	Go_X	0.0
792.062	0.25	stopfail	0.354	Go_O	0.0
794.603	0.2	stopsuccess	0.0	Go_X	1.0
797.144	1.0	go	0.368	Go_O	0.0
799.668	1.0	go	0.372	Go_X	0.0
802.192	1.0	go	0.355	Go_X	0.0
804.716	1.0	go	0.355	Go_O	0.0
807.241	0.25	stopfail	0.351	Go_O	0.0
809.781	1.0	go	0.352	Go_O	0.0
