onset	duration	trial_type	response_time	stim_file	accuracy
340.156	1.0	go	0.964	Go_O	1.0
342.747	1.0	go	0.471	Go_X	1.0
345.271	1.0	go	0.627	Go_X	1.0
347.795	1.0	go	0.392	Go_O	1.0
350.319	1.0	go	0.618	Go_O	1.0
352.844	1.0	go	0.41	Go_X	1.0
355.368	0.25	stop	0.0	Go_O	1.0
357.892	1.0	go	0.59	Go_O	1.0
360.416	0.3	stop	0.404	Go_X	0.0
362.941	1.0	go	0.655	Go_X	1.0
365.465	1.0	go	0.61	Go_X	1.0
367.989	1.0	go	0.231	Go_O	0.0
370.513	0.25	stop	0.383	Go_O	0.0
373.037	1.0	go	0.44	Go_O	1.0
375.562	1.0	go	0.394	Go_X	1.0
378.086	0.2	stop	0.319	Go_X	0.0
380.61	0.15	stop	0.0	Go_O	1.0
383.134	1.0	go	0.342	Go_X	1.0
385.659	1.0	go	0.462	Go_O	1.0
388.183	0.2	stop	0.302	Go_X	0.0
390.707	1.0	go	0.509	Go_X	1.0
393.231	1.0	go	0.688	Go_O	1.0
395.755	0.15	stop	0.0	Go_O	1.0
398.28	1.0	go	0.474	Go_O	1.0
400.804	1.0	go	0.57	Go_X	1.0
403.328	0.2	stop	0.346	Go_X	0.0
405.852	1.0	go	0.372	Go_X	1.0
408.377	1.0	go	0.76	Go_O	1.0
410.901	0.15	stop	0.0	Go_O	1.0
413.425	1.0	go	0.298	Go_X	1.0
415.949	1.0	go	0.426	Go_O	1.0
418.473	1.0	go	0.378	Go_O	1.0
420.998	1.0	go	0.484	Go_X	1.0
423.522	1.0	go	0.454	Go_X	1.0
426.046	0.2	stop	0.308	Go_X	0.0
428.57	1.0	go	0.373	Go_O	1.0
431.095	1.0	go	0.484	Go_O	1.0
433.619	1.0	go	0.337	Go_X	1.0
436.143	1.0	go	0.327	Go_X	1.0
438.667	1.0	go	0.376	Go_O	1.0
441.191	0.15	stop	0.0	Go_O	1.0
443.716	1.0	go	0.528	Go_X	1.0
446.24	1.0	go	0.264	Go_O	1.0
448.764	1.0	go	0.4	Go_O	1.0
451.288	1.0	go	0.402	Go_X	1.0
453.813	1.0	go	0.511	Go_X	1.0
456.337	1.0	go	0.434	Go_O	1.0
458.861	0.2	stop	0.296	Go_X	0.0
461.385	1.0	go	0.695	Go_X	1.0
463.91	1.0	go	0.62	Go_O	1.0
466.434	0.15	stop	0.0	Go_O	1.0
468.958	1.0	go	0.512	Go_O	1.0
471.482	0.2	stop	0.331	Go_X	0.0
474.006	0.15	stop	0.0	Go_O	1.0
476.531	1.0	go	0.495	Go_X	1.0
479.055	1.0	go	0.0	Go_X	0.0
481.579	1.0	go	0.291	Go_O	1.0
484.103	1.0	go	0.354	Go_O	1.0
486.628	0.2	stop	0.0	Go_X	1.0
489.152	1.0	go	0.503	Go_X	1.0
491.676	0.25	stop	0.484	Go_O	0.0
494.2	1.0	go	0.476	Go_O	1.0
496.724	1.0	go	0.575	Go_X	1.0
499.249	1.0	go	0.391	Go_O	1.0
501.773	1.0	go	0.394	Go_X	1.0
504.297	1.0	go	0.496	Go_X	1.0
506.821	1.0	go	0.269	Go_O	1.0
509.346	1.0	go	0.304	Go_X	1.0
511.87	1.0	go	0.209	Go_O	1.0
514.394	1.0	go	0.384	Go_X	1.0
516.918	0.2	stop	0.0	Go_X	1.0
519.442	1.0	go	0.604	Go_O	1.0
521.967	1.0	go	0.0	Go_O	0.0
524.491	1.0	go	0.391	Go_X	1.0
527.015	0.25	stop	0.0	Go_O	1.0
529.539	1.0	go	0.539	Go_O	1.0
532.064	1.0	go	0.264	Go_X	1.0
534.588	1.0	go	0.397	Go_O	1.0
537.112	1.0	go	0.361	Go_X	1.0
539.636	1.0	go	0.361	Go_O	1.0
542.16	1.0	go	0.324	Go_X	1.0
544.685	0.3	stop	0.218	Go_X	0.0
547.209	1.0	go	0.563	Go_O	1.0
549.733	1.0	go	0.795	Go_X	1.0
552.257	0.25	stop	0.0	Go_O	1.0
554.782	1.0	go	0.579	Go_O	1.0
557.306	1.0	go	0.431	Go_X	1.0
559.83	0.3	stop	0.415	Go_X	0.0
562.354	1.0	go	0.681	Go_O	1.0
564.878	0.25	stop	0.364	Go_O	0.0
567.403	1.0	go	0.449	Go_X	1.0
569.927	1.0	go	0.729	Go_O	1.0
572.451	1.0	go	0.734	Go_X	1.0
574.975	1.0	go	0.385	Go_X	1.0
577.5	1.0	go	0.468	Go_O	1.0
580.024	0.2	stop	0.0	Go_X	1.0
582.548	0.25	stop	0.0	Go_O	1.0
585.072	1.0	go	0.597	Go_X	1.0
587.597	1.0	go	0.363	Go_O	1.0
590.121	0.3	stop	0.0	Go_X	1.0
592.645	1.0	go	0.609	Go_X	1.0
595.169	1.0	go	0.331	Go_O	1.0
597.693	1.0	go	0.49	Go_O	1.0
600.218	1.0	go	0.386	Go_X	1.0
602.742	1.0	go	0.407	Go_O	1.0
605.266	1.0	go	0.477	Go_X	1.0
607.79	0.35	stop	0.0	Go_O	1.0
610.315	1.0	go	0.445	Go_X	1.0
612.839	1.0	go	0.579	Go_O	1.0
615.363	1.0	go	0.759	Go_X	1.0
617.887	1.0	go	0.5	Go_O	1.0
620.411	1.0	go	0.417	Go_X	1.0
622.936	0.4	stop	0.461	Go_X	0.0
625.46	1.0	go	0.458	Go_O	1.0
627.984	1.0	go	0.504	Go_X	1.0
630.508	1.0	go	0.337	Go_O	1.0
633.033	1.0	go	0.515	Go_X	1.0
635.557	0.35	stop	0.451	Go_O	0.0
638.081	1.0	go	0.636	Go_O	1.0
640.605	1.0	go	0.287	Go_X	1.0
643.129	0.3	stop	0.0	Go_X	1.0
645.654	1.0	go	0.545	Go_O	1.0
648.178	0.35	stop	0.495	Go_O	0.0
650.702	1.0	go	0.906	Go_X	1.0
653.226	1.0	go	0.515	Go_O	1.0
655.751	1.0	go	0.176	Go_O	0.0
658.275	1.0	go	0.378	Go_X	1.0
660.799	1.0	go	0.447	Go_X	1.0
663.323	1.0	go	0.87	Go_O	1.0
665.847	1.0	go	0.548	Go_O	1.0
668.372	0.3	stop	0.0	Go_X	1.0
670.896	1.0	go	0.515	Go_X	1.0
673.42	1.0	go	0.42	Go_X	1.0
675.944	1.0	go	0.602	Go_O	1.0
678.469	0.35	stop	0.0	Go_O	1.0
680.993	1.0	go	0.737	Go_O	1.0
683.517	1.0	go	0.512	Go_X	1.0
686.041	1.0	go	0.513	Go_X	1.0
688.565	1.0	go	0.455	Go_O	1.0
691.09	0.4	stop	0.483	Go_X	0.0
693.614	1.0	go	0.443	Go_O	1.0
696.138	1.0	go	0.523	Go_X	1.0
698.662	0.35	stop	0.397	Go_O	0.0
701.187	1.0	go	0.571	Go_X	1.0
703.711	1.0	go	0.0	Go_O	0.0
706.235	0.3	stop	0.0	Go_X	1.0
708.759	1.0	go	0.492	Go_X	1.0
711.284	1.0	go	0.582	Go_O	1.0
713.808	0.35	stop	0.681	Go_O	0.0
716.332	1.0	go	0.513	Go_X	1.0
718.856	1.0	go	0.43	Go_O	1.0
721.38	1.0	go	0.364	Go_O	0.0
723.905	1.0	go	0.533	Go_X	1.0
726.429	1.0	go	0.554	Go_X	1.0
728.953	1.0	go	0.467	Go_O	1.0
731.477	0.3	stop	0.575	Go_X	0.0
734.002	1.0	go	0.33	Go_O	0.0
736.526	0.25	stop	0.36	Go_O	0.0
739.05	1.0	go	0.328	Go_X	1.0
741.574	1.0	go	0.412	Go_O	1.0
744.098	1.0	go	0.417	Go_X	1.0
746.623	1.0	go	0.355	Go_O	1.0
749.147	1.0	go	0.345	Go_X	1.0
751.671	0.2	stop	0.0	Go_X	1.0
754.195	1.0	go	0.552	Go_X	1.0
756.72	1.0	go	0.556	Go_O	1.0
759.244	1.0	go	0.451	Go_X	1.0
761.768	0.25	stop	0.407	Go_O	0.0
764.292	0.2	stop	0.357	Go_X	0.0
766.816	0.15	stop	0.0	Go_O	1.0
769.341	1.0	go	0.78	Go_O	1.0
771.865	0.2	stop	0.442	Go_X	0.0
774.389	1.0	go	0.485	Go_O	1.0
776.913	1.0	go	0.446	Go_X	1.0
779.438	1.0	go	0.477	Go_X	1.0
781.962	1.0	go	0.437	Go_O	1.0
784.486	1.0	go	0.456	Go_O	1.0
787.01	1.0	go	0.435	Go_X	1.0
789.534	1.0	go	0.543	Go_O	1.0
792.059	1.0	go	0.491	Go_X	1.0
794.583	0.15	stop	0.407	Go_O	0.0
797.107	1.0	go	0.331	Go_O	1.0
799.631	1.0	go	0.516	Go_X	1.0
802.156	0.1	stop	0.0	Go_X	1.0
804.68	1.0	go	0.0	Go_X	0.0
807.204	1.0	go	0.482	Go_O	1.0
809.728	1.0	go	0.42	Go_X	1.0
812.252	1.0	go	0.575	Go_O	1.0
814.777	1.0	go	0.373	Go_X	1.0
817.301	0.15	stop	0.0	Go_O	1.0
819.825	1.0	go	0.508	Go_O	1.0
822.349	1.0	go	0.342	Go_X	1.0
824.874	1.0	go	0.448	Go_O	1.0
827.398	0.2	stop	0.322	Go_X	0.0
829.922	1.0	go	0.785	Go_X	1.0
832.446	0.15	stop	0.23	Go_O	0.0
834.971	1.0	go	0.67	Go_O	1.0
837.495	1.0	go	0.601	Go_X	1.0
840.019	1.0	go	0.383	Go_O	1.0
842.543	1.0	go	0.445	Go_O	1.0
845.067	1.0	go	0.375	Go_X	1.0
847.592	1.0	go	0.644	Go_X	1.0
850.116	1.0	go	0.372	Go_O	1.0
852.64	0.1	stop	0.0	Go_X	1.0
855.164	1.0	go	0.333	Go_O	1.0
857.689	1.0	go	0.395	Go_X	1.0
860.213	1.0	go	0.435	Go_X	1.0
862.737	1.0	go	0.516	Go_O	1.0
865.261	0.15	stop	0.0	Go_O	1.0
867.785	1.0	go	0.356	Go_X	1.0
870.31	0.2	stop	0.0	Go_X	1.0
872.834	1.0	go	0.537	Go_O	1.0
875.358	1.0	go	0.605	Go_O	1.0
877.882	0.25	stop	0.0	Go_O	1.0
880.407	1.0	go	0.579	Go_X	1.0
882.931	1.0	go	0.734	Go_O	1.0
885.455	1.0	go	0.743	Go_X	1.0
887.979	1.0	go	0.464	Go_X	1.0
890.503	1.0	go	0.471	Go_O	1.0
893.028	1.0	go	0.498	Go_X	1.0
895.552	1.0	go	0.448	Go_O	1.0
898.076	1.0	go	0.416	Go_O	0.0
900.6	1.0	go	0.341	Go_X	1.0
903.125	1.0	go	0.832	Go_X	1.0
905.649	0.3	stop	0.0	Go_X	1.0
908.173	1.0	go	0.396	Go_O	1.0
910.697	1.0	go	0.91	Go_O	1.0
913.221	0.35	stop	0.552	Go_O	0.0
915.746	1.0	go	0.304	Go_X	1.0
918.27	0.3	stop	0.0	Go_X	1.0
920.794	1.0	go	0.469	Go_O	1.0
923.318	1.0	go	0.502	Go_X	1.0
925.843	0.35	stop	0.362	Go_O	0.0
928.367	1.0	go	0.548	Go_X	1.0
930.891	0.3	stop	0.0	Go_X	1.0
933.415	1.0	go	0.564	Go_O	1.0
935.939	1.0	go	0.24	Go_X	1.0
938.464	1.0	go	0.442	Go_O	1.0
940.988	0.35	stop	0.418	Go_O	0.0
943.512	1.0	go	0.442	Go_O	1.0
946.036	1.0	go	0.552	Go_X	1.0
948.561	1.0	go	0.34	Go_X	1.0
951.085	1.0	go	0.437	Go_O	1.0
953.609	0.3	stop	0.0	Go_X	1.0
956.133	1.0	go	0.4	Go_X	1.0
958.658	1.0	go	0.361	Go_O	1.0
961.182	0.35	stop	0.375	Go_O	0.0
963.706	1.0	go	0.508	Go_X	1.0
966.23	1.0	go	0.382	Go_O	1.0
968.754	1.0	go	0.387	Go_X	1.0
971.279	1.0	go	0.483	Go_O	1.0
973.803	0.3	stop	0.0	Go_X	1.0
976.327	1.0	go	0.63	Go_O	1.0
978.851	0.35	stop	0.0	Go_O	1.0
981.376	1.0	go	0.491	Go_X	1.0
983.9	1.0	go	0.463	Go_O	1.0
986.424	0.4	stop	0.419	Go_X	0.0
988.948	1.0	go	0.768	Go_X	1.0
991.472	1.0	go	0.379	Go_X	0.0
993.997	1.0	go	0.439	Go_O	1.0
996.521	1.0	go	0.346	Go_X	1.0
999.045	0.35	stop	0.428	Go_O	0.0
1001.569	1.0	go	0.969	Go_O	1.0
1004.094	0.3	stop	0.0	Go_X	1.0
1006.618	1.0	go	0.398	Go_O	1.0
1009.142	1.0	go	0.351	Go_X	1.0
1011.666	1.0	go	0.749	Go_O	1.0
1014.19	1.0	go	0.872	Go_X	1.0
1016.715	1.0	go	0.27	Go_O	1.0
1019.239	1.0	go	0.344	Go_X	1.0
1021.763	0.35	stop	0.247	Go_O	0.0
1024.287	1.0	go	0.428	Go_O	1.0
1026.812	1.0	go	0.273	Go_X	1.0
1029.336	0.3	stop	0.0	Go_X	1.0
1031.86	1.0	go	0.265	Go_X	0.0
1034.384	1.0	go	0.809	Go_O	1.0
1036.908	0.35	stop	0.452	Go_O	0.0
1039.433	1.0	go	0.497	Go_O	1.0
1041.957	1.0	go	0.356	Go_X	1.0
1044.481	1.0	go	0.441	Go_X	1.0
1047.005	1.0	go	0.393	Go_O	1.0
1049.53	0.3	stop	0.431	Go_X	0.0
1052.054	1.0	go	0.547	Go_O	1.0
1054.578	0.25	stop	0.474	Go_O	0.0
1057.102	1.0	go	0.607	Go_X	1.0
1059.627	1.0	go	0.875	Go_X	1.0
1062.151	1.0	go	0.516	Go_O	1.0
1064.675	1.0	go	0.754	Go_O	1.0
1067.199	1.0	go	0.556	Go_X	1.0
1069.723	0.2	stop	0.0	Go_X	1.0
1072.248	1.0	go	0.454	Go_X	1.0
1074.772	1.0	go	0.608	Go_O	1.0
1077.296	0.25	stop	0.422	Go_O	0.0
1079.82	0.2	stop	0.0	Go_X	1.0
1082.345	1.0	go	0.513	Go_X	1.0
1084.869	1.0	go	0.445	Go_O	1.0
1087.393	1.0	go	0.638	Go_X	1.0
1089.917	1.0	go	0.798	Go_O	1.0
1092.441	0.25	stop	0.0	Go_O	1.0
1094.966	1.0	go	0.547	Go_X	1.0
