onset	duration	trial_type	response_time	stim_file	accuracy
65.434	1.0	go	0.873	Go_X	1.0
67.983	1.0	go	0.414	Go_O	1.0
70.517	1.0	go	0.422	Go_O	1.0
73.05	1.0	go	0.318	Go_X	1.0
75.583	1.0	go	0.458	Go_O	1.0
78.116	1.0	go	0.381	Go_X	0.0
80.65	0.25	stop	0.327	Go_O	0.0
83.183	1.0	go	0.584	Go_X	1.0
85.716	0.2	stop	0.337	Go_X	0.0
88.25	1.0	go	0.47	Go_O	1.0
90.783	1.0	go	0.534	Go_X	1.0
93.316	1.0	go	0.408	Go_O	1.0
95.849	0.15	stop	0.0	Go_O	1.0
98.383	1.0	go	0.514	Go_O	1.0
100.916	1.0	go	0.394	Go_X	1.0
103.449	0.2	stop	0.0	Go_X	1.0
105.982	0.25	stop	0.389	Go_O	0.0
108.516	1.0	go	0.613	Go_O	1.0
111.049	1.0	go	0.539	Go_X	1.0
113.582	0.2	stop	0.0	Go_X	1.0
116.115	1.0	go	0.562	Go_X	1.0
118.649	1.0	go	0.48	Go_O	1.0
121.182	0.25	stop	0.38	Go_O	0.0
123.715	1.0	go	0.511	Go_O	1.0
126.249	1.0	go	0.436	Go_X	1.0
128.798	0.2	stop	0.0	Go_X	1.0
131.332	1.0	go	0.531	Go_X	1.0
133.865	1.0	go	0.962	Go_O	1.0
136.398	0.25	stop	0.388	Go_O	0.0
138.931	1.0	go	0.518	Go_X	1.0
141.465	1.0	go	0.48	Go_O	1.0
143.998	1.0	go	0.428	Go_X	1.0
146.531	1.0	go	0.514	Go_O	1.0
149.065	1.0	go	0.365	Go_O	1.0
151.614	0.2	stop	0.375	Go_X	0.0
154.148	1.0	go	0.538	Go_X	1.0
156.681	1.0	go	0.635	Go_O	1.0
159.214	1.0	go	0.497	Go_X	1.0
161.748	1.0	go	0.723	Go_O	1.0
164.297	1.0	go	0.317	Go_X	1.0
166.831	0.15	stop	0.0	Go_O	1.0
169.364	1.0	go	0.53	Go_O	1.0
171.897	1.0	go	0.411	Go_X	1.0
174.431	1.0	go	0.512	Go_X	0.0
176.98	1.0	go	0.0	Go_O	0.0
179.514	1.0	go	0.416	Go_X	1.0
182.047	1.0	go	0.594	Go_O	1.0
184.58	0.2	stop	0.0	Go_X	1.0
187.113	1.0	go	0.583	Go_O	1.0
189.647	1.0	go	0.628	Go_X	1.0
192.18	0.25	stop	0.0	Go_O	1.0
194.713	1.0	go	0.325	Go_O	1.0
197.247	0.3	stop	0.0	Go_X	1.0
199.78	0.35	stop	0.0	Go_O	1.0
202.313	1.0	go	0.665	Go_X	1.0
204.846	1.0	go	0.64	Go_O	1.0
207.38	1.0	go	0.558	Go_X	1.0
209.913	1.0	go	0.661	Go_O	1.0
212.446	0.4	stop	0.55	Go_X	0.0
214.979	1.0	go	0.502	Go_X	1.0
217.513	0.35	stop	0.572	Go_O	0.0
220.046	1.0	go	0.535	Go_O	1.0
222.579	1.0	go	0.561	Go_X	1.0
225.112	1.0	go	0.504	Go_O	1.0
227.646	1.0	go	0.677	Go_X	1.0
230.179	1.0	go	0.71	Go_O	1.0
232.712	1.0	go	0.511	Go_X	1.0
235.246	1.0	go	0.573	Go_O	1.0
237.795	1.0	go	0.62	Go_X	1.0
240.329	1.0	go	0.845	Go_O	0.0
242.862	0.3	stop	0.358	Go_X	0.0
245.395	1.0	go	0.522	Go_X	1.0
247.928	1.0	go	0.56	Go_O	1.0
250.462	1.0	go	0.907	Go_X	0.0
252.995	0.25	stop	0.0	Go_O	1.0
255.528	1.0	go	0.564	Go_X	1.0
258.062	1.0	go	0.548	Go_O	1.0
260.611	1.0	go	0.888	Go_O	0.0
263.145	1.0	go	0.0	Go_X	0.0
265.678	1.0	go	0.495	Go_X	1.0
268.211	1.0	go	0.682	Go_O	1.0
270.745	0.3	stop	0.0	Go_X	1.0
273.294	1.0	go	0.532	Go_O	1.0
275.828	1.0	go	0.746	Go_X	1.0
278.361	0.35	stop	0.0	Go_O	1.0
280.894	1.0	go	0.0	Go_X	0.0
283.428	1.0	go	0.673	Go_O	1.0
285.977	0.4	stop	0.541	Go_X	0.0
288.511	1.0	go	0.765	Go_O	1.0
291.044	0.35	stop	0.644	Go_O	0.0
293.577	1.0	go	0.748	Go_X	1.0
296.11	1.0	go	0.863	Go_O	1.0
298.644	1.0	go	0.458	Go_X	1.0
301.177	1.0	go	0.611	Go_X	1.0
303.71	1.0	go	0.361	Go_O	1.0
306.244	0.3	stop	0.392	Go_X	0.0
308.777	0.25	stop	0.769	Go_O	0.0
311.31	1.0	go	0.565	Go_X	1.0
313.843	1.0	go	0.905	Go_O	1.0
316.377	0.2	stop	0.0	Go_X	1.0
318.91	1.0	go	0.758	Go_O	1.0
321.443	1.0	go	0.618	Go_X	1.0
323.976	1.0	go	0.726	Go_X	1.0
326.51	1.0	go	0.451	Go_O	1.0
329.043	1.0	go	0.526	Go_X	1.0
331.576	1.0	go	0.397	Go_O	1.0
334.109	0.25	stop	0.0	Go_O	1.0
336.643	1.0	go	0.593	Go_X	0.0
339.176	1.0	go	0.821	Go_O	1.0
341.709	1.0	go	0.934	Go_O	1.0
344.242	1.0	go	0.729	Go_X	1.0
346.776	1.0	go	0.791	Go_X	1.0
349.309	0.3	stop	0.0	Go_X	1.0
351.842	1.0	go	0.639	Go_O	1.0
354.376	1.0	go	0.825	Go_O	1.0
356.909	1.0	go	0.65	Go_X	1.0
359.442	1.0	go	0.684	Go_O	1.0
361.975	0.35	stop	0.0	Go_O	1.0
364.509	1.0	go	0.833	Go_X	1.0
367.042	1.0	go	0.623	Go_X	1.0
369.575	0.4	stop	0.449	Go_X	0.0
372.108	1.0	go	0.698	Go_O	1.0
374.642	0.35	stop	0.0	Go_O	1.0
377.175	1.0	go	0.666	Go_X	1.0
379.708	1.0	go	0.816	Go_O	1.0
382.241	1.0	go	0.706	Go_O	1.0
384.775	1.0	go	0.698	Go_X	1.0
387.308	1.0	go	0.564	Go_O	1.0
389.841	1.0	go	0.715	Go_X	1.0
392.375	1.0	go	0.678	Go_O	1.0
394.924	0.4	stop	0.0	Go_X	1.0
397.458	1.0	go	0.98	Go_X	0.0
399.991	1.0	go	0.696	Go_O	1.0
402.524	1.0	go	0.831	Go_X	1.0
405.058	0.45	stop	0.524	Go_O	0.0
407.607	1.0	go	0.373	Go_O	1.0
410.141	1.0	go	0.465	Go_X	1.0
412.674	1.0	go	0.71	Go_X	1.0
415.207	1.0	go	0.449	Go_O	1.0
417.74	0.4	stop	0.511	Go_X	0.0
420.274	1.0	go	0.91	Go_O	1.0
422.807	1.0	go	0.606	Go_X	1.0
425.34	0.35	stop	0.0	Go_O	1.0
427.874	1.0	go	0.751	Go_O	0.0
430.423	1.0	go	0.893	Go_X	1.0
432.957	0.4	stop	0.0	Go_X	1.0
435.49	1.0	go	0.647	Go_O	1.0
438.023	1.0	go	0.921	Go_X	1.0
440.557	0.45	stop	0.521	Go_O	0.0
443.106	1.0	go	0.564	Go_X	1.0
445.64	1.0	go	0.56	Go_O	1.0
448.173	1.0	go	0.579	Go_X	1.0
450.706	1.0	go	0.537	Go_O	1.0
453.239	1.0	go	0.502	Go_O	1.0
455.773	1.0	go	0.684	Go_X	1.0
458.306	0.4	stop	0.536	Go_X	0.0
460.839	1.0	go	0.0	Go_O	0.0
463.373	0.35	stop	0.0	Go_O	1.0
465.906	1.0	go	0.836	Go_X	1.0
468.439	1.0	go	0.591	Go_X	1.0
470.972	1.0	go	0.456	Go_O	1.0
473.506	1.0	go	0.841	Go_X	1.0
476.039	1.0	go	0.698	Go_O	1.0
478.572	0.4	stop	0.677	Go_X	0.0
481.105	1.0	go	0.621	Go_O	1.0
483.639	1.0	go	0.633	Go_X	1.0
486.172	1.0	go	0.406	Go_O	1.0
488.705	0.35	stop	0.566	Go_O	0.0
491.238	0.3	stop	0.0	Go_X	1.0
493.772	0.35	stop	0.0	Go_O	1.0
496.305	1.0	go	0.807	Go_X	0.0
498.838	0.4	stop	0.0	Go_X	1.0
501.372	1.0	go	0.809	Go_X	1.0
503.921	1.0	go	0.463	Go_O	1.0
506.455	1.0	go	0.0	Go_X	0.0
508.988	1.0	go	0.587	Go_O	1.0
511.521	1.0	go	0.0	Go_X	0.0
514.054	1.0	go	0.648	Go_O	1.0
516.588	1.0	go	0.488	Go_X	1.0
519.121	1.0	go	0.626	Go_O	1.0
521.654	0.45	stop	0.541	Go_O	0.0
524.188	1.0	go	0.509	Go_X	1.0
526.721	1.0	go	0.689	Go_O	1.0
529.254	0.4	stop	0.0	Go_X	1.0
531.787	1.0	go	0.675	Go_O	1.0
534.321	1.0	go	0.61	Go_X	1.0
536.854	1.0	go	0.596	Go_X	1.0
539.387	1.0	go	0.802	Go_O	1.0
541.92	1.0	go	0.62	Go_X	1.0
544.454	0.45	stop	0.527	Go_O	0.0
546.987	1.0	go	0.718	Go_O	1.0
549.52	1.0	go	0.0	Go_O	0.0
552.053	1.0	go	0.748	Go_X	1.0
554.587	0.4	stop	0.0	Go_X	1.0
557.12	1.0	go	0.491	Go_O	1.0
559.653	0.45	stop	0.0	Go_O	1.0
562.186	1.0	go	0.546	Go_X	1.0
564.72	1.0	go	0.666	Go_X	1.0
567.253	1.0	go	0.633	Go_O	1.0
569.786	1.0	go	0.0	Go_O	0.0
572.32	1.0	go	0.62	Go_X	1.0
574.853	1.0	go	0.446	Go_O	1.0
577.386	1.0	go	0.62	Go_X	1.0
579.919	0.5	stop	0.45	Go_X	0.0
582.453	1.0	go	0.636	Go_X	1.0
584.986	1.0	go	0.687	Go_O	1.0
587.519	1.0	go	0.551	Go_O	1.0
590.052	1.0	go	0.665	Go_X	1.0
592.586	0.45	stop	0.659	Go_O	0.0
595.119	1.0	go	0.6	Go_O	1.0
597.652	0.4	stop	0.532	Go_X	0.0
600.185	1.0	go	0.0	Go_X	0.0
602.719	1.0	go	0.758	Go_X	1.0
605.252	0.35	stop	0.589	Go_O	0.0
607.785	1.0	go	0.726	Go_O	1.0
610.319	1.0	go	0.592	Go_X	1.0
612.868	1.0	go	0.744	Go_O	1.0
615.402	1.0	go	0.74	Go_X	1.0
617.935	1.0	go	0.973	Go_O	1.0
620.468	1.0	go	0.592	Go_O	1.0
623.001	1.0	go	0.839	Go_X	1.0
625.535	1.0	go	0.962	Go_X	0.0
628.068	1.0	go	0.645	Go_O	1.0
630.601	1.0	go	0.586	Go_O	1.0
633.135	0.3	stop	0.0	Go_X	1.0
635.684	1.0	go	0.526	Go_X	1.0
638.218	1.0	go	0.625	Go_X	1.0
640.751	0.35	stop	0.665	Go_O	0.0
643.284	1.0	go	0.974	Go_O	1.0
645.818	0.3	stop	0.0	Go_X	1.0
648.367	1.0	go	0.742	Go_O	1.0
650.901	1.0	go	0.846	Go_X	1.0
653.434	0.35	stop	0.0	Go_O	1.0
655.967	1.0	go	0.721	Go_X	1.0
658.5	0.4	stop	0.0	Go_X	1.0
661.034	1.0	go	0.723	Go_O	1.0
663.567	1.0	go	0.0	Go_O	0.0
666.1	1.0	go	0.643	Go_X	1.0
668.634	0.45	stop	0.61	Go_O	0.0
671.167	1.0	go	0.577	Go_X	1.0
673.7	1.0	go	0.529	Go_O	1.0
676.233	1.0	go	0.0	Go_O	0.0
678.767	1.0	go	0.811	Go_X	1.0
681.3	0.4	stop	0.0	Go_X	1.0
683.833	1.0	go	0.47	Go_O	1.0
686.366	1.0	go	0.442	Go_X	1.0
688.9	0.45	stop	0.0	Go_O	1.0
691.433	1.0	go	0.636	Go_X	1.0
693.966	1.0	go	0.836	Go_O	0.0
696.499	1.0	go	0.473	Go_O	1.0
699.033	1.0	go	0.717	Go_X	1.0
701.566	0.5	stop	0.0	Go_X	1.0
704.099	1.0	go	0.803	Go_X	0.0
706.633	0.55	stop	0.536	Go_O	0.0
709.182	1.0	go	0.7	Go_O	1.0
711.716	1.0	go	0.714	Go_X	1.0
714.249	0.5	stop	0.0	Go_X	1.0
716.782	1.0	go	0.663	Go_O	0.0
719.315	1.0	go	0.708	Go_O	1.0
721.849	1.0	go	0.866	Go_X	1.0
724.382	1.0	go	0.657	Go_X	1.0
726.915	0.55	stop	0.57	Go_O	0.0
729.449	1.0	go	0.428	Go_O	1.0
731.982	0.5	stop	0.716	Go_X	0.0
734.515	1.0	go	0.45	Go_O	1.0
737.048	1.0	go	0.559	Go_X	1.0
739.582	1.0	go	0.0	Go_X	0.0
742.115	1.0	go	0.628	Go_O	1.0
744.648	1.0	go	0.511	Go_X	1.0
747.181	1.0	go	0.608	Go_O	1.0
749.715	0.45	stop	0.573	Go_O	0.0
752.248	1.0	go	0.0	Go_X	0.0
754.781	1.0	go	0.781	Go_O	1.0
757.314	0.4	stop	0.567	Go_X	0.0
759.848	1.0	go	0.772	Go_X	1.0
762.381	1.0	go	0.648	Go_O	1.0
764.914	0.35	stop	0.0	Go_O	1.0
767.447	1.0	go	0.783	Go_X	0.0
769.981	1.0	go	0.52	Go_O	1.0
772.514	1.0	go	0.747	Go_O	1.0
775.047	1.0	go	0.726	Go_X	1.0
777.581	0.4	stop	0.0	Go_X	1.0
780.114	1.0	go	0.625	Go_X	1.0
782.647	0.45	stop	0.605	Go_O	0.0
785.18	1.0	go	0.49	Go_O	1.0
787.714	1.0	go	0.757	Go_X	1.0
790.247	1.0	go	0.751	Go_O	1.0
792.78	1.0	go	0.929	Go_O	0.0
795.313	1.0	go	0.756	Go_X	1.0
797.847	0.4	stop	0.496	Go_X	0.0
800.38	1.0	go	0.544	Go_X	1.0
802.913	1.0	go	0.733	Go_O	1.0
805.446	0.35	stop	0.0	Go_O	1.0
807.98	0.4	stop	0.0	Go_X	1.0
810.513	1.0	go	0.852	Go_X	0.0
813.046	1.0	go	0.597	Go_O	1.0
815.579	1.0	go	0.777	Go_O	1.0
818.113	1.0	go	0.582	Go_X	1.0
820.646	0.45	stop	0.0	Go_O	1.0
823.179	1.0	go	0.841	Go_X	0.0
