onset	duration	trial_type	response_time	stim_file	accuracy
443.01	1.0	go	0.0	Go_O	0.0
445.601	1.0	go	0.507	Go_X	1.0
448.125	1.0	go	0.391	Go_O	1.0
450.649	1.0	go	0.347	Go_X	1.0
453.173	1.0	go	0.382	Go_O	1.0
455.698	1.0	go	0.474	Go_X	1.0
458.222	0.25	stopfail	0.34	Go_O	0.0
460.746	1.0	go	0.693	Go_X	1.0
463.27	0.2	stopsuccess	0.0	Go_X	1.0
465.794	1.0	go	0.473	Go_O	1.0
468.319	1.0	go	0.719	Go_X	1.0
470.843	1.0	go	0.0	Go_O	0.0
473.367	0.25	stopsuccess	0.0	Go_O	1.0
475.891	1.0	go	0.397	Go_X	1.0
478.416	1.0	go	0.563	Go_O	1.0
480.94	0.3	stopfail	0.451	Go_X	0.0
483.464	0.25	stopsuccess	0.0	Go_O	1.0
485.988	1.0	go	0.553	Go_X	1.0
488.512	1.0	go	0.571	Go_O	1.0
491.037	0.3	stopsuccess	0.0	Go_X	1.0
493.561	1.0	go	0.526	Go_O	1.0
496.085	1.0	go	0.416	Go_X	1.0
498.609	0.35	stopfail	0.487	Go_O	0.0
501.133	1.0	go	0.642	Go_X	1.0
503.658	1.0	go	0.585	Go_O	1.0
506.182	0.3	stopsuccess	0.0	Go_X	1.0
508.706	1.0	go	0.623	Go_X	1.0
511.23	1.0	go	0.565	Go_O	1.0
513.754	0.35	stopsuccess	0.0	Go_O	1.0
516.279	1.0	go	0.567	Go_X	1.0
518.803	1.0	go	0.0	Go_O	0.0
521.327	1.0	go	0.463	Go_O	1.0
523.851	1.0	go	0.668	Go_X	1.0
526.376	1.0	go	0.456	Go_X	1.0
528.9	0.4	stopfail	0.571	Go_X	0.0
531.424	1.0	go	0.65	Go_O	1.0
533.948	1.0	go	0.709	Go_X	1.0
536.472	1.0	go	0.51	Go_O	1.0
538.997	1.0	go	0.645	Go_X	1.0
541.521	1.0	go	0.472	Go_O	1.0
544.045	0.35	stopfail	0.469	Go_O	0.0
546.569	1.0	go	0.57	Go_O	1.0
549.094	1.0	go	0.428	Go_X	1.0
551.618	1.0	go	0.648	Go_O	1.0
554.142	1.0	go	0.0	Go_X	0.0
556.666	1.0	go	0.502	Go_O	1.0
559.19	1.0	go	0.495	Go_X	1.0
561.715	0.3	stopfail	0.456	Go_X	0.0
564.239	1.0	go	0.373	Go_O	1.0
566.763	1.0	go	0.447	Go_X	0.0
569.287	0.25	stopfail	0.376	Go_O	0.0
571.811	1.0	go	0.511	Go_O	1.0
574.336	0.2	stopsuccess	0.0	Go_X	1.0
576.86	0.25	stopfail	0.467	Go_O	0.0
579.384	1.0	go	0.559	Go_X	1.0
581.908	1.0	go	0.542	Go_X	1.0
584.432	1.0	go	0.608	Go_O	1.0
586.957	1.0	go	0.78	Go_O	1.0
589.481	0.2	stopsuccess	0.0	Go_X	1.0
592.005	1.0	go	0.413	Go_X	1.0
594.529	0.25	stopsuccess	0.0	Go_O	1.0
597.054	1.0	go	0.768	Go_X	1.0
599.578	1.0	go	0.925	Go_O	1.0
602.102	1.0	go	0.47	Go_X	1.0
604.626	1.0	go	0.468	Go_O	1.0
607.15	1.0	go	0.547	Go_X	1.0
609.675	1.0	go	0.492	Go_O	1.0
612.199	1.0	go	0.576	Go_O	1.0
614.723	1.0	go	0.646	Go_X	1.0
617.247	1.0	go	0.691	Go_O	1.0
619.771	0.3	stopsuccess	0.0	Go_X	1.0
622.296	1.0	go	0.704	Go_X	1.0
624.82	1.0	go	0.0	Go_X	0.0
627.344	1.0	go	0.623	Go_O	1.0
629.868	0.35	stopsuccess	0.0	Go_O	1.0
632.409	1.0	go	0.0	Go_O	0.0
634.933	1.0	go	0.0	Go_X	0.0
637.458	1.0	go	0.0	Go_X	0.0
639.982	1.0	go	0.438	Go_O	1.0
642.506	1.0	go	0.582	Go_X	1.0
645.03	1.0	go	0.359	Go_O	1.0
647.555	0.4	stopfail	0.599	Go_X	0.0
650.079	1.0	go	0.386	Go_O	1.0
652.603	1.0	go	0.416	Go_X	0.0
655.127	0.35	stopfail	0.381	Go_O	0.0
657.651	1.0	go	0.394	Go_O	1.0
660.176	1.0	go	0.4	Go_X	1.0
662.7	0.3	stopsuccess	0.0	Go_X	1.0
665.224	1.0	go	0.414	Go_X	1.0
667.748	0.35	stopfail	0.588	Go_O	0.0
670.272	1.0	go	0.564	Go_O	1.0
672.797	1.0	go	0.669	Go_X	1.0
675.321	1.0	go	0.0	Go_O	0.0
677.845	1.0	go	0.547	Go_O	1.0
680.369	1.0	go	0.504	Go_X	1.0
682.894	0.3	stopfail	0.367	Go_X	0.0
685.418	0.25	stopsuccess	0.0	Go_O	1.0
687.942	1.0	go	0.746	Go_X	1.0
690.466	1.0	go	0.0	Go_O	0.0
692.99	0.3	stopsuccess	0.0	Go_X	1.0
695.515	1.0	go	0.605	Go_O	1.0
698.039	1.0	go	0.0	Go_X	0.0
700.563	1.0	go	0.52	Go_X	1.0
703.087	1.0	go	0.465	Go_O	1.0
705.611	1.0	go	0.582	Go_X	1.0
708.136	1.0	go	0.0	Go_O	0.0
710.66	0.35	stopsuccess	0.0	Go_O	1.0
713.184	1.0	go	0.562	Go_O	1.0
715.708	1.0	go	0.477	Go_X	0.0
718.233	1.0	go	0.484	Go_O	1.0
720.757	1.0	go	0.411	Go_X	1.0
723.281	1.0	go	0.409	Go_X	1.0
725.805	0.4	stopfail	0.425	Go_X	0.0
728.329	1.0	go	0.0	Go_O	0.0
730.854	1.0	go	0.0	Go_O	0.0
733.378	1.0	go	0.487	Go_X	0.0
735.902	1.0	go	0.61	Go_X	0.0
738.426	0.35	stopfail	0.494	Go_O	0.0
740.95	1.0	go	0.453	Go_O	1.0
743.475	1.0	go	0.381	Go_X	1.0
745.999	0.3	stopfail	0.367	Go_X	0.0
748.523	1.0	go	0.504	Go_O	1.0
751.047	0.25	stopfail	0.445	Go_O	0.0
753.572	1.0	go	0.0	Go_O	0.0
756.096	1.0	go	0.0	Go_X	0.0
758.62	1.0	go	0.0	Go_O	0.0
761.144	1.0	go	0.817	Go_X	0.0
763.668	1.0	go	0.497	Go_X	1.0
766.193	1.0	go	0.402	Go_O	1.0
768.717	1.0	go	0.482	Go_O	1.0
771.241	0.2	stopsuccess	0.0	Go_X	1.0
773.765	1.0	go	0.405	Go_X	1.0
776.289	1.0	go	0.517	Go_X	1.0
778.814	1.0	go	0.686	Go_O	1.0
781.338	0.25	stopsuccess	0.0	Go_O	1.0
783.862	1.0	go	0.562	Go_O	1.0
786.386	1.0	go	0.0	Go_X	0.0
788.911	1.0	go	0.0	Go_O	0.0
791.435	1.0	go	0.0	Go_X	0.0
793.959	0.3	stopsuccess	0.0	Go_X	1.0
796.483	1.0	go	0.0	Go_O	0.0
799.007	1.0	go	0.328	Go_X	0.0
801.532	0.35	stopfail	0.588	Go_O	0.0
804.056	1.0	go	0.379	Go_O	1.0
806.58	1.0	go	0.451	Go_X	1.0
809.104	0.3	stopsuccess	0.0	Go_X	1.0
811.628	1.0	go	0.442	Go_O	1.0
814.153	1.0	go	0.762	Go_X	0.0
816.677	0.35	stopsuccess	0.0	Go_O	1.0
819.201	1.0	go	0.423	Go_O	1.0
821.725	1.0	go	0.443	Go_X	1.0
824.25	1.0	go	0.516	Go_O	1.0
826.774	1.0	go	0.644	Go_X	1.0
829.298	1.0	go	0.601	Go_X	0.0
831.822	1.0	go	0.602	Go_O	0.0
834.346	0.4	stopfail	0.549	Go_X	0.0
836.871	1.0	go	0.706	Go_X	0.0
839.395	0.35	stopfail	0.305	Go_O	0.0
841.919	1.0	go	0.329	Go_O	1.0
844.443	1.0	go	0.401	Go_O	1.0
846.967	1.0	go	0.44	Go_X	1.0
849.492	1.0	go	0.31	Go_X	1.0
852.016	1.0	go	0.552	Go_O	1.0
854.54	0.3	stopfail	0.582	Go_X	0.0
857.064	1.0	go	0.446	Go_X	1.0
859.589	1.0	go	0.0	Go_O	0.0
862.113	1.0	go	0.0	Go_O	0.0
864.637	0.25	stopfail	0.487	Go_O	0.0
867.161	0.2	stopfail	0.31	Go_X	0.0
869.685	0.15	stopsuccess	0.0	Go_O	1.0
872.21	1.0	go	0.397	Go_X	1.0
874.734	0.2	stopsuccess	0.0	Go_X	1.0
877.258	1.0	go	0.0	Go_O	0.0
879.782	1.0	go	0.0	Go_X	0.0
882.306	1.0	go	0.0	Go_O	0.0
884.831	1.0	go	0.0	Go_X	0.0
887.355	1.0	go	0.933	Go_O	1.0
889.879	1.0	go	0.595	Go_X	1.0
892.403	1.0	go	0.343	Go_O	1.0
894.928	1.0	go	0.518	Go_X	1.0
897.452	0.25	stopfail	0.377	Go_O	0.0
899.976	1.0	go	0.769	Go_O	1.0
902.5	1.0	go	0.423	Go_X	1.0
905.024	0.2	stopsuccess	0.0	Go_X	1.0
907.549	1.0	go	0.389	Go_O	1.0
910.073	1.0	go	0.486	Go_X	1.0
912.597	1.0	go	0.489	Go_O	1.0
915.121	1.0	go	0.61	Go_X	1.0
917.645	1.0	go	0.824	Go_X	1.0
920.17	0.25	stopsuccess	0.0	Go_O	1.0
922.694	1.0	go	0.0	Go_O	0.0
925.218	1.0	go	0.0	Go_X	0.0
927.742	1.0	go	0.0	Go_O	0.0
930.267	0.3	stopsuccess	0.0	Go_X	1.0
932.791	1.0	go	0.295	Go_O	1.0
935.315	0.35	stopfail	0.398	Go_O	0.0
937.839	1.0	go	0.418	Go_X	1.0
940.363	1.0	go	0.484	Go_X	1.0
942.888	1.0	go	0.432	Go_O	1.0
945.412	1.0	go	0.353	Go_O	1.0
947.936	1.0	go	0.66	Go_X	1.0
950.46	1.0	go	0.743	Go_O	1.0
952.984	1.0	go	0.0	Go_X	0.0
955.509	0.3	stopsuccess	0.0	Go_X	1.0
958.033	1.0	go	0.402	Go_O	1.0
960.557	1.0	go	0.428	Go_X	1.0
963.081	1.0	go	0.56	Go_O	1.0
965.605	1.0	go	0.49	Go_X	1.0
968.13	0.35	stopfail	0.611	Go_O	0.0
970.654	1.0	go	0.472	Go_O	1.0
973.178	0.3	stopsuccess	0.0	Go_X	1.0
975.702	1.0	go	0.0	Go_X	0.0
978.227	1.0	go	0.0	Go_X	0.0
980.751	0.35	stopsuccess	0.0	Go_O	1.0
983.275	1.0	go	0.0	Go_O	0.0
985.799	1.0	go	0.416	Go_X	1.0
988.323	1.0	go	0.445	Go_O	1.0
990.848	1.0	go	0.52	Go_X	0.0
993.372	1.0	go	0.657	Go_O	1.0
995.896	1.0	go	0.0	Go_X	0.0
998.42	1.0	go	0.0	Go_O	0.0
1000.944	1.0	go	0.0	Go_O	0.0
1003.469	1.0	go	0.0	Go_X	0.0
1005.993	1.0	go	0.558	Go_O	1.0
1008.517	0.4	stopfail	0.329	Go_X	0.0
1011.041	1.0	go	0.45	Go_X	1.0
1013.566	1.0	go	0.519	Go_X	1.0
1016.09	0.35	stopfail	0.637	Go_O	0.0
1018.614	1.0	go	0.409	Go_O	1.0
1021.138	0.3	stopsuccess	0.0	Go_X	1.0
1023.662	1.0	go	0.4	Go_O	1.0
1026.187	1.0	go	0.676	Go_X	1.0
1028.711	0.35	stopsuccess	0.0	Go_O	1.0
1031.235	1.0	go	0.0	Go_O	0.0
1033.759	0.4	stopsuccess	0.0	Go_X	1.0
1036.283	1.0	go	0.0	Go_X	0.0
1038.808	1.0	go	0.424	Go_X	1.0
1041.332	1.0	go	0.443	Go_O	1.0
1043.856	0.45	stopsuccess	0.0	Go_O	1.0
1046.38	1.0	go	0.0	Go_O	0.0
1048.905	1.0	go	0.437	Go_X	1.0
1051.429	1.0	go	0.502	Go_O	1.0
1053.953	1.0	go	0.0	Go_X	0.0
1056.477	0.5	stopsuccess	0.0	Go_X	1.0
1059.001	1.0	go	0.0	Go_X	0.0
1061.526	1.0	go	0.0	Go_O	0.0
1064.05	0.55	stopfail	0.363	Go_O	0.0
1066.574	1.0	go	0.404	Go_O	1.0
1069.098	1.0	go	0.746	Go_X	0.0
1071.622	1.0	go	0.429	Go_X	1.0
1074.147	1.0	go	0.68	Go_O	1.0
1076.671	0.5	stopsuccess	0.0	Go_X	1.0
1079.195	1.0	go	0.0	Go_X	0.0
1081.719	0.55	stopsuccess	0.0	Go_O	1.0
1084.244	1.0	go	0.0	Go_O	0.0
1086.768	1.0	go	0.363	Go_O	1.0
1089.292	0.6	stopfail	0.324	Go_X	0.0
1091.816	1.0	go	0.351	Go_X	1.0
1094.34	1.0	go	0.437	Go_O	1.0
1096.865	1.0	go	0.516	Go_X	1.0
1099.389	1.0	go	0.576	Go_X	1.0
1101.913	0.55	stopsuccess	0.0	Go_O	1.0
1104.437	1.0	go	0.0	Go_O	0.0
1106.961	0.6	stopsuccess	0.0	Go_X	1.0
1109.486	1.0	go	0.0	Go_X	0.0
1112.01	1.0	go	0.0	Go_O	0.0
1114.534	1.0	go	0.0	Go_O	0.0
1117.058	1.0	go	0.0	Go_X	0.0
1119.583	1.0	go	0.0	Go_O	0.0
1122.107	1.0	go	0.476	Go_X	1.0
1124.631	0.65	stopfail	0.446	Go_O	0.0
1127.155	1.0	go	0.507	Go_X	1.0
1129.679	1.0	go	0.306	Go_O	1.0
1132.204	0.6	stopfail	0.373	Go_X	0.0
1134.728	1.0	go	0.5	Go_X	1.0
1137.252	1.0	go	0.0	Go_O	0.0
1139.776	0.55	stopfail	0.573	Go_O	0.0
1142.3	1.0	go	0.0	Go_O	0.0
1144.825	1.0	go	0.0	Go_X	0.0
1147.349	1.0	go	0.0	Go_X	0.0
1149.873	1.0	go	0.0	Go_O	0.0
1152.397	0.5	stopsuccess	0.0	Go_X	1.0
1154.922	1.0	go	0.0	Go_O	0.0
1157.446	0.55	stopsuccess	0.0	Go_O	1.0
1159.97	1.0	go	0.0	Go_X	0.0
1162.494	1.0	go	0.0	Go_O	0.0
1165.018	1.0	go	0.0	Go_X	0.0
1167.543	1.0	go	0.0	Go_X	0.0
1170.067	1.0	go	0.0	Go_O	0.0
1172.591	0.6	stopfail	0.507	Go_X	0.0
1175.115	1.0	go	0.449	Go_X	1.0
1177.639	1.0	go	0.0	Go_O	0.0
1180.164	0.55	stopfail	0.333	Go_O	0.0
1182.688	0.5	stopfail	0.43	Go_X	0.0
1185.212	1.0	go	0.506	Go_O	1.0
1187.736	1.0	go	0.539	Go_X	1.0
1190.261	1.0	go	0.581	Go_X	1.0
1192.785	1.0	go	0.54	Go_O	1.0
1195.309	0.45	stopsuccess	0.0	Go_O	1.0
1197.833	1.0	go	0.0	Go_X	0.0
