frame	onset	duration	trial_type	event_type	response_type	response_time	stim_file	accuracy
0	65.283		control-reward	ImageDisplay1		0.0		
0	67.272	0.75	control-reward	StartDisplay				
0	68.025		control-reward	ImageDisplay2		0.0		
0	71.268	1.6	control-reward	ChoiceDisplay	1	1.066	1	1
0	72.354	0.534	control-reward	ChosenDisplay		0.0		
0	72.872	0.25	control-reward	TurnDisplay				
0	73.123	0.75	control-reward	OutcomeDisplay				
1	73.875		loss-reward	ImageDisplay1		0.0		
1	75.865	0.75	loss-reward	StartDisplay				
1	76.617		loss-reward	ImageDisplay2		0.0		
1	79.877	1.6	loss-reward	ChoiceDisplay	1	0.956	1	1
1	80.846	0.644	loss-reward	ChosenDisplay		0.0		
1	81.481	0.25	loss-reward	TurnDisplay				
1	81.732	0.75	loss-reward	OutcomeDisplay				
2	82.484		win-reward	ImageDisplay1		0.0		
2	84.474	0.75	win-reward	StartDisplay				
2	85.226		win-reward	ImageDisplay2		0.0		
2	88.486	1.6	win-reward	ChoiceDisplay	1	0.839	1	1
2	89.338	0.761	win-reward	ChosenDisplay		0.0		
2	90.09	0.25	win-reward	TurnDisplay				
2	90.341	0.75	win-reward	OutcomeDisplay				
3	91.093		win-reward	ImageDisplay1		0.0		
3	93.333	0.75	win-reward	StartDisplay				
3	94.086		win-reward	ImageDisplay2		0.0		
3	97.094	1.6	win-reward	ChoiceDisplay	1	0.76	1	1
3	97.88	0.84	win-reward	ChosenDisplay		0.0		
3	98.699	0.25	win-reward	TurnDisplay				
3	98.95	0.75	win-reward	OutcomeDisplay				
4	99.702		win-noreward	ImageDisplay1		0.0		
4	101.691	0.75	win-noreward	StartDisplay				
4	102.444		win-noreward	ImageDisplay2		0.0		
4	105.703	1.6	win-noreward	ChoiceDisplay	1	1.037	1	1
4	106.757	0.563	win-noreward	ChosenDisplay		0.0		
4	107.308	0.25	win-noreward	TurnDisplay				
4	107.559	0.75	win-noreward	OutcomeDisplay				
5	108.311		control-noreward	ImageDisplay1		0.0		
5	110.3	0.75	control-noreward	StartDisplay				
5	111.053		control-noreward	ImageDisplay2		0.0		
5	114.312	1.6	control-noreward	ChoiceDisplay	1	0.911	1	1
5	115.248	0.689	control-noreward	ChosenDisplay		0.0		
5	115.917	0.25	control-noreward	TurnDisplay				
5	116.168	0.75	control-noreward	OutcomeDisplay				
6	116.92		win-reward	ImageDisplay1		0.0		
6	118.909	0.75	win-reward	StartDisplay				
6	119.662		win-reward	ImageDisplay2		0.0		
6	122.921	1.6	win-reward	ChoiceDisplay	1	1.06	1	1
6	124.008	0.54	win-reward	ChosenDisplay		0.0		
6	124.526	0.25	win-reward	TurnDisplay				
6	124.777	0.75	win-reward	OutcomeDisplay				
7	125.529		win-noreward	ImageDisplay1		0.0		
7	127.518	0.75	win-noreward	StartDisplay				
7	128.271		win-noreward	ImageDisplay2		0.0		
7	131.53	1.6	win-noreward	ChoiceDisplay	1	0.861	1	1
7	132.416	0.739	win-noreward	ChosenDisplay		0.0		
7	133.135	0.25	win-noreward	TurnDisplay				
7	133.386	0.75	win-noreward	OutcomeDisplay				
8	134.138		win-reward	ImageDisplay1		0.0		
8	136.378	0.75	win-reward	StartDisplay				
8	137.13		win-reward	ImageDisplay2		0.0		
8	140.139	1.6	win-reward	ChoiceDisplay	1	1.042	1	1
8	141.192	0.558	win-reward	ChosenDisplay		0.0		
8	141.744	0.25	win-reward	TurnDisplay				
8	141.995	0.75	win-reward	OutcomeDisplay				
9	142.747		control-reward	ImageDisplay1		0.0		
9	144.987	0.75	control-reward	StartDisplay				
9	145.739		control-reward	ImageDisplay2		0.0		
9	148.748	1.6	control-reward	ChoiceDisplay	1	0.796	1	1
9	149.567	0.804	control-reward	ChosenDisplay		0.0		
9	150.353	0.25	control-reward	TurnDisplay				
9	150.604	0.75	control-reward	OutcomeDisplay				
10	151.356		control-noreward	ImageDisplay1		0.0		
10	153.345	0.75	control-noreward	StartDisplay				
10	154.097		control-noreward	ImageDisplay2		0.0		
10	157.357	1.6	control-noreward	ChoiceDisplay	1	0.95	1	1
10	158.327	0.65	control-noreward	ChosenDisplay		0.0		
10	158.962	0.25	control-noreward	TurnDisplay				
10	159.213	0.75	control-noreward	OutcomeDisplay				
11	159.965		loss-reward	ImageDisplay1		0.0		
11	162.205	0.75	loss-reward	StartDisplay				
11	162.957		loss-reward	ImageDisplay2		0.0		
11	165.966	1.6	loss-reward	ChoiceDisplay	1	0.92	1	1
11	166.902	0.68	loss-reward	ChosenDisplay		0.0		
11	167.571	0.25	loss-reward	TurnDisplay				
11	167.821	0.75	loss-reward	OutcomeDisplay				
12	168.574		loss-noreward	ImageDisplay1		0.0		
12	170.563	0.75	loss-noreward	StartDisplay				
12	171.315		loss-noreward	ImageDisplay2		0.0		
12	174.575	1.6	loss-noreward	ChoiceDisplay	1	0.97	1	1
12	175.561	0.63	loss-noreward	ChosenDisplay		0.0		
12	176.18	0.25	loss-noreward	TurnDisplay				
12	176.43	0.75	loss-noreward	OutcomeDisplay				
13	177.183		control-reward	ImageDisplay1		0.0		
13	179.172	0.75	control-reward	StartDisplay				
13	179.924		control-reward	ImageDisplay2		0.0		
13	183.184	1.6	control-reward	ChoiceDisplay	1	0.732	1	1
13	183.936	0.868	control-reward	ChosenDisplay		0.0		
13	184.789	0.25	control-reward	TurnDisplay				
13	185.039	0.75	control-reward	OutcomeDisplay				
14	185.792		win-reward	ImageDisplay1		0.0		
14	187.781	0.75	win-reward	StartDisplay				
14	188.533		win-reward	ImageDisplay2		0.0		
14	191.793	1.6	win-reward	ChoiceDisplay	1	0.904	1	1
14	192.712	0.696	win-reward	ChosenDisplay		0.0		
14	193.397	0.25	win-reward	TurnDisplay				
14	193.648	0.75	win-reward	OutcomeDisplay				
15	194.4		loss-reward	ImageDisplay1		0.0		
15	196.39	0.75	loss-reward	StartDisplay				
15	197.142		loss-reward	ImageDisplay2		0.0		
15	200.402	1.6	loss-reward	ChoiceDisplay	1	1.055	1	1
15	201.472	0.545	loss-reward	ChosenDisplay		0.0		
15	202.006	0.25	loss-reward	TurnDisplay				
15	202.257	0.75	loss-reward	OutcomeDisplay				
16	203.009		control-noreward	ImageDisplay1		0.0		
16	205.249	0.75	control-noreward	StartDisplay				
16	206.002		control-noreward	ImageDisplay2		0.0		
16	209.011	1.6	control-noreward	ChoiceDisplay	1	0.959	1	1
16	209.997	0.641	control-noreward	ChosenDisplay		0.0		
16	210.615	0.25	control-noreward	TurnDisplay				
16	210.866	0.75	control-noreward	OutcomeDisplay				
17	211.618		win-noreward	ImageDisplay1		0.0		
17	213.858	0.75	win-noreward	StartDisplay				
17	214.611		win-noreward	ImageDisplay2		0.0		
17	217.619	1.6	win-noreward	ChoiceDisplay	1	0.961	1	1
17	218.606	0.639	win-noreward	ChosenDisplay		0.0		
17	219.224	0.25	win-noreward	TurnDisplay				
17	219.475	0.75	win-noreward	OutcomeDisplay				
18	220.227		control-noreward	ImageDisplay1		0.0		
18	222.467	0.75	control-noreward	StartDisplay				
18	223.219		control-noreward	ImageDisplay2		0.0		
18	226.228	1.6	control-noreward	ChoiceDisplay	1	0.842	1	1
18	227.081	0.758	control-noreward	ChosenDisplay		0.0		
18	227.833	0.25	control-noreward	TurnDisplay				
18	228.084	0.75	control-noreward	OutcomeDisplay				
19	228.836		control-reward	ImageDisplay1		0.0		
19	230.825	0.75	control-reward	StartDisplay				
19	231.578		control-reward	ImageDisplay2		0.0		
19	234.837	1.6	control-reward	ChoiceDisplay	1	0.543	1	1
19	235.406	1.057	control-reward	ChosenDisplay		0.0		
19	236.442	0.25	control-reward	TurnDisplay				
19	236.693	0.75	control-reward	OutcomeDisplay				
20	237.445		win-noreward	ImageDisplay1		0.0		
20	239.685	0.75	win-noreward	StartDisplay				
20	240.437		win-noreward	ImageDisplay2		0.0		
20	243.446	1.6	win-noreward	ChoiceDisplay	1	0.951	1	1
20	244.416	0.649	win-noreward	ChosenDisplay		0.0		
20	245.051	0.25	win-noreward	TurnDisplay				
20	245.302	0.75	win-noreward	OutcomeDisplay				
21	246.054		control-noreward	ImageDisplay1		0.0		
21	248.043	0.75	control-noreward	StartDisplay				
21	248.796		control-noreward	ImageDisplay2		0.0		
21	252.055	1.6	control-noreward	ChoiceDisplay	1	1.068	1	1
21	253.142	0.532	control-noreward	ChosenDisplay		0.0		
21	253.66	0.25	control-noreward	TurnDisplay				
21	253.911	0.75	control-noreward	OutcomeDisplay				
22	254.663		control-reward	ImageDisplay1		0.0		
22	256.652	0.75	control-reward	StartDisplay				
22	257.404		control-reward	ImageDisplay2		0.0		
22	260.664	1.6	control-reward	ChoiceDisplay	1	0.979	1	1
22	261.667	0.621	control-reward	ChosenDisplay		0.0		
22	262.269	0.25	control-reward	TurnDisplay				
22	262.52	0.75	control-reward	OutcomeDisplay				
23	263.272		control-noreward	ImageDisplay1		0.0		
23	265.512	0.75	control-noreward	StartDisplay				
23	266.264		control-noreward	ImageDisplay2		0.0		
23	269.273	1.6	control-noreward	ChoiceDisplay	1	1.112	1	1
23	270.41	0.488	control-noreward	ChosenDisplay		0.0		
23	270.878	0.25	control-noreward	TurnDisplay				
23	271.129	0.75	control-noreward	OutcomeDisplay				
24	271.881		loss-reward	ImageDisplay1		0.0		
24	273.87	0.75	loss-reward	StartDisplay				
24	274.622		loss-reward	ImageDisplay2		0.0		
24	277.882	1.6	loss-reward	ChoiceDisplay	1	0.967	1	1
24	278.868	0.633	loss-reward	ChosenDisplay		0.0		
24	279.487	0.25	loss-reward	TurnDisplay				
24	279.738	0.75	loss-reward	OutcomeDisplay				
25	280.49		control-noreward	ImageDisplay1		0.0		
25	282.73	0.75	control-noreward	StartDisplay				
25	283.482		control-noreward	ImageDisplay2		0.0		
25	286.491	1.6	control-noreward	ChoiceDisplay	1	0.777	1	1
25	287.293	0.823	control-noreward	ChosenDisplay		0.0		
25	288.096	0.25	control-noreward	TurnDisplay				
25	288.346	0.75	control-noreward	OutcomeDisplay				
26	289.099		control-reward	ImageDisplay1		0.0		
26	291.339	0.75	control-reward	StartDisplay				
26	292.091		control-reward	ImageDisplay2		0.0		
26	295.1	1.6	control-reward	ChoiceDisplay	1	0.548	1	1
26	295.668	1.052	control-reward	ChosenDisplay		0.0		
26	296.705	0.25	control-reward	TurnDisplay				
26	296.955	0.75	control-reward	OutcomeDisplay				
27	297.708		loss-noreward	ImageDisplay1		0.0		
27	299.697	0.75	loss-noreward	StartDisplay				
27	300.449		loss-noreward	ImageDisplay2		0.0		
27	303.709	1.6	loss-noreward	ChoiceDisplay	1	0.842	1	1
27	304.561	0.758	loss-noreward	ChosenDisplay		0.0		
27	305.314	0.25	loss-noreward	TurnDisplay				
27	305.564	0.75	loss-noreward	OutcomeDisplay				
28	306.317		control-noreward	ImageDisplay1		0.0		
28	308.306	0.75	control-noreward	StartDisplay				
28	309.058		control-noreward	ImageDisplay2		0.0		
28	312.318	1.6	control-noreward	ChoiceDisplay	1	1.113	1	1
28	313.454	0.487	control-noreward	ChosenDisplay		0.0		
28	313.922	0.25	control-noreward	TurnDisplay				
28	314.173	0.75	control-noreward	OutcomeDisplay				
29	314.925		loss-reward	ImageDisplay1		0.0		
29	317.165	0.75	loss-reward	StartDisplay				
29	317.918		loss-reward	ImageDisplay2		0.0		
29	320.927	1.6	loss-reward	ChoiceDisplay	1	0.978	1	1
29	321.93	0.622	loss-reward	ChosenDisplay		0.0		
29	322.531	0.25	loss-reward	TurnDisplay				
29	322.782	0.75	loss-reward	OutcomeDisplay				
30	323.534		control-noreward	ImageDisplay1		0.0		
30	325.524	0.75	control-noreward	StartDisplay				
30	326.276		control-noreward	ImageDisplay2		0.0		
30	329.536	1.6	control-noreward	ChoiceDisplay	1	0.869	1	1
30	330.422	0.731	control-noreward	ChosenDisplay		0.0		
30	331.14	0.25	control-noreward	TurnDisplay				
30	331.391	0.75	control-noreward	OutcomeDisplay				
31	332.143		control-noreward	ImageDisplay1		0.0		
31	334.133	0.75	control-noreward	StartDisplay				
31	334.885		control-noreward	ImageDisplay2		0.0		
31	338.145	1.6	control-noreward	ChoiceDisplay	1	0.892	1	1
31	339.064	0.708	control-noreward	ChosenDisplay		0.0		
31	339.749	0.25	control-noreward	TurnDisplay				
31	340.0	0.75	control-noreward	OutcomeDisplay				
32	340.752		win-reward	ImageDisplay1		0.0		
32	342.992	0.75	win-reward	StartDisplay				
32	343.745		win-reward	ImageDisplay2		0.0		
32	346.753	1.6	win-reward	ChoiceDisplay	1	0.755	1	1
32	347.522	0.845	win-reward	ChosenDisplay		0.0		
32	348.358	0.25	win-reward	TurnDisplay				
32	348.609	0.75	win-reward	OutcomeDisplay				
33	349.361		loss-reward	ImageDisplay1		0.0		
33	351.35	0.75	loss-reward	StartDisplay				
33	352.103		loss-reward	ImageDisplay2		0.0		
33	355.362	1.6	loss-reward	ChoiceDisplay	1	0.923	1	1
33	356.299	0.677	loss-reward	ChosenDisplay		0.0		
33	356.967	0.25	loss-reward	TurnDisplay				
33	357.218	0.75	loss-reward	OutcomeDisplay				
34	357.97		control-reward	ImageDisplay1		0.0		
34	359.959	0.75	control-reward	StartDisplay				
34	360.712		control-reward	ImageDisplay2		0.0		
34	363.971	1.6	control-reward	ChoiceDisplay	1	1.156	1	1
34	365.141	0.444	control-reward	ChosenDisplay		0.0		
34	365.576	0.25	control-reward	TurnDisplay				
34	365.827	0.75	control-reward	OutcomeDisplay				
35	366.579		loss-noreward	ImageDisplay1		0.0		
35	368.819	0.75	loss-noreward	StartDisplay				
35	369.571		loss-noreward	ImageDisplay2		0.0		
35	372.58	1.6	loss-noreward	ChoiceDisplay	1	0.757	1	1
35	373.349	0.843	loss-noreward	ChosenDisplay		0.0		
35	374.185	0.25	loss-noreward	TurnDisplay				
35	374.436	0.75	loss-noreward	OutcomeDisplay				
36	375.188		win-reward	ImageDisplay1		0.0		
36	377.428	0.75	win-reward	StartDisplay				
36	378.18		win-reward	ImageDisplay2		0.0		
36	381.189	1.6	win-reward	ChoiceDisplay	1	0.533	1	1
36	381.741	1.067	win-reward	ChosenDisplay		0.0		
36	382.794	0.25	win-reward	TurnDisplay				
36	383.045	0.75	win-reward	OutcomeDisplay				
37	383.797		control-reward	ImageDisplay1		0.0		
37	386.037	0.75	control-reward	StartDisplay				
37	386.789		control-reward	ImageDisplay2		0.0		
37	389.798	1.6	control-reward	ChoiceDisplay	1	1.016	1	1
37	390.835	0.584	control-reward	ChosenDisplay		0.0		
37	391.403	0.25	control-reward	TurnDisplay				
37	391.654	0.75	control-reward	OutcomeDisplay				
38	392.406		loss-noreward	ImageDisplay1		0.0		
38	394.646	0.75	loss-noreward	StartDisplay				
38	395.398		loss-noreward	ImageDisplay2		0.0		
38	398.407	1.6	loss-noreward	ChoiceDisplay	1	0.864	1	1
38	399.293	0.736	loss-noreward	ChosenDisplay		0.0		
38	400.012	0.25	loss-noreward	TurnDisplay				
38	400.263	0.75	loss-noreward	OutcomeDisplay				
39	401.015		loss-reward	ImageDisplay1		0.0		
39	403.255	0.75	loss-reward	StartDisplay				
39	404.007		loss-reward	ImageDisplay2		0.0		
39	407.016	1.6	loss-reward	ChoiceDisplay	1	0.739	1	1
39	407.768	0.861	loss-reward	ChosenDisplay		0.0		
39	408.621	0.25	loss-reward	TurnDisplay				
39	408.871	0.75	loss-reward	OutcomeDisplay				
40	409.624		control-reward	ImageDisplay1		0.0		
40	411.613	0.75	control-reward	StartDisplay				
40	412.365		control-reward	ImageDisplay2		0.0		
40	415.625	1.6	control-reward	ChoiceDisplay	1	0.915	1	1
40	416.561	0.685	control-reward	ChosenDisplay		0.0		
40	417.23	0.25	control-reward	TurnDisplay				
40	417.48	0.75	control-reward	OutcomeDisplay				
41	418.233		loss-noreward	ImageDisplay1		0.0		
41	420.222	0.75	loss-noreward	StartDisplay				
41	420.974		loss-noreward	ImageDisplay2		0.0		
41	424.234	1.6	loss-noreward	ChoiceDisplay	1	0.55	1	1
41	424.802	1.05	loss-noreward	ChosenDisplay		0.0		
41	425.839	0.25	loss-noreward	TurnDisplay				
41	426.089	0.75	loss-noreward	OutcomeDisplay				
42	426.842		control-noreward	ImageDisplay1		0.0		
42	429.082	0.75	control-noreward	StartDisplay				
42	429.834		control-noreward	ImageDisplay2		0.0		
42	432.843	1.6	control-noreward	ChoiceDisplay	1	0.568	1	1
42	433.428	1.032	control-noreward	ChosenDisplay		0.0		
42	434.448	0.25	control-noreward	TurnDisplay				
42	434.698	0.75	control-noreward	OutcomeDisplay				
43	435.451		loss-noreward	ImageDisplay1		0.0		
43	437.44	0.75	loss-noreward	StartDisplay				
43	438.192		loss-noreward	ImageDisplay2		0.0		
43	441.452	1.6	loss-noreward	ChoiceDisplay	1	0.921	1	1
43	442.388	0.679	loss-noreward	ChosenDisplay		0.0		
43	443.056	0.25	loss-noreward	TurnDisplay				
43	443.307	0.75	loss-noreward	OutcomeDisplay				
44	444.059		loss-reward	ImageDisplay1		0.0		
44	446.049	0.75	loss-reward	StartDisplay				
44	446.801		loss-reward	ImageDisplay2		0.0		
44	450.061	1.6	loss-reward	ChoiceDisplay	1	0.544	1	1
44	450.629	1.056	loss-reward	ChosenDisplay		0.0		
44	451.665	0.25	loss-reward	TurnDisplay				
44	451.916	0.75	loss-reward	OutcomeDisplay				
45	452.668		control-noreward	ImageDisplay1		0.0		
45	454.658	0.75	control-noreward	StartDisplay				
45	455.427		control-noreward	ImageDisplay2		0.0		
45	458.67	1.6	control-noreward	ChoiceDisplay	1	0.699	1	1
45	459.388	0.901	control-noreward	ChosenDisplay		0.0		
45	460.274	0.25	control-noreward	TurnDisplay				
45	460.525	0.75	control-noreward	OutcomeDisplay				
46	461.277		win-reward	ImageDisplay1		0.0		
46	463.517	0.75	win-reward	StartDisplay				
46	464.27		win-reward	ImageDisplay2		0.0		
46	467.278	1.6	win-reward	ChoiceDisplay	1	0.713	1	1
46	468.015	0.887	win-reward	ChosenDisplay		0.0		
46	468.883	0.25	win-reward	TurnDisplay				
46	469.134	0.75	win-reward	OutcomeDisplay				
47	469.886		loss-reward	ImageDisplay1		0.0		
47	472.126	0.75	loss-reward	StartDisplay				
47	472.878		loss-reward	ImageDisplay2		0.0		
47	475.887	1.6	loss-reward	ChoiceDisplay	1	0.807	1	1
47	476.707	0.793	loss-reward	ChosenDisplay		0.0		
47	477.492	0.25	loss-reward	TurnDisplay				
47	477.743	0.75	loss-reward	OutcomeDisplay				
48	478.495		loss-noreward	ImageDisplay1		0.0		
48	480.484	0.75	loss-noreward	StartDisplay				
48	481.237		loss-noreward	ImageDisplay2		0.0		
48	484.496	1.6	loss-noreward	ChoiceDisplay	1	0.984	1	1
48	485.499	0.616	loss-noreward	ChosenDisplay		0.0		
48	486.101	0.25	loss-noreward	TurnDisplay				
48	486.352	0.75	loss-noreward	OutcomeDisplay				
49	487.104		control-noreward	ImageDisplay1		0.0		
49	489.093	0.75	control-noreward	StartDisplay				
49	489.846		control-noreward	ImageDisplay2		0.0		
49	493.105	1.6	control-noreward	ChoiceDisplay	1	0.516	1	1
49	493.64	1.084	control-noreward	ChosenDisplay		0.0		
49	494.71	0.25	control-noreward	TurnDisplay				
49	494.961	0.75	control-noreward	OutcomeDisplay				
50	495.713		loss-noreward	ImageDisplay1		0.0		
50	497.953	0.75	loss-noreward	StartDisplay				
50	498.705		loss-noreward	ImageDisplay2		0.0		
50	501.714	1.6	loss-noreward	ChoiceDisplay	1	0.819	1	1
50	502.55	0.781	loss-noreward	ChosenDisplay		0.0		
50	503.319	0.25	loss-noreward	TurnDisplay				
50	503.57	0.75	loss-noreward	OutcomeDisplay				
51	504.322		win-noreward	ImageDisplay1		0.0		
51	506.562	0.75	win-noreward	StartDisplay				
51	507.314		win-noreward	ImageDisplay2		0.0		
51	510.323	1.6	win-noreward	ChoiceDisplay	1	1.046	1	1
51	511.393	0.554	win-noreward	ChosenDisplay		0.0		
51	511.928	0.25	win-noreward	TurnDisplay				
51	512.179	0.75	win-noreward	OutcomeDisplay				
52	512.931		control-noreward	ImageDisplay1		0.0		
52	515.171	0.75	control-noreward	StartDisplay				
52	515.923		control-noreward	ImageDisplay2		0.0		
52	518.932	1.6	control-noreward	ChoiceDisplay	1	0.606	1	1
52	519.551	0.994	control-noreward	ChosenDisplay		0.0		
52	520.537	0.25	control-noreward	TurnDisplay				
52	520.788	0.75	control-noreward	OutcomeDisplay				
53	521.54		win-noreward	ImageDisplay1		0.0		
53	523.78	0.75	win-noreward	StartDisplay				
53	524.532		win-noreward	ImageDisplay2		0.0		
53	527.541	1.6	win-noreward	ChoiceDisplay	1	0.77	1	1
53	528.327	0.83	win-noreward	ChosenDisplay		0.0		
53	529.146	0.25	win-noreward	TurnDisplay				
53	529.397	0.75	win-noreward	OutcomeDisplay				
54	530.149		win-noreward	ImageDisplay1		0.0		
54	532.389	0.75	win-noreward	StartDisplay				
54	533.141		win-noreward	ImageDisplay2		0.0		
54	536.15	1.6	win-noreward	ChoiceDisplay	1	0.813	1	1
54	536.986	0.787	win-noreward	ChosenDisplay		0.0		
54	537.755	0.25	win-noreward	TurnDisplay				
54	538.005	0.75	win-noreward	OutcomeDisplay				
55	538.758		loss-reward	ImageDisplay1		0.0		
55	540.747	0.75	loss-reward	StartDisplay				
55	541.499		loss-reward	ImageDisplay2		0.0		
55	544.759	1.6	loss-reward	ChoiceDisplay	1	0.803	1	1
55	545.578	0.797	loss-reward	ChosenDisplay		0.0		
55	546.364	0.25	loss-reward	TurnDisplay				
55	546.614	0.75	loss-reward	OutcomeDisplay				
56	547.367		win-noreward	ImageDisplay1		0.0		
56	549.356	0.75	win-noreward	StartDisplay				
56	550.108		win-noreward	ImageDisplay2		0.0		
56	553.368	1.6	win-noreward	ChoiceDisplay	1	0.867	1	1
56	554.254	0.733	win-noreward	ChosenDisplay		0.0		
56	554.973	0.25	win-noreward	TurnDisplay				
56	555.223	0.75	win-noreward	OutcomeDisplay				
57	555.976		loss-reward	ImageDisplay1		0.0		
57	558.216	0.75	loss-reward	StartDisplay				
57	558.968		loss-reward	ImageDisplay2		0.0		
57	561.977	1.6	loss-reward	ChoiceDisplay	1	0.861	1	1
57	562.863	0.739	loss-reward	ChosenDisplay		0.0		
57	563.581	0.25	loss-reward	TurnDisplay				
57	563.832	0.75	loss-reward	OutcomeDisplay				
58	564.584		control-reward	ImageDisplay1		0.0		
58	566.824	0.75	control-reward	StartDisplay				
58	567.577		control-reward	ImageDisplay2		0.0		
58	570.586	1.6	control-reward	ChoiceDisplay	1	1.195	1	1
58	571.806	0.405	control-reward	ChosenDisplay		0.0		
58	572.19	0.25	control-reward	TurnDisplay				
58	572.441	0.75	control-reward	OutcomeDisplay				
59	573.193		win-noreward	ImageDisplay1		0.0		
59	575.183	0.75	win-noreward	StartDisplay				
59	575.935		win-noreward	ImageDisplay2		0.0		
59	579.195	1.6	win-noreward	ChoiceDisplay	1	0.923	1	1
59	580.131	0.677	win-noreward	ChosenDisplay		0.0		
59	580.799	0.25	win-noreward	TurnDisplay				
59	581.05	0.75	win-noreward	OutcomeDisplay				
60	581.802		win-reward	ImageDisplay1		0.0		
60	584.042	0.75	win-reward	StartDisplay				
60	584.795		win-reward	ImageDisplay2		0.0		
60	587.804	1.6	win-reward	ChoiceDisplay	1	0.682	1	1
60	588.506	0.918	win-reward	ChosenDisplay		0.0		
60	589.408	0.25	win-reward	TurnDisplay				
60	589.659	0.75	win-reward	OutcomeDisplay				
61	590.411		loss-noreward	ImageDisplay1		0.0		
61	592.651	0.75	loss-noreward	StartDisplay				
61	593.404		loss-noreward	ImageDisplay2		0.0		
61	596.415	1.6	loss-noreward	ChoiceDisplay	1	0.739	1	1
61	597.181	0.861	loss-noreward	ChosenDisplay		0.0		
61	598.017	0.25	loss-noreward	TurnDisplay				
61	598.268	0.75	loss-noreward	OutcomeDisplay				
62	599.02		control-reward	ImageDisplay1		0.0		
62	601.277	0.75	control-reward	StartDisplay				
62	602.012		control-reward	ImageDisplay2		0.0		
62	605.021	1.6	control-reward	ChoiceDisplay	1	0.866	1	1
62	605.907	0.734	control-reward	ChosenDisplay		0.0		
62	606.626	0.25	control-reward	TurnDisplay				
62	606.877	0.75	control-reward	OutcomeDisplay				
63	607.629		loss-reward	ImageDisplay1		0.0		
63	609.869	0.75	loss-reward	StartDisplay				
63	610.621		loss-reward	ImageDisplay2		0.0		
63	613.63	1.6	loss-reward	ChoiceDisplay	1	0.901	1	1
63	614.55	0.699	loss-reward	ChosenDisplay		0.0		
63	615.235	0.25	loss-reward	TurnDisplay				
63	615.486	0.75	loss-reward	OutcomeDisplay				
64	616.238		loss-reward	ImageDisplay1		0.0		
64	618.227	0.75	loss-reward	StartDisplay				
64	618.98		loss-reward	ImageDisplay2		0.0		
64	622.239	1.6	loss-reward	ChoiceDisplay	1	1.015	1	1
64	623.276	0.585	loss-reward	ChosenDisplay		0.0		
64	623.844	0.25	loss-reward	TurnDisplay				
64	624.095	0.75	loss-reward	OutcomeDisplay				
65	624.847		win-reward	ImageDisplay1		0.0		
65	626.836	0.75	win-reward	StartDisplay				
65	627.588		win-reward	ImageDisplay2		0.0		
65	630.848	1.6	win-reward	ChoiceDisplay	1	0.804	1	1
65	631.667	0.796	win-reward	ChosenDisplay		0.0		
65	632.453	0.25	win-reward	TurnDisplay				
65	632.704	0.75	win-reward	OutcomeDisplay				
66	633.456		control-reward	ImageDisplay1		0.0		
66	635.696	0.75	control-reward	StartDisplay				
66	636.448		control-reward	ImageDisplay2		0.0		
66	639.457	1.6	control-reward	ChoiceDisplay	1	0.752	1	1
66	640.226	0.848	control-reward	ChosenDisplay		0.0		
66	641.062	0.25	control-reward	TurnDisplay				
66	641.313	0.75	control-reward	OutcomeDisplay				
67	642.065		control-noreward	ImageDisplay1		0.0		
67	644.305	0.75	control-noreward	StartDisplay				
67	645.057		control-noreward	ImageDisplay2		0.0		
67	648.066	1.6	control-noreward	ChoiceDisplay	1	1.046	1	1
67	649.136	0.554	control-noreward	ChosenDisplay		0.0		
67	649.671	0.25	control-noreward	TurnDisplay				
67	649.922	0.75	control-noreward	OutcomeDisplay				
68	650.674		loss-reward	ImageDisplay1		0.0		
68	652.663	0.75	loss-reward	StartDisplay				
68	653.415		loss-reward	ImageDisplay2		0.0		
68	656.675	1.6	loss-reward	ChoiceDisplay	1	0.932	1	1
68	657.628	0.668	loss-reward	ChosenDisplay		0.0		
68	658.28	0.25	loss-reward	TurnDisplay				
68	658.53	0.75	loss-reward	OutcomeDisplay				
69	659.283		control-reward	ImageDisplay1		0.0		
69	661.523	0.75	control-reward	StartDisplay				
69	662.275		control-reward	ImageDisplay2		0.0		
69	665.284	1.6	control-reward	ChoiceDisplay	1	0.63	1	1
69	665.936	0.97	control-reward	ChosenDisplay		0.0		
69	666.889	0.25	control-reward	TurnDisplay				
69	667.139	0.75	control-reward	OutcomeDisplay				
70	667.892		loss-noreward	ImageDisplay1		0.0		
70	669.881	0.75	loss-noreward	StartDisplay				
70	670.633		loss-noreward	ImageDisplay2		0.0		
70	673.893	1.6	loss-noreward	ChoiceDisplay	1	0.814	1	1
70	674.729	0.786	loss-noreward	ChosenDisplay		0.0		
70	675.498	0.25	loss-noreward	TurnDisplay				
70	675.748	0.75	loss-noreward	OutcomeDisplay				
71	676.501		loss-noreward	ImageDisplay1		0.0		
71	678.741	0.75	loss-noreward	StartDisplay				
71	679.493		loss-noreward	ImageDisplay2		0.0		
71	682.502	1.6	loss-noreward	ChoiceDisplay	1	0.719	1	1
71	683.237	0.881	loss-noreward	ChosenDisplay		0.0		
71	684.107	0.25	loss-noreward	TurnDisplay				
71	684.357	0.75	loss-noreward	OutcomeDisplay				
72	685.109		control-reward	ImageDisplay1		0.0		
72	687.349	0.75	control-reward	StartDisplay				
72	688.102		control-reward	ImageDisplay2		0.0		
72	691.111	1.6	control-reward	ChoiceDisplay	1	0.935	1	1
72	692.064	0.665	control-reward	ChosenDisplay		0.0		
72	692.715	0.25	control-reward	TurnDisplay				
72	692.966	0.75	control-reward	OutcomeDisplay				
73	693.718		loss-noreward	ImageDisplay1		0.0		
73	695.958	0.75	loss-noreward	StartDisplay				
73	696.711		loss-noreward	ImageDisplay2		0.0		
73	699.72	1.6	loss-noreward	ChoiceDisplay	1	0.317	1	1
73	700.054	1.283	loss-noreward	ChosenDisplay		0.0		
73	701.324	0.25	loss-noreward	TurnDisplay				
73	701.575	0.75	loss-noreward	OutcomeDisplay				
74	702.327		win-noreward	ImageDisplay1		0.0		
74	704.317	0.75	win-noreward	StartDisplay				
74	705.069		win-noreward	ImageDisplay2		0.0		
74	708.329	1.6	win-noreward	ChoiceDisplay	1	0.794	1	1
74	709.148	0.806	win-noreward	ChosenDisplay		0.0		
74	709.933	0.25	win-noreward	TurnDisplay				
74	710.184	0.75	win-noreward	OutcomeDisplay				
75	710.936		win-noreward	ImageDisplay1		0.0		
75	713.176	0.75	win-noreward	StartDisplay				
75	713.929		win-noreward	ImageDisplay2		0.0		
75	716.937	1.6	win-noreward	ChoiceDisplay	1	0.763	1	1
75	717.723	0.837	win-noreward	ChosenDisplay		0.0		
75	718.542	0.25	win-noreward	TurnDisplay				
75	718.793	0.75	win-noreward	OutcomeDisplay				
76	719.545		win-noreward	ImageDisplay1		0.0		
76	721.785	0.75	win-noreward	StartDisplay				
76	722.537		win-noreward	ImageDisplay2		0.0		
76	725.546	1.6	win-noreward	ChoiceDisplay	1	0.789	1	1
76	726.349	0.811	win-noreward	ChosenDisplay		0.0		
76	727.151	0.25	win-noreward	TurnDisplay				
76	727.402	0.75	win-noreward	OutcomeDisplay				
77	728.154		win-reward	ImageDisplay1		0.0		
77	730.394	0.75	win-reward	StartDisplay				
77	731.146		win-reward	ImageDisplay2		0.0		
77	734.155	1.6	win-reward	ChoiceDisplay	1	1.038	1	1
77	735.208	0.562	win-reward	ChosenDisplay		0.0		
77	735.76	0.25	win-reward	TurnDisplay				
77	736.011	0.75	win-reward	OutcomeDisplay				
78	736.763		win-reward	ImageDisplay1		0.0		
78	739.003	0.75	win-reward	StartDisplay				
78	739.755		win-reward	ImageDisplay2		0.0		
78	742.764	1.6	win-reward	ChoiceDisplay	1	0.74	1	1
78	743.516	0.86	win-reward	ChosenDisplay		0.0		
78	744.369	0.25	win-reward	TurnDisplay				
78	744.62	0.75	win-reward	OutcomeDisplay				
79	745.372		win-reward	ImageDisplay1		0.0		
79	747.361	0.75	win-reward	StartDisplay				
79	748.113		win-reward	ImageDisplay2		0.0		
79	751.373	1.6	win-reward	ChoiceDisplay	1	0.825	1	1
79	752.209	0.775	win-reward	ChosenDisplay		0.0		
79	752.978	0.25	win-reward	TurnDisplay				
79	753.229	0.75	win-reward	OutcomeDisplay				
80	753.981		loss-reward	ImageDisplay1		0.0		
80	756.221	0.75	loss-reward	StartDisplay				
80	756.973		loss-reward	ImageDisplay2		0.0		
80	759.982	1.6	loss-reward	ChoiceDisplay	1	0.537	1	1
80	760.534	1.063	loss-reward	ChosenDisplay		0.0		
80	761.587	0.25	loss-reward	TurnDisplay				
80	761.838	0.75	loss-reward	OutcomeDisplay				
81	762.59		loss-reward	ImageDisplay1		0.0		
81	764.83	0.75	loss-reward	StartDisplay				
81	765.582		loss-reward	ImageDisplay2		0.0		
81	768.591	1.6	loss-reward	ChoiceDisplay	1	0.72	1	1
81	769.327	0.88	loss-reward	ChosenDisplay		0.0		
81	770.196	0.25	loss-reward	TurnDisplay				
81	770.447	0.75	loss-reward	OutcomeDisplay				
82	771.199		win-reward	ImageDisplay1		0.0		
82	773.188	0.75	win-reward	StartDisplay				
82	773.94		win-reward	ImageDisplay2		0.0		
82	777.2	1.6	win-reward	ChoiceDisplay	1	0.544	1	1
82	777.768	1.056	win-reward	ChosenDisplay		0.0		
82	778.805	0.25	win-reward	TurnDisplay				
82	779.055	0.75	win-reward	OutcomeDisplay				
83	779.808		loss-reward	ImageDisplay1		0.0		
83	782.048	0.75	loss-reward	StartDisplay				
83	782.8		loss-reward	ImageDisplay2		0.0		
83	785.809	1.6	loss-reward	ChoiceDisplay	1	0.729	1	1
83	786.561	0.871	loss-reward	ChosenDisplay		0.0		
83	787.414	0.25	loss-reward	TurnDisplay				
83	787.664	0.75	loss-reward	OutcomeDisplay				
84	788.417		loss-noreward	ImageDisplay1		0.0		
84	790.406	0.75	loss-noreward	StartDisplay				
84	791.158		loss-noreward	ImageDisplay2		0.0		
84	794.418	1.6	loss-noreward	ChoiceDisplay	1	0.785	1	1
84	795.22	0.815	loss-noreward	ChosenDisplay		0.0		
84	796.023	0.25	loss-noreward	TurnDisplay				
84	796.273	0.75	loss-noreward	OutcomeDisplay				
85	797.026		loss-reward	ImageDisplay1		0.0		
85	799.015	0.75	loss-reward	StartDisplay				
85	799.767		loss-reward	ImageDisplay2		0.0		
85	803.027	1.6	loss-reward	ChoiceDisplay	1	0.411	1	1
85	803.461	1.189	loss-reward	ChosenDisplay		0.0		
85	804.632	0.25	loss-reward	TurnDisplay				
85	804.882	0.75	loss-reward	OutcomeDisplay				
86	805.635		win-noreward	ImageDisplay1		0.0		
86	807.624	0.75	win-noreward	StartDisplay				
86	808.376		win-noreward	ImageDisplay2		0.0		
86	811.636	1.6	win-noreward	ChoiceDisplay	1	0.743	1	1
86	812.405	0.857	win-noreward	ChosenDisplay		0.0		
86	813.24	0.25	win-noreward	TurnDisplay				
86	813.491	0.75	win-noreward	OutcomeDisplay				
87	814.243		loss-noreward	ImageDisplay1		0.0		
87	816.483	0.75	loss-noreward	StartDisplay				
87	817.236		loss-noreward	ImageDisplay2		0.0		
87	820.245	1.6	loss-noreward	ChoiceDisplay	1	0.491	1	1
87	820.763	1.109	loss-noreward	ChosenDisplay		0.0		
87	821.849	0.25	loss-noreward	TurnDisplay				
87	822.1	0.75	loss-noreward	OutcomeDisplay				
88	822.852		control-reward	ImageDisplay1		0.0		
88	824.842	0.75	control-reward	StartDisplay				
88	825.594		control-reward	ImageDisplay2		0.0		
88	828.854	1.6	control-reward	ChoiceDisplay	1	0.814	1	1
88	829.689	0.786	control-reward	ChosenDisplay		0.0		
88	830.458	0.25	control-reward	TurnDisplay				
88	830.709	0.75	control-reward	OutcomeDisplay				
89	831.461		control-noreward	ImageDisplay1		0.0		
89	833.701	0.75	control-noreward	StartDisplay				
89	834.454		control-noreward	ImageDisplay2		0.0		
89	837.462	1.6	control-noreward	ChoiceDisplay	1	0.635	1	1
89	838.114	0.965	control-noreward	ChosenDisplay		0.0		
89	839.067	0.25	control-noreward	TurnDisplay				
89	839.318	0.75	control-noreward	OutcomeDisplay				
90	840.07		win-reward	ImageDisplay1		0.0		
90	842.31	0.75	win-reward	StartDisplay				
90	843.062		win-reward	ImageDisplay2		0.0		
90	846.071	1.6	win-reward	ChoiceDisplay	1	0.355	1	1
90	846.439	1.245	win-reward	ChosenDisplay		0.0		
90	847.676	0.25	win-reward	TurnDisplay				
90	847.927	0.75	win-reward	OutcomeDisplay				
91	848.679		win-noreward	ImageDisplay1		0.0		
91	850.668	0.75	win-noreward	StartDisplay				
91	851.421		win-noreward	ImageDisplay2		0.0		
91	854.68	1.6	win-noreward	ChoiceDisplay	1	0.885	1	1
91	855.583	0.715	win-noreward	ChosenDisplay		0.0		
91	856.285	0.25	win-noreward	TurnDisplay				
91	856.536	0.75	win-noreward	OutcomeDisplay				
92	857.288		control-reward	ImageDisplay1		0.0		
92	859.277	0.75	control-reward	StartDisplay				
92	860.03		control-reward	ImageDisplay2		0.0		
92	863.289	1.6	control-reward	ChoiceDisplay	1	0.969	1	1
92	864.276	0.631	control-reward	ChosenDisplay		0.0		
92	864.894	0.25	control-reward	TurnDisplay				
92	865.145	0.75	control-reward	OutcomeDisplay				
93	865.897		win-reward	ImageDisplay1		0.0		
93	867.886	0.75	win-reward	StartDisplay				
93	868.639		win-reward	ImageDisplay2		0.0		
93	871.898	1.6	win-reward	ChoiceDisplay	1	0.657	1	1
93	872.567	0.943	win-reward	ChosenDisplay		0.0		
93	873.503	0.25	win-reward	TurnDisplay				
93	873.754	0.75	win-reward	OutcomeDisplay				
94	874.507		win-reward	ImageDisplay1		0.0		
94	876.495	0.75	win-reward	StartDisplay				
94	877.247		win-reward	ImageDisplay2		0.0		
94	880.507	1.6	win-reward	ChoiceDisplay	1	0.885	1	1
94	881.41	0.715	win-reward	ChosenDisplay		0.0		
94	882.112	0.25	win-reward	TurnDisplay				
94	882.363	0.75	win-reward	OutcomeDisplay				
95	883.115		win-reward	ImageDisplay1		0.0		
95	885.104	0.75	win-reward	StartDisplay				
95	885.856		win-reward	ImageDisplay2		0.0		
95	889.116	1.6	win-reward	ChoiceDisplay	1	0.717	1	1
95	889.852	0.883	win-reward	ChosenDisplay		0.0		
95	890.721	0.25	win-reward	TurnDisplay				
95	890.972	0.75	win-reward	OutcomeDisplay				
