onset	duration	trial_type	response_time	stim_file	accuracy
53.711	1.0	go	0.591	Go_O	1.0
56.235	1.0	go	0.412	Go_X	1.0
58.76	1.0	go	0.347	Go_O	1.0
61.284	1.0	go	0.314	Go_X	1.0
63.808	1.0	go	0.262	Go_X	0.0
66.332	1.0	go	0.387	Go_O	0.0
68.856	0.25	stopfail	0.36	Go_O	0.0
71.381	1.0	go	0.421	Go_X	1.0
73.905	0.2	stopfail	0.352	Go_X	0.0
76.429	1.0	go	0.357	Go_O	1.0
78.953	1.0	go	0.403	Go_O	1.0
81.477	1.0	go	0.332	Go_X	1.0
84.001	0.15	stopfail	0.436	Go_O	0.0
86.526	1.0	go	0.365	Go_X	1.0
89.05	1.0	go	0.684	Go_O	1.0
91.574	0.1	stopfail	0.307	Go_X	0.0
94.098	0.05	stopsuccess	0.0	Go_O	1.0
96.622	1.0	go	0.491	Go_O	1.0
99.146	1.0	go	0.298	Go_X	1.0
101.671	0.1	stopsuccess	0.0	Go_X	1.0
104.195	1.0	go	0.464	Go_X	1.0
106.719	1.0	go	0.342	Go_O	0.0
109.243	0.15	stopfail	0.401	Go_O	0.0
111.767	1.0	go	0.475	Go_O	1.0
114.291	1.0	go	0.602	Go_X	1.0
116.816	0.1	stopsuccess	0.0	Go_X	1.0
119.34	1.0	go	0.343	Go_X	0.0
121.864	1.0	go	0.474	Go_O	1.0
124.388	0.15	stopsuccess	0.0	Go_O	1.0
126.912	1.0	go	0.42	Go_X	1.0
129.436	1.0	go	0.521	Go_O	1.0
131.961	1.0	go	0.615	Go_X	1.0
134.485	1.0	go	0.363	Go_O	1.0
137.009	1.0	go	0.43	Go_O	0.0
139.533	0.2	stopfail	0.323	Go_X	0.0
142.057	1.0	go	0.524	Go_X	1.0
144.582	1.0	go	0.316	Go_O	1.0
147.106	1.0	go	0.508	Go_X	1.0
149.63	1.0	go	0.488	Go_O	1.0
152.154	1.0	go	0.365	Go_X	1.0
154.678	0.15	stopfail	0.267	Go_O	0.0
157.202	1.0	go	0.57	Go_X	1.0
159.727	1.0	go	0.389	Go_O	1.0
162.251	1.0	go	0.396	Go_X	1.0
164.775	1.0	go	0.318	Go_O	1.0
167.299	1.0	go	0.37	Go_O	1.0
169.823	1.0	go	0.473	Go_X	1.0
172.347	0.1	stopsuccess	0.0	Go_X	1.0
174.872	1.0	go	0.514	Go_X	1.0
177.396	1.0	go	0.578	Go_O	1.0
179.92	0.15	stopsuccess	0.0	Go_O	1.0
182.444	1.0	go	0.52	Go_X	1.0
184.968	0.2	stopsuccess	0.0	Go_X	1.0
187.492	0.25	stopfail	0.423	Go_O	0.0
190.017	1.0	go	0.458	Go_O	1.0
192.541	1.0	go	0.471	Go_O	1.0
195.065	1.0	go	0.334	Go_X	1.0
197.589	1.0	go	0.446	Go_O	1.0
200.113	0.2	stopsuccess	0.0	Go_X	1.0
202.637	1.0	go	0.346	Go_X	0.0
205.162	0.25	stopsuccess	0.0	Go_O	1.0
207.686	1.0	go	0.486	Go_O	1.0
210.21	1.0	go	0.508	Go_X	1.0
212.734	1.0	go	0.408	Go_O	1.0
215.258	1.0	go	0.327	Go_X	1.0
217.783	1.0	go	0.532	Go_X	1.0
220.307	1.0	go	0.481	Go_O	1.0
222.831	1.0	go	0.524	Go_X	1.0
225.355	1.0	go	0.503	Go_O	1.0
227.879	1.0	go	0.638	Go_O	1.0
230.403	0.3	stopfail	0.316	Go_X	0.0
232.928	1.0	go	0.625	Go_X	1.0
235.452	1.0	go	0.287	Go_X	0.0
237.976	1.0	go	0.588	Go_O	1.0
240.5	0.25	stopfail	0.548	Go_O	0.0
243.024	1.0	go	0.525	Go_X	1.0
245.548	1.0	go	0.502	Go_O	1.0
248.073	1.0	go	0.543	Go_O	1.0
250.597	1.0	go	0.432	Go_X	1.0
253.121	1.0	go	0.345	Go_X	1.0
255.645	1.0	go	0.399	Go_O	1.0
258.169	0.2	stopfail	0.274	Go_X	0.0
260.693	1.0	go	0.518	Go_X	1.0
263.218	1.0	go	0.413	Go_O	1.0
265.742	0.15	stopsuccess	0.0	Go_O	1.0
268.266	1.0	go	0.647	Go_O	1.0
270.79	1.0	go	0.429	Go_X	1.0
273.314	0.2	stopsuccess	0.0	Go_X	1.0
275.838	1.0	go	0.49	Go_O	1.0
278.363	0.25	stopfail	0.43	Go_O	0.0
280.887	1.0	go	0.55	Go_X	1.0
283.411	1.0	go	0.477	Go_O	1.0
285.935	1.0	go	0.458	Go_X	1.0
288.459	1.0	go	0.548	Go_O	1.0
290.983	1.0	go	0.552	Go_X	1.0
293.508	0.2	stopsuccess	0.0	Go_X	1.0
296.032	0.25	stopfail	0.443	Go_O	0.0
298.556	1.0	go	0.415	Go_X	1.0
301.08	1.0	go	0.269	Go_O	1.0
303.604	0.2	stopsuccess	0.0	Go_X	1.0
306.129	1.0	go	0.351	Go_X	1.0
308.653	1.0	go	0.416	Go_O	1.0
311.177	1.0	go	0.448	Go_O	1.0
313.701	1.0	go	0.47	Go_X	1.0
316.225	1.0	go	0.593	Go_O	1.0
318.749	1.0	go	0.469	Go_X	1.0
321.274	0.25	stopfail	0.429	Go_O	0.0
323.814	1.0	go	0.422	Go_O	1.0
326.339	1.0	go	0.507	Go_X	1.0
328.863	1.0	go	0.49	Go_O	1.0
331.387	1.0	go	0.623	Go_X	1.0
333.911	1.0	go	0.504	Go_X	0.0
336.435	0.2	stopsuccess	0.0	Go_X	1.0
338.959	1.0	go	0.436	Go_O	1.0
341.484	1.0	go	0.429	Go_O	1.0
344.008	1.0	go	0.566	Go_X	1.0
346.532	1.0	go	0.652	Go_O	1.0
349.056	0.25	stopsuccess	0.0	Go_O	1.0
351.58	1.0	go	0.452	Go_X	1.0
354.104	1.0	go	0.519	Go_X	1.0
356.629	0.3	stopsuccess	0.0	Go_X	1.0
359.153	1.0	go	0.354	Go_O	1.0
361.677	0.35	stopfail	0.529	Go_O	0.0
364.201	1.0	go	0.521	Go_X	1.0
366.725	1.0	go	0.509	Go_O	1.0
369.25	1.0	go	0.624	Go_O	1.0
371.774	1.0	go	0.529	Go_X	1.0
374.298	1.0	go	0.724	Go_O	1.0
376.822	1.0	go	0.606	Go_X	1.0
379.346	1.0	go	0.565	Go_O	1.0
381.87	0.3	stopsuccess	0.0	Go_X	1.0
384.395	1.0	go	0.499	Go_X	1.0
386.919	1.0	go	0.57	Go_X	1.0
389.443	1.0	go	0.859	Go_O	1.0
391.967	0.35	stopfail	0.4	Go_O	0.0
394.491	1.0	go	0.549	Go_O	1.0
397.015	1.0	go	0.437	Go_X	1.0
399.54	1.0	go	0.512	Go_O	1.0
402.064	1.0	go	0.801	Go_X	1.0
404.588	0.3	stopsuccess	0.0	Go_X	1.0
407.112	1.0	go	0.0	Go_X	0.0
409.636	1.0	go	0.327	Go_O	1.0
412.16	0.35	stopsuccess	0.0	Go_O	1.0
414.685	1.0	go	0.342	Go_X	1.0
417.209	1.0	go	0.487	Go_O	1.0
419.733	0.4	stopfail	0.522	Go_X	0.0
422.257	1.0	go	0.507	Go_X	1.0
424.781	1.0	go	0.354	Go_O	1.0
427.305	0.35	stopfail	0.452	Go_O	0.0
429.83	1.0	go	0.499	Go_X	1.0
432.354	1.0	go	0.465	Go_O	1.0
434.878	1.0	go	0.573	Go_X	1.0
437.404	1.0	go	0.484	Go_O	1.0
439.926	1.0	go	0.537	Go_X	1.0
442.451	1.0	go	0.55	Go_O	1.0
444.975	0.3	stopsuccess	0.0	Go_X	1.0
447.499	1.0	go	0.454	Go_O	1.0
450.023	0.35	stopsuccess	0.0	Go_O	1.0
452.547	1.0	go	0.314	Go_X	1.0
455.071	1.0	go	0.44	Go_O	1.0
457.596	1.0	go	0.484	Go_X	1.0
460.12	1.0	go	0.504	Go_X	1.0
462.644	1.0	go	0.624	Go_O	1.0
465.168	0.4	stopfail	0.584	Go_X	0.0
467.692	1.0	go	0.529	Go_X	0.0
470.216	1.0	go	0.436	Go_O	0.0
472.741	1.0	go	0.369	Go_X	1.0
475.265	0.35	stopfail	0.294	Go_O	0.0
477.789	0.3	stopsuccess	0.0	Go_X	1.0
480.313	0.35	stopfail	0.513	Go_O	0.0
482.837	1.0	go	0.428	Go_O	1.0
485.361	0.3	stopfail	0.313	Go_X	0.0
487.886	1.0	go	0.504	Go_X	1.0
490.41	1.0	go	0.399	Go_O	1.0
492.934	1.0	go	0.384	Go_O	0.0
495.458	1.0	go	0.464	Go_X	1.0
497.982	1.0	go	0.42	Go_X	1.0
500.506	1.0	go	0.56	Go_O	1.0
503.031	1.0	go	0.809	Go_O	0.0
505.555	1.0	go	0.653	Go_X	1.0
508.079	0.25	stopfail	0.298	Go_O	0.0
510.603	1.0	go	0.494	Go_O	1.0
513.127	1.0	go	0.503	Go_X	1.0
515.651	0.2	stopsuccess	0.0	Go_X	1.0
518.176	1.0	go	0.471	Go_X	1.0
520.7	1.0	go	0.678	Go_O	0.0
523.224	1.0	go	0.5	Go_O	1.0
525.748	1.0	go	0.712	Go_X	1.0
528.272	1.0	go	0.512	Go_X	1.0
530.797	0.25	stopsuccess	0.0	Go_O	1.0
533.321	1.0	go	0.42	Go_O	1.0
535.845	1.0	go	0.494	Go_O	1.0
538.369	1.0	go	0.958	Go_X	1.0
540.893	0.3	stopfail	0.403	Go_X	0.0
543.417	1.0	go	0.412	Go_X	1.0
545.942	0.25	stopfail	0.366	Go_O	0.0
548.466	1.0	go	0.61	Go_O	1.0
550.99	1.0	go	0.416	Go_X	1.0
553.514	1.0	go	0.723	Go_O	1.0
556.038	1.0	go	0.716	Go_X	1.0
558.562	1.0	go	0.0	Go_O	0.0
561.087	1.0	go	0.408	Go_X	1.0
563.611	1.0	go	0.348	Go_O	1.0
566.135	0.2	stopsuccess	0.0	Go_X	1.0
568.659	1.0	go	0.447	Go_O	1.0
571.183	1.0	go	0.569	Go_X	1.0
573.707	1.0	go	0.673	Go_O	1.0
576.232	1.0	go	0.39	Go_X	1.0
578.756	0.25	stopsuccess	0.0	Go_O	1.0
581.28	1.0	go	0.805	Go_O	1.0
583.805	0.3	stopsuccess	0.0	Go_X	1.0
586.328	1.0	go	0.644	Go_X	1.0
588.852	1.0	go	0.656	Go_O	1.0
591.377	0.35	stopsuccess	0.0	Go_O	1.0
593.901	1.0	go	0.455	Go_X	1.0
596.425	1.0	go	0.562	Go_X	1.0
598.949	1.0	go	0.469	Go_O	1.0
601.473	1.0	go	0.455	Go_X	1.0
603.998	1.0	go	0.49	Go_O	0.0
606.522	1.0	go	0.4	Go_X	1.0
609.046	1.0	go	0.302	Go_O	1.0
611.57	1.0	go	0.548	Go_X	1.0
614.094	1.0	go	0.483	Go_O	1.0
616.618	1.0	go	0.577	Go_X	1.0
619.143	0.4	stopfail	0.583	Go_X	0.0
621.667	1.0	go	0.563	Go_O	1.0
624.191	1.0	go	0.688	Go_O	1.0
626.715	0.35	stopsuccess	0.0	Go_O	1.0
629.239	1.0	go	0.516	Go_X	1.0
631.763	0.4	stopfail	0.453	Go_X	0.0
634.288	1.0	go	0.874	Go_O	1.0
636.812	1.0	go	0.403	Go_X	1.0
639.336	0.35	stopfail	0.503	Go_O	0.0
641.86	1.0	go	0.66	Go_O	1.0
644.384	0.3	stopfail	0.588	Go_X	0.0
646.908	1.0	go	0.799	Go_X	1.0
649.433	1.0	go	0.506	Go_O	1.0
651.957	1.0	go	0.82	Go_X	1.0
654.481	0.25	stopsuccess	0.0	Go_O	1.0
657.005	1.0	go	0.468	Go_X	0.0
659.529	1.0	go	0.519	Go_O	1.0
662.053	1.0	go	0.604	Go_X	1.0
664.578	1.0	go	0.702	Go_O	1.0
667.102	0.3	stopfail	0.353	Go_X	0.0
669.626	1.0	go	0.319	Go_O	1.0
672.15	1.0	go	0.471	Go_X	1.0
674.674	0.25	stopfail	0.334	Go_O	0.0
677.198	1.0	go	0.562	Go_O	1.0
679.723	1.0	go	0.339	Go_X	1.0
682.247	1.0	go	0.536	Go_X	1.0
684.771	1.0	go	0.449	Go_O	1.0
687.295	0.2	stopsuccess	0.0	Go_X	1.0
689.819	1.0	go	0.447	Go_O	1.0
692.344	0.25	stopsuccess	0.0	Go_O	1.0
694.868	1.0	go	0.296	Go_X	1.0
697.392	1.0	go	0.447	Go_X	1.0
699.916	0.3	stopsuccess	0.0	Go_X	1.0
702.44	1.0	go	0.665	Go_O	1.0
704.964	1.0	go	0.822	Go_X	1.0
707.489	1.0	go	0.394	Go_O	1.0
710.013	1.0	go	0.578	Go_X	1.0
712.537	0.35	stopsuccess	0.0	Go_O	1.0
715.061	1.0	go	0.619	Go_O	1.0
717.585	0.4	stopsuccess	0.0	Go_X	1.0
720.109	1.0	go	0.314	Go_O	0.0
722.634	1.0	go	0.417	Go_X	1.0
725.174	1.0	go	0.413	Go_O	1.0
727.699	1.0	go	0.496	Go_X	1.0
730.223	1.0	go	0.732	Go_O	1.0
732.747	1.0	go	0.523	Go_X	1.0
735.271	0.45	stopfail	0.415	Go_O	0.0
737.795	1.0	go	0.645	Go_X	1.0
740.32	1.0	go	0.746	Go_O	1.0
742.844	0.4	stopsuccess	0.0	Go_X	1.0
745.368	1.0	go	0.487	Go_X	1.0
747.892	1.0	go	0.509	Go_O	1.0
750.416	0.45	stopfail	0.501	Go_O	0.0
752.94	1.0	go	0.578	Go_X	1.0
755.465	1.0	go	0.0	Go_O	0.0
757.989	1.0	go	0.504	Go_X	1.0
760.513	1.0	go	0.498	Go_O	1.0
763.037	0.4	stopfail	0.533	Go_X	0.0
765.561	1.0	go	0.634	Go_O	1.0
768.085	0.35	stopsuccess	0.0	Go_O	1.0
770.61	1.0	go	0.765	Go_X	1.0
773.134	1.0	go	0.741	Go_O	1.0
775.658	1.0	go	0.615	Go_X	1.0
778.182	1.0	go	0.414	Go_X	0.0
780.706	1.0	go	0.447	Go_O	1.0
783.23	0.4	stopsuccess	0.0	Go_X	1.0
785.755	1.0	go	0.988	Go_X	1.0
788.279	1.0	go	0.556	Go_O	1.0
790.803	0.45	stopfail	0.555	Go_O	0.0
793.327	0.4	stopsuccess	0.0	Go_X	1.0
795.851	1.0	go	0.675	Go_X	1.0
798.375	1.0	go	0.613	Go_O	1.0
800.9	1.0	go	0.961	Go_O	1.0
803.424	1.0	go	0.702	Go_X	1.0
805.948	0.45	stopfail	0.603	Go_O	0.0
808.472	1.0	go	0.763	Go_X	1.0
